Folder: fsri_materials_database/01_Data/Fiber_Cement_Board/FTIR/IS

Note: README.md
# Materials and Products Database
### Repository of materials and products properties and fire test data to improve fire modeling and fire investigation.

This project was supported in part by Award No. 2019-DU-BX-0018, awarded by the National Institute of Justice, Office of Justice Programs, U.S. Department of Justice. The opinions, findings, and conclusions or recommendations expressed in this publication / program / exhibition are those of the author(s) and do not necessarily reflect those of the Department of Justice.

***
***

__Cite this database:__ "McKinnon, M., Weinschenk, C., Dow, N., DiDomizio, M., and Madrzykowski, D. Materials and Products Database (Version 1.0.0), Fire Safety Research Institute, UL Research Institutes. Columbia, MD 21045, 2023."

__Cite the Technical Reference Guide:__ "McKinnon, M., Weinschenk, C., and Madrzykowski, D. Materials and Products Database - Technical Reference Guide, Fire Safety Research Institute, UL Research Institutes. Columbia, MD 21045, 2023."

__Cite the User Guide:__ "McKinnon, M., and Weinschenk, C. Materials and Products Database - User Guide, Fire Safety Research Institute, UL Research Institutes. Columbia, MD 21045, 2023."

***
***

## Database Structure

## 01_Data/
Raw data generated from each apparatus are included here in plain-text format. The data is organized first by material, next by the short name of test apparatus used, and where applicable additional filtering by test settings.

### Test Apparatus and Data File Structure
- __Cone Calorimeter__ (Cone)
    + Data file structure includes the material, the short name for the apparatus, heat flux setting and scan/scalar, date of test, and replicate number. Scan is for the raw output data and scalar is for the initial conditions and high-level test parameters. 
        * Example: __MDF_Cone_HF25scalar_210323_R1__ stands for the first replicate of scalar data generated from a medium density fiber board test in cone calorimeter exposed to 25 kW/m<sup>2</sup> on March 23, 2021.
    + A _Cone_Notes.csv_ is generated for each material from the __plot_Cone_data.py__ script. For materials whose experiments deviated from typical behavior relevant pictures are included in the respective material directory.
- __Fourier Transform Infrared Spectrometer__ (FTIR)
    + The FTIR directory contains subdirectories for the Attenuated Total Reflectance method (ATR) and the Integrating Sphere (IS)
    + Data file structure for the ATR experiment files includes the material, the abbreviated name for the apparatus, date of test, and replicate number. 
        * Example: __MDF_ATR_210323_R5__ stands for the fifth replicate of data collected with the ATR accessory conducted on June 8, 2021.
    + Data file structure for the IS experiment files includes the material, the abbreviated name for the apparatus, the measurand, whether the test is a sample measurement or standard reference, date of test, and replicate number.
        * Example: __OSB_IS_REFLECT_MEAS_2

File: Fiber_Cement_Board_IS_S_221012_R1.dpt
7497.03,0.51155
7473.89,0.51022
7450.74,0.50479
7427.6,0.50575
7404.45,0.50263
7381.31,0.50129
7358.16,0.49763
7335.02,0.50109
7311.87,0.49822
7288.73,0.49183
7265.58,0.50471
7242.44,0.50303
7219.29,0.50526
7196.15,0.49752
7173,0.49961
7149.86,0.49594
7126.71,0.48534
7103.57,0.48239
7080.42,0.48924
7057.28,0.48554
7034.13,0.48348
7010.99,0.48374
6987.84,0.48524
6964.7,0.48003
6941.55,0.48502
6918.41,0.47773
6895.26,0.48061
6872.12,0.48479
6848.97,0.48738
6825.83,0.47799
6802.68,0.48470
6779.54,0.48142
6756.39,0.48233
6733.25,0.48472
6710.1,0.48839
6686.96,0.48675
6663.82,0.48253
6640.67,0.48275
6617.53,0.48377
6594.38,0.48666
6571.24,0.48757
6548.09,0.48883
6524.95,0.48634
6501.8,0.49131
6478.66,0.48657
6455.51,0.48584
6432.37,0.48606
6409.22,0.48977
6386.08,0.48872
6362.93,0.48560
6339.79,0.48647
6316.64,0.48900
6293.5,0.48840
6270.35,0.48908
6247.21,0.48840
6224.06,0.48698
6200.92,0.49059
6177.77,0.48871
6154.63,0.49013
6131.48,0.49097
6108.34,0.49101
6085.19,0.49155
6062.05,0.49057
6038.9,0.49248
6015.76,0.49056
5992.61,0.49072
5969.47,0.48704
5946.32,0.48604
5923.18,0.48929
5900.03,0.48945
5876.89,0.48833
5853.74,0.48583
5830.6,0.48675
5807.45,0.48685
5784.31,0.48426
5761.16,0.48620
5738.02,0.48454
5714.87,0.48615
5691.73,0.48408
5668.58,0.48404
5645.44,0.48246
5622.29,0.48596
5599.15,0.48120
5576,0.48142
5552.86,0.48217
5529.71,0.48171
5506.57,0.48058
5483.42,0.48128
5460.28,0.48083
5437.13,0.48179
5413.99,0.47881
5390.84,0.47903
5367.7,0.47826
5344.55,0.47530
5321.41,0.47165
5298.26,0.46371
5275.12,0.45340
5251.97,0.43539
5228.83,0.41677
5205.68,0.40350
5182.54,0.40088
5159.39,0.40757
5136.25,0.41293
5113.1,0.42116
5089.96,0.42499
5066.81,0.43058
5043.67,0.43447
5020.52,0.43970
4997.38,0.44230
4974.23,0.44402
4951.09,0.44343
4927.94,0.44646
4904.8,0.44396
4881.65,0.44199
4858.51,0.43786
4835.36,0.43557
4812.22,0.43395
4789.07,0.43150
4765.93,0.42961
4742.78,0.42880
4719.64,0.43210
4696.49,0.43273
4673.35,0.43408
4650.2,0.43580
4627.06,0.43607
4603.92,0.43508
4580.77,0.43567
4557.63,0.43476
4534.48,0.43195
4511.34,0.43040
4488.19,0.42760
4465.05,0.42292
4441.9,0.41645
4418.76,0.41043
4395.61,0.40700
4372.47,0.40937
4349.32,0.40743
4326.18,0.40562
4303.03,0.40102
4279.89,0.39582
4256.74,0.39341
4233.6,0.39049
4210.45,0.38797
4187.31,0.38522
4164.16,0.38115
4141.02,0.37629
4117.87,0.36857
4094.73,0.35862
4071.58,0.34714
4048.44,0.33596
4025.29,0.32762
4002.15,0.32721
3979,0.32848
3955.86,0.32885
3932.71,0.32826
3909.57,0.32970
3886.42,0.32917
3863.28,0.32740
3840.13,0.32492
3816.99,0.32123
3793.84,0.31480
3770.7,0.30540
3747.55,0.28841
3724.41,0.26596
3701.26,0.21403
3678.12,0.16258
3654.97,0.11628
3631.83,0.09064
3608.68,0.07434
3585.54,0.06391
3562.39,0.05734
3539.25,0.05255
3516.1,0.04896
3492.96,0.04489
3469.81,0.04288
3446.67,0.04153
3423.52,0.04049
3400.38,0.04062
3377.23,0.04030
3354.09,0.04140
3330.94,0.04324
3307.8,0.04459
3284.65,0.04670
3261.51,0.05009
3238.36,0.05433
3215.22,0.05825
3192.07,0.06188
3168.93,0.06686
3145.78,0.07164
3122.64,0.07607
3099.49,0.08184
3076.35,0.08650
3053.2,0.09163
3030.06,0.09350
3006.91,0.09855
2983.77,0.09544
2960.62,0.08254
2937.48,0.07814
2914.33,0.07525
2891.19,0.07966
2868.04,0.08604
2844.9,0.09877
2821.75,0.11540
2798.61,0.12716
2775.46,0.13339
2752.32,0.13776
2729.17,0.14165
2706.03,0.14771
2682.88,0.15665
2659.74,0.16309
2636.59,0.16946
2613.45,0.17515
2590.3,0.17982
2567.16,0.18164
2544.02,0.18206
2520.87,0.18397
2497.73,0.18896
2474.58,0.19399
2451.44,0.19716
2428.29,0.20027
2405.15,0.20174
2382,0.20133
2358.86,0.20016
2335.71,0.19849
2312.57,0.19853
2289.42,0.19584
2266.28,0.19051
2243.13,0.18556
2219.99,0.18528
2196.84,0.18732
2173.7,0.18315
2150.55,0.17777
2127.41,0.17571
2104.26,0.17744
2081.12,0.17701
2057.97,0.17252
2034.83,0.15673
2011.68,0.14590
1988.54,0.14006
1965.39,0.14332
1942.25,0.14663
1919.1,0.14678
1895.96,0.12445
1872.81,0.11550
1849.67,0.13376
1826.52,0.13975
1803.38,0.12453
1780.23,0.12051
1757.09,0.12488
1733.94,0.07945
1710.8,0.08963
1687.65,0.07637
1664.51,0.06334
1641.36,0.05605
1618.22,0.05511
1595.07,0.05688
1571.93,0.06003
1548.78,0.06189
1525.64,0.05700
1502.49,0.05194
1479.35,0.04483
1456.2,0.03893
1433.06,0.03606
1409.91,0.04068
1386.77,0.03902
1363.62,0.04028
1340.48,0.04473
1317.33,0.04633
1294.19,0.05751
1271.04,0.06047
1247.9,0.07585
1224.75,0.10513
1201.61,0.08869
1178.46,0.08165
1155.32,0.07193
1132.17,0.08854
1109.03,0.09747
1085.88,0.10297
1062.74,0.08889
1039.59,0.06734
1016.45,0.06549
993.304,0.06584
970.159,0.07280
947.014,0.07441
923.869,0.07333
900.724,0.06594
877.579,0.06790
854.434,0.06876
831.289,0.06180
808.144,0.05630
784.999,0.06759
761.854,0.06215
738.709,0.05719
715.565,0.04883
692.42,0.04428
669.275,0.04555
646.13,0.04474
622.985,0.04140
599.84,0.04232

File: Fiber_Cement_Board_IS_S_221012_R2.dpt
7497.03,0.51052
7473.89,0.51504
7450.74,0.50280
7427.6,0.50084
7404.45,0.50225
7381.31,0.50975
7358.16,0.50652
7335.02,0.49707
7311.87,0.50773
7288.73,0.50650
7265.58,0.50252
7242.44,0.49868
7219.29,0.50195
7196.15,0.49408
7173,0.49758
7149.86,0.49540
7126.71,0.49042
7103.57,0.48616
7080.42,0.48927
7057.28,0.48815
7034.13,0.49212
7010.99,0.48776
6987.84,0.48585
6964.7,0.48334
6941.55,0.48255
6918.41,0.48495
6895.26,0.47928
6872.12,0.48083
6848.97,0.48220
6825.83,0.47705
6802.68,0.48295
6779.54,0.48009
6756.39,0.48405
6733.25,0.48065
6710.1,0.48477
6686.96,0.48838
6663.82,0.48305
6640.67,0.48072
6617.53,0.48596
6594.38,0.48898
6571.24,0.48830
6548.09,0.48875
6524.95,0.48765
6501.8,0.48903
6478.66,0.49100
6455.51,0.48799
6432.37,0.49048
6409.22,0.48993
6386.08,0.48939
6362.93,0.48538
6339.79,0.48984
6316.64,0.48654
6293.5,0.49054
6270.35,0.49033
6247.21,0.49095
6224.06,0.49073
6200.92,0.49226
6177.77,0.49165
6154.63,0.49064
6131.48,0.49143
6108.34,0.49182
6085.19,0.49022
6062.05,0.49112
6038.9,0.49333
6015.76,0.48879
5992.61,0.49353
5969.47,0.49165
5946.32,0.49041
5923.18,0.49112
5900.03,0.48720
5876.89,0.48791
5853.74,0.48709
5830.6,0.48813
5807.45,0.48913
5784.31,0.48652
5761.16,0.48574
5738.02,0.48646
5714.87,0.48580
5691.73,0.48473
5668.58,0.48809
5645.44,0.48354
5622.29,0.48324
5599.15,0.48402
5576,0.48183
5552.86,0.48207
5529.71,0.48396
5506.57,0.48240
5483.42,0.48323
5460.28,0.47959
5437.13,0.48123
5413.99,0.48045
5390.84,0.47892
5367.7,0.47986
5344.55,0.47672
5321.41,0.47129
5298.26,0.46710
5275.12,0.45531
5251.97,0.43814
5228.83,0.41894
5205.68,0.40705
5182.54,0.40373
5159.39,0.40940
5136.25,0.41622
5113.1,0.42218
5089.96,0.42980
5066.81,0.43377
5043.67,0.43817
5020.52,0.44040
4997.38,0.44312
4974.23,0.44599
4951.09,0.44693
4927.94,0.44743
4904.8,0.44409
4881.65,0.44225
4858.51,0.43895
4835.36,0.43655
4812.22,0.43486
4789.07,0.43075
4765.93,0.43040
4742.78,0.43151
4719.64,0.43205
4696.49,0.43424
4673.35,0.43466
4650.2,0.43618
4627.06,0.43687
4603.92,0.43572
4580.77,0.43639
4557.63,0.43459
4534.48,0.43259
4511.34,0.43125
4488.19,0.42826
4465.05,0.42458
4441.9,0.41773
4418.76,0.41193
4395.61,0.40708
4372.47,0.40953
4349.32,0.40876
4326.18,0.40577
4303.03,0.40206
4279.89,0.39728
4256.74,0.39442
4233.6,0.39203
4210.45,0.38832
4187.31,0.38545
4164.16,0.38304
4141.02,0.37715
4117.87,0.36946
4094.73,0.35975
4071.58,0.34874
4048.44,0.33667
4025.29,0.32850
4002.15,0.32796
3979,0.32943
3955.86,0.32993
3932.71,0.33053
3909.57,0.33118
3886.42,0.33141
3863.28,0.33013
3840.13,0.32905
3816.99,0.32372
3793.84,0.31658
3770.7,0.30712
3747.55,0.29320
3724.41,0.26859
3701.26,0.21530
3678.12,0.16450
3654.97,0.11805
3631.83,0.09312
3608.68,0.07587
3585.54,0.06543
3562.39,0.05832
3539.25,0.05327
3516.1,0.04886
3492.96,0.04577
3469.81,0.04295
3446.67,0.04215
3423.52,0.04056
3400.38,0.04084
3377.23,0.04085
3354.09,0.04156
3330.94,0.04384
3307.8,0.04559
3284.65,0.04670
3261.51,0.05112
3238.36,0.05441
3215.22,0.05915
3192.07,0.06258
3168.93,0.06665
3145.78,0.07164
3122.64,0.07747
3099.49,0.08274
3076.35,0.08824
3053.2,0.09280
3030.06,0.09544
3006.91,0.09903
2983.77,0.09627
2960.62,0.08367
2937.48,0.07857
2914.33,0.07556
2891.19,0.07971
2868.04,0.08625
2844.9,0.09956
2821.75,0.11619
2798.61,0.12807
2775.46,0.13404
2752.32,0.13862
2729.17,0.14225
2706.03,0.14860
2682.88,0.15741
2659.74,0.16390
2636.59,0.16987
2613.45,0.17572
2590.3,0.17988
2567.16,0.18210
2544.02,0.18315
2520.87,0.18499
2497.73,0.18964
2474.58,0.19483
2451.44,0.19794
2428.29,0.20087
2405.15,0.20274
2382,0.20223
2358.86,0.20218
2335.71,0.20080
2312.57,0.20027
2289.42,0.19708
2266.28,0.19158
2243.13,0.18656
2219.99,0.18643
2196.84,0.18867
2173.7,0.18440
2150.55,0.17886
2127.41,0.17642
2104.26,0.17868
2081.12,0.17849
2057.97,0.17343
2034.83,0.15818
2011.68,0.14688
1988.54,0.14078
1965.39,0.14388
1942.25,0.14698
1919.1,0.14808
1895.96,0.12501
1872.81,0.11572
1849.67,0.13402
1826.52,0.14089
1803.38,0.12512
1780.23,0.12175
1757.09,0.12585
1733.94,0.08037
1710.8,0.09102
1687.65,0.07750
1664.51,0.06467
1641.36,0.05693
1618.22,0.05569
1595.07,0.05701
1571.93,0.05996
1548.78,0.06156
1525.64,0.05781
1502.49,0.05231
1479.35,0.04476
1456.2,0.03891
1433.06,0.03576
1409.91,0.04061
1386.77,0.03942
1363.62,0.04045
1340.48,0.04457
1317.33,0.04659
1294.19,0.05733
1271.04,0.06010
1247.9,0.07561
1224.75,0.10590
1201.61,0.08862
1178.46,0.08128
1155.32,0.07149
1132.17,0.08666
1109.03,0.09747
1085.88,0.10263
1062.74,0.08910
1039.59,0.06757
1016.45,0.06612
993.304,0.06688
970.159,0.07300
947.014,0.07449
923.869,0.07373
900.724,0.06633
877.579,0.06951
854.434,0.06932
831.289,0.06203
808.144,0.05719
784.999,0.06813
761.854,0.06266
738.709,0.05726
715.565,0.04807
692.42,0.04458
669.275,0.04516
646.13,0.04336
622.985,0.04136
599.84,0.04296

File: Fiber_Cement_Board_IS_S_221012_R3.dpt
7497.03,0.51089
7473.89,0.49707
7450.74,0.50691
7427.6,0.51105
7404.45,0.51407
7381.31,0.51450
7358.16,0.50265
7335.02,0.49833
7311.87,0.51094
7288.73,0.50594
7265.58,0.50340
7242.44,0.50710
7219.29,0.50103
7196.15,0.50663
7173,0.49237
7149.86,0.48518
7126.71,0.49176
7103.57,0.49985
7080.42,0.48632
7057.28,0.48537
7034.13,0.48737
7010.99,0.48301
6987.84,0.48674
6964.7,0.48700
6941.55,0.48435
6918.41,0.48607
6895.26,0.48500
6872.12,0.48290
6848.97,0.48008
6825.83,0.48308
6802.68,0.48421
6779.54,0.49036
6756.39,0.48760
6733.25,0.48776
6710.1,0.48235
6686.96,0.48447
6663.82,0.48474
6640.67,0.48584
6617.53,0.49087
6594.38,0.48371
6571.24,0.48518
6548.09,0.49079
6524.95,0.48300
6501.8,0.48859
6478.66,0.48779
6455.51,0.48834
6432.37,0.48625
6409.22,0.48775
6386.08,0.48920
6362.93,0.48882
6339.79,0.49061
6316.64,0.49005
6293.5,0.49209
6270.35,0.48546
6247.21,0.48797
6224.06,0.48790
6200.92,0.49635
6177.77,0.49658
6154.63,0.49064
6131.48,0.49231
6108.34,0.49137
6085.19,0.49146
6062.05,0.49358
6038.9,0.49267
6015.76,0.49374
5992.61,0.49191
5969.47,0.49199
5946.32,0.48891
5923.18,0.48846
5900.03,0.48983
5876.89,0.48963
5853.74,0.48769
5830.6,0.48788
5807.45,0.48909
5784.31,0.48638
5761.16,0.48764
5738.02,0.48629
5714.87,0.48740
5691.73,0.48528
5668.58,0.48562
5645.44,0.48549
5622.29,0.48525
5599.15,0.48561
5576,0.48357
5552.86,0.48540
5529.71,0.48406
5506.57,0.48382
5483.42,0.48307
5460.28,0.48081
5437.13,0.48207
5413.99,0.48196
5390.84,0.48269
5367.7,0.48078
5344.55,0.47820
5321.41,0.47312
5298.26,0.46786
5275.12,0.45435
5251.97,0.43882
5228.83,0.42062
5205.68,0.40771
5182.54,0.40418
5159.39,0.40953
5136.25,0.41831
5113.1,0.42396
5089.96,0.42903
5066.81,0.43477
5043.67,0.43716
5020.52,0.44052
4997.38,0.44529
4974.23,0.44568
4951.09,0.44732
4927.94,0.44677
4904.8,0.44360
4881.65,0.44288
4858.51,0.43921
4835.36,0.43775
4812.22,0.43427
4789.07,0.43205
4765.93,0.43242
4742.78,0.43200
4719.64,0.43384
4696.49,0.43500
4673.35,0.43590
4650.2,0.43668
4627.06,0.43752
4603.92,0.43685
4580.77,0.43723
4557.63,0.43614
4534.48,0.43338
4511.34,0.43200
4488.19,0.42937
4465.05,0.42425
4441.9,0.41945
4418.76,0.41300
4395.61,0.40789
4372.47,0.41094
4349.32,0.40913
4326.18,0.40660
4303.03,0.40303
4279.89,0.39843
4256.74,0.39524
4233.6,0.39342
4210.45,0.38998
4187.31,0.38772
4164.16,0.38310
4141.02,0.37713
4117.87,0.37002
4094.73,0.36040
4071.58,0.34959
4048.44,0.33807
4025.29,0.32998
4002.15,0.32885
3979,0.33100
3955.86,0.33068
3932.71,0.33196
3909.57,0.33299
3886.42,0.33235
3863.28,0.33180
3840.13,0.33000
3816.99,0.32499
3793.84,0.31763
3770.7,0.30812
3747.55,0.29405
3724.41,0.26849
3701.26,0.21583
3678.12,0.16607
3654.97,0.11856
3631.83,0.09317
3608.68,0.07638
3585.54,0.06611
3562.39,0.05910
3539.25,0.05340
3516.1,0.04917
3492.96,0.04632
3469.81,0.04331
3446.67,0.04158
3423.52,0.04093
3400.38,0.04110
3377.23,0.04153
3354.09,0.04136
3330.94,0.04377
3307.8,0.04507
3284.65,0.04673
3261.51,0.05058
3238.36,0.05504
3215.22,0.05916
3192.07,0.06268
3168.93,0.06718
3145.78,0.07273
3122.64,0.07828
3099.49,0.08269
3076.35,0.08929
3053.2,0.09331
3030.06,0.09585
3006.91,0.09981
2983.77,0.09661
2960.62,0.08341
2937.48,0.07897
2914.33,0.07615
2891.19,0.08003
2868.04,0.08626
2844.9,0.09959
2821.75,0.11652
2798.61,0.12859
2775.46,0.13469
2752.32,0.13919
2729.17,0.14278
2706.03,0.14967
2682.88,0.15721
2659.74,0.16428
2636.59,0.17089
2613.45,0.17645
2590.3,0.18034
2567.16,0.18256
2544.02,0.18383
2520.87,0.18551
2497.73,0.19050
2474.58,0.19562
2451.44,0.19816
2428.29,0.20155
2405.15,0.20293
2382,0.20318
2358.86,0.20252
2335.71,0.20138
2312.57,0.20108
2289.42,0.19772
2266.28,0.19220
2243.13,0.18700
2219.99,0.18734
2196.84,0.18956
2173.7,0.18505
2150.55,0.18010
2127.41,0.17765
2104.26,0.17980
2081.12,0.17894
2057.97,0.17420
2034.83,0.15816
2011.68,0.14711
1988.54,0.14086
1965.39,0.14441
1942.25,0.14772
1919.1,0.14800
1895.96,0.12507
1872.81,0.11578
1849.67,0.13434
1826.52,0.14097
1803.38,0.12491
1780.23,0.12150
1757.09,0.12645
1733.94,0.07952
1710.8,0.09172
1687.65,0.07774
1664.51,0.06507
1641.36,0.05771
1618.22,0.05582
1595.07,0.05741
1571.93,0.06041
1548.78,0.06196
1525.64,0.05755
1502.49,0.05220
1479.35,0.04473
1456.2,0.03872
1433.06,0.03628
1409.91,0.04037
1386.77,0.03927
1363.62,0.04086
1340.48,0.04456
1317.33,0.04651
1294.19,0.05702
1271.04,0.06031
1247.9,0.07632
1224.75,0.10545
1201.61,0.08912
1178.46,0.08176
1155.32,0.07145
1132.17,0.08647
1109.03,0.09726
1085.88,0.10216
1062.74,0.08904
1039.59,0.06765
1016.45,0.06656
993.304,0.06713
970.159,0.07286
947.014,0.07423
923.869,0.07367
900.724,0.06654
877.579,0.06901
854.434,0.06939
831.289,0.06232
808.144,0.05729
784.999,0.06816
761.854,0.06391
738.709,0.05793
715.565,0.04881
692.42,0.04407
669.275,0.04636
646.13,0.04359
622.985,0.03953
599.84,0.04240

File: Fiber_Cement_Board_IS_S_221012_R4.dpt
7497.03,0.51073
7473.89,0.51716
7450.74,0.50879
7427.6,0.50650
7404.45,0.50860
7381.31,0.51022
7358.16,0.51243
7335.02,0.50789
7311.87,0.50570
7288.73,0.50216
7265.58,0.50200
7242.44,0.50312
7219.29,0.50152
7196.15,0.49915
7173,0.50066
7149.86,0.49530
7126.71,0.48664
7103.57,0.48689
7080.42,0.49094
7057.28,0.48638
7034.13,0.48289
7010.99,0.48371
6987.84,0.48400
6964.7,0.47817
6941.55,0.48256
6918.41,0.48141
6895.26,0.47880
6872.12,0.48506
6848.97,0.48374
6825.83,0.48452
6802.68,0.48453
6779.54,0.48059
6756.39,0.48546
6733.25,0.48143
6710.1,0.48103
6686.96,0.48305
6663.82,0.48470
6640.67,0.48670
6617.53,0.49050
6594.38,0.48917
6571.24,0.48483
6548.09,0.48472
6524.95,0.48862
6501.8,0.48751
6478.66,0.48450
6455.51,0.48784
6432.37,0.48935
6409.22,0.48850
6386.08,0.48581
6362.93,0.49047
6339.79,0.48928
6316.64,0.48779
6293.5,0.49022
6270.35,0.48827
6247.21,0.49106
6224.06,0.48882
6200.92,0.49020
6177.77,0.49069
6154.63,0.49028
6131.48,0.49201
6108.34,0.49138
6085.19,0.49234
6062.05,0.49309
6038.9,0.49356
6015.76,0.49321
5992.61,0.49273
5969.47,0.49112
5946.32,0.48961
5923.18,0.48735
5900.03,0.48866
5876.89,0.48752
5853.74,0.48977
5830.6,0.48736
5807.45,0.48899
5784.31,0.48870
5761.16,0.48279
5738.02,0.48564
5714.87,0.48549
5691.73,0.48669
5668.58,0.48499
5645.44,0.48392
5622.29,0.48517
5599.15,0.48604
5576,0.48394
5552.86,0.48322
5529.71,0.48266
5506.57,0.48319
5483.42,0.48389
5460.28,0.48163
5437.13,0.48179
5413.99,0.48052
5390.84,0.48159
5367.7,0.47948
5344.55,0.47687
5321.41,0.47249
5298.26,0.46683
5275.12,0.45513
5251.97,0.43842
5228.83,0.41987
5205.68,0.40699
5182.54,0.40507
5159.39,0.41046
5136.25,0.41758
5113.1,0.42432
5089.96,0.42947
5066.81,0.43435
5043.67,0.43846
5020.52,0.44163
4997.38,0.44447
4974.23,0.44561
4951.09,0.44635
4927.94,0.44733
4904.8,0.44487
4881.65,0.44220
4858.51,0.43983
4835.36,0.43695
4812.22,0.43380
4789.07,0.43234
4765.93,0.43104
4742.78,0.43041
4719.64,0.43248
4696.49,0.43531
4673.35,0.43569
4650.2,0.43677
4627.06,0.43719
4603.92,0.43743
4580.77,0.43638
4557.63,0.43571
4534.48,0.43360
4511.34,0.43147
4488.19,0.42832
4465.05,0.42416
4441.9,0.41788
4418.76,0.41253
4395.61,0.40799
4372.47,0.41001
4349.32,0.40928
4326.18,0.40669
4303.03,0.40249
4279.89,0.39817
4256.74,0.39424
4233.6,0.39235
4210.45,0.39015
4187.31,0.38700
4164.16,0.38273
4141.02,0.37694
4117.87,0.36959
4094.73,0.35921
4071.58,0.34886
4048.44,0.33838
4025.29,0.32984
4002.15,0.32969
3979,0.32999
3955.86,0.33011
3932.71,0.33063
3909.57,0.33210
3886.42,0.33185
3863.28,0.33116
3840.13,0.32958
3816.99,0.32514
3793.84,0.31740
3770.7,0.30802
3747.55,0.29416
3724.41,0.26806
3701.26,0.21605
3678.12,0.16603
3654.97,0.11899
3631.83,0.09390
3608.68,0.07690
3585.54,0.06630
3562.39,0.05891
3539.25,0.05365
3516.1,0.05003
3492.96,0.04620
3469.81,0.04346
3446.67,0.04235
3423.52,0.04109
3400.38,0.04037
3377.23,0.04156
3354.09,0.04130
3330.94,0.04432
3307.8,0.04588
3284.65,0.04687
3261.51,0.05071
3238.36,0.05492
3215.22,0.05885
3192.07,0.06339
3168.93,0.06796
3145.78,0.07382
3122.64,0.07787
3099.49,0.08384
3076.35,0.08873
3053.2,0.09313
3030.06,0.09573
3006.91,0.10046
2983.77,0.09658
2960.62,0.08356
2937.48,0.07857
2914.33,0.07562
2891.19,0.07972
2868.04,0.08610
2844.9,0.09957
2821.75,0.11621
2798.61,0.12871
2775.46,0.13511
2752.32,0.13925
2729.17,0.14320
2706.03,0.14944
2682.88,0.15790
2659.74,0.16437
2636.59,0.17061
2613.45,0.17603
2590.3,0.18075
2567.16,0.18306
2544.02,0.18345
2520.87,0.18531
2497.73,0.19029
2474.58,0.19550
2451.44,0.19869
2428.29,0.20133
2405.15,0.20330
2382,0.20281
2358.86,0.19902
2335.71,0.19941
2312.57,0.20040
2289.42,0.19777
2266.28,0.19278
2243.13,0.18724
2219.99,0.18722
2196.84,0.18947
2173.7,0.18567
2150.55,0.17987
2127.41,0.17774
2104.26,0.17976
2081.12,0.17908
2057.97,0.17435
2034.83,0.15825
2011.68,0.14730
1988.54,0.14103
1965.39,0.14428
1942.25,0.14772
1919.1,0.14816
1895.96,0.12508
1872.81,0.11611
1849.67,0.13442
1826.52,0.14067
1803.38,0.12538
1780.23,0.12197
1757.09,0.12629
1733.94,0.08033
1710.8,0.09170
1687.65,0.07805
1664.51,0.06565
1641.36,0.05780
1618.22,0.05570
1595.07,0.05763
1571.93,0.06048
1548.78,0.06208
1525.64,0.05813
1502.49,0.05247
1479.35,0.04509
1456.2,0.03863
1433.06,0.03609
1409.91,0.04063
1386.77,0.03920
1363.62,0.04059
1340.48,0.04442
1317.33,0.04648
1294.19,0.05699
1271.04,0.06037
1247.9,0.07617
1224.75,0.10542
1201.61,0.08934
1178.46,0.08151
1155.32,0.07128
1132.17,0.08654
1109.03,0.09709
1085.88,0.10229
1062.74,0.08887
1039.59,0.06730
1016.45,0.06626
993.304,0.06654
970.159,0.07267
947.014,0.07484
923.869,0.07366
900.724,0.06602
877.579,0.06927
854.434,0.06934
831.289,0.06291
808.144,0.05815
784.999,0.06797
761.854,0.06332
738.709,0.05811
715.565,0.04953
692.42,0.04447
669.275,0.04502
646.13,0.04494
622.985,0.04109
599.84,0.04102