Folder: fsri_materials_database/01_Data/Fiber_Cement_Board/FTIR/IS (part 2)

File: Fiber_Cement_Board_IS_S_221012_R5.dpt
7497.03,0.51072
7473.89,0.51494
7450.74,0.51341
7427.6,0.50716
7404.45,0.51855
7381.31,0.50079
7358.16,0.50480
7335.02,0.51337
7311.87,0.51229
7288.73,0.50079
7265.58,0.50544
7242.44,0.50278
7219.29,0.50540
7196.15,0.49877
7173,0.50327
7149.86,0.49336
7126.71,0.48597
7103.57,0.49652
7080.42,0.49074
7057.28,0.48388
7034.13,0.48063
7010.99,0.48421
6987.84,0.48255
6964.7,0.48262
6941.55,0.48371
6918.41,0.48990
6895.26,0.48182
6872.12,0.47952
6848.97,0.48422
6825.83,0.48037
6802.68,0.47905
6779.54,0.48337
6756.39,0.48355
6733.25,0.47858
6710.1,0.47798
6686.96,0.48629
6663.82,0.48443
6640.67,0.48367
6617.53,0.48252
6594.38,0.48657
6571.24,0.49162
6548.09,0.48529
6524.95,0.49068
6501.8,0.48737
6478.66,0.48561
6455.51,0.48924
6432.37,0.48869
6409.22,0.49270
6386.08,0.48958
6362.93,0.49065
6339.79,0.48510
6316.64,0.49132
6293.5,0.48839
6270.35,0.49023
6247.21,0.49272
6224.06,0.48996
6200.92,0.49471
6177.77,0.49033
6154.63,0.49165
6131.48,0.49142
6108.34,0.49139
6085.19,0.49335
6062.05,0.49225
6038.9,0.49337
6015.76,0.49171
5992.61,0.49069
5969.47,0.48826
5946.32,0.48955
5923.18,0.48752
5900.03,0.49177
5876.89,0.48949
5853.74,0.49026
5830.6,0.48726
5807.45,0.48763
5784.31,0.48656
5761.16,0.48617
5738.02,0.48621
5714.87,0.48488
5691.73,0.48404
5668.58,0.48513
5645.44,0.48414
5622.29,0.48534
5599.15,0.48294
5576,0.48344
5552.86,0.48179
5529.71,0.48408
5506.57,0.48201
5483.42,0.48217
5460.28,0.48118
5437.13,0.47992
5413.99,0.48247
5390.84,0.48001
5367.7,0.47730
5344.55,0.47662
5321.41,0.47191
5298.26,0.46643
5275.12,0.45396
5251.97,0.43813
5228.83,0.41920
5205.68,0.40759
5182.54,0.40493
5159.39,0.41055
5136.25,0.41800
5113.1,0.42518
5089.96,0.42907
5066.81,0.43338
5043.67,0.43787
5020.52,0.44051
4997.38,0.44429
4974.23,0.44590
4951.09,0.44632
4927.94,0.44589
4904.8,0.44460
4881.65,0.44206
4858.51,0.43914
4835.36,0.43658
4812.22,0.43314
4789.07,0.43130
4765.93,0.43030
4742.78,0.43081
4719.64,0.43281
4696.49,0.43389
4673.35,0.43451
4650.2,0.43614
4627.06,0.43648
4603.92,0.43680
4580.77,0.43669
4557.63,0.43449
4534.48,0.43319
4511.34,0.43033
4488.19,0.42746
4465.05,0.42373
4441.9,0.41742
4418.76,0.41156
4395.61,0.40728
4372.47,0.41060
4349.32,0.40880
4326.18,0.40585
4303.03,0.40219
4279.89,0.39816
4256.74,0.39466
4233.6,0.39245
4210.45,0.38930
4187.31,0.38650
4164.16,0.38178
4141.02,0.37631
4117.87,0.36957
4094.73,0.35950
4071.58,0.34876
4048.44,0.33749
4025.29,0.32976
4002.15,0.32874
3979,0.32948
3955.86,0.33025
3932.71,0.33159
3909.57,0.33193
3886.42,0.33198
3863.28,0.33073
3840.13,0.32964
3816.99,0.32424
3793.84,0.31696
3770.7,0.30744
3747.55,0.29431
3724.41,0.26812
3701.26,0.21620
3678.12,0.16598
3654.97,0.11925
3631.83,0.09330
3608.68,0.07724
3585.54,0.06657
3562.39,0.05988
3539.25,0.05371
3516.1,0.04910
3492.96,0.04572
3469.81,0.04365
3446.67,0.04243
3423.52,0.04093
3400.38,0.04088
3377.23,0.04098
3354.09,0.04241
3330.94,0.04386
3307.8,0.04583
3284.65,0.04762
3261.51,0.05188
3238.36,0.05511
3215.22,0.05899
3192.07,0.06306
3168.93,0.06792
3145.78,0.07279
3122.64,0.07861
3099.49,0.08366
3076.35,0.08864
3053.2,0.09382
3030.06,0.09583
3006.91,0.09959
2983.77,0.09683
2960.62,0.08344
2937.48,0.07848
2914.33,0.07623
2891.19,0.07994
2868.04,0.08590
2844.9,0.09968
2821.75,0.11626
2798.61,0.12807
2775.46,0.13462
2752.32,0.13925
2729.17,0.14322
2706.03,0.14956
2682.88,0.15734
2659.74,0.16419
2636.59,0.17033
2613.45,0.17607
2590.3,0.18009
2567.16,0.18293
2544.02,0.18346
2520.87,0.18567
2497.73,0.19028
2474.58,0.19496
2451.44,0.19820
2428.29,0.20124
2405.15,0.20287
2382,0.20301
2358.86,0.20373
2335.71,0.20246
2312.57,0.20072
2289.42,0.19741
2266.28,0.19256
2243.13,0.18725
2219.99,0.18723
2196.84,0.18957
2173.7,0.18553
2150.55,0.17985
2127.41,0.17780
2104.26,0.17961
2081.12,0.17947
2057.97,0.17407
2034.83,0.15827
2011.68,0.14704
1988.54,0.14102
1965.39,0.14413
1942.25,0.14774
1919.1,0.14784
1895.96,0.12523
1872.81,0.11584
1849.67,0.13413
1826.52,0.14123
1803.38,0.12515
1780.23,0.12176
1757.09,0.12647
1733.94,0.07954
1710.8,0.09199
1687.65,0.07825
1664.51,0.06572
1641.36,0.05795
1618.22,0.05580
1595.07,0.05789
1571.93,0.06059
1548.78,0.06216
1525.64,0.05767
1502.49,0.05242
1479.35,0.04512
1456.2,0.03867
1433.06,0.03627
1409.91,0.04051
1386.77,0.03894
1363.62,0.04068
1340.48,0.04457
1317.33,0.04654
1294.19,0.05718
1271.04,0.06038
1247.9,0.07608
1224.75,0.10511
1201.61,0.08907
1178.46,0.08143
1155.32,0.07192
1132.17,0.08631
1109.03,0.09729
1085.88,0.10298
1062.74,0.08954
1039.59,0.06749
1016.45,0.06606
993.304,0.06700
970.159,0.07253
947.014,0.07445
923.869,0.07368
900.724,0.06668
877.579,0.06949
854.434,0.06961
831.289,0.06284
808.144,0.05733
784.999,0.06844
761.854,0.06306
738.709,0.05840
715.565,0.04970
692.42,0.04423
669.275,0.04639
646.13,0.04433
622.985,0.03988
599.84,0.04222

File: Fiber_Cement_Board_IS_S_221012_R6.dpt
7497.03,0.51839
7473.89,0.52418
7450.74,0.51364
7427.6,0.51194
7404.45,0.51138
7381.31,0.51509
7358.16,0.50874
7335.02,0.49919
7311.87,0.50361
7288.73,0.50255
7265.58,0.49867
7242.44,0.50192
7219.29,0.49903
7196.15,0.50021
7173,0.49039
7149.86,0.49096
7126.71,0.49553
7103.57,0.48981
7080.42,0.48560
7057.28,0.48758
7034.13,0.48872
7010.99,0.47406
6987.84,0.47828
6964.7,0.49047
6941.55,0.48309
6918.41,0.48937
6895.26,0.48042
6872.12,0.48088
6848.97,0.47973
6825.83,0.48398
6802.68,0.48746
6779.54,0.48602
6756.39,0.48146
6733.25,0.47909
6710.1,0.48649
6686.96,0.48174
6663.82,0.48947
6640.67,0.48437
6617.53,0.49029
6594.38,0.47923
6571.24,0.48602
6548.09,0.48466
6524.95,0.49106
6501.8,0.48718
6478.66,0.48870
6455.51,0.49108
6432.37,0.48505
6409.22,0.49233
6386.08,0.49383
6362.93,0.49041
6339.79,0.48845
6316.64,0.48827
6293.5,0.49071
6270.35,0.49251
6247.21,0.49385
6224.06,0.49143
6200.92,0.48816
6177.77,0.49184
6154.63,0.49323
6131.48,0.48966
6108.34,0.48899
6085.19,0.49144
6062.05,0.49083
6038.9,0.49038
6015.76,0.49194
5992.61,0.49112
5969.47,0.49125
5946.32,0.49192
5923.18,0.48977
5900.03,0.48998
5876.89,0.48971
5853.74,0.49069
5830.6,0.49112
5807.45,0.48724
5784.31,0.48669
5761.16,0.48866
5738.02,0.48751
5714.87,0.48397
5691.73,0.48366
5668.58,0.48547
5645.44,0.48450
5622.29,0.48400
5599.15,0.48500
5576,0.48374
5552.86,0.48298
5529.71,0.48389
5506.57,0.48305
5483.42,0.48356
5460.28,0.48213
5437.13,0.48199
5413.99,0.48285
5390.84,0.47953
5367.7,0.47994
5344.55,0.47778
5321.41,0.47308
5298.26,0.46511
5275.12,0.45511
5251.97,0.43933
5228.83,0.42084
5205.68,0.40690
5182.54,0.40522
5159.39,0.41131
5136.25,0.41704
5113.1,0.42448
5089.96,0.43024
5066.81,0.43381
5043.67,0.43749
5020.52,0.44224
4997.38,0.44384
4974.23,0.44734
4951.09,0.44681
4927.94,0.44653
4904.8,0.44600
4881.65,0.44251
4858.51,0.43934
4835.36,0.43635
4812.22,0.43375
4789.07,0.43277
4765.93,0.43137
4742.78,0.43121
4719.64,0.43269
4696.49,0.43443
4673.35,0.43540
4650.2,0.43729
4627.06,0.43693
4603.92,0.43736
4580.77,0.43547
4557.63,0.43549
4534.48,0.43202
4511.34,0.43233
4488.19,0.42837
4465.05,0.42452
4441.9,0.41761
4418.76,0.41159
4395.61,0.40819
4372.47,0.40995
4349.32,0.40967
4326.18,0.40656
4303.03,0.40321
4279.89,0.39830
4256.74,0.39540
4233.6,0.39203
4210.45,0.38963
4187.31,0.38592
4164.16,0.38329
4141.02,0.37715
4117.87,0.37018
4094.73,0.36065
4071.58,0.34933
4048.44,0.33778
4025.29,0.33024
4002.15,0.32903
3979,0.33059
3955.86,0.33113
3932.71,0.33171
3909.57,0.33250
3886.42,0.33181
3863.28,0.33139
3840.13,0.32950
3816.99,0.32470
3793.84,0.31795
3770.7,0.30749
3747.55,0.29462
3724.41,0.26877
3701.26,0.21713
3678.12,0.16672
3654.97,0.11940
3631.83,0.09446
3608.68,0.07698
3585.54,0.06665
3562.39,0.05929
3539.25,0.05400
3516.1,0.04927
3492.96,0.04583
3469.81,0.04395
3446.67,0.04245
3423.52,0.04140
3400.38,0.04076
3377.23,0.04137
3354.09,0.04211
3330.94,0.04372
3307.8,0.04619
3284.65,0.04693
3261.51,0.05129
3238.36,0.05534
3215.22,0.05924
3192.07,0.06435
3168.93,0.06827
3145.78,0.07335
3122.64,0.07813
3099.49,0.08459
3076.35,0.08888
3053.2,0.09358
3030.06,0.09626
3006.91,0.10043
2983.77,0.09657
2960.62,0.08362
2937.48,0.07809
2914.33,0.07603
2891.19,0.08010
2868.04,0.08627
2844.9,0.10008
2821.75,0.11647
2798.61,0.12873
2775.46,0.13496
2752.32,0.13930
2729.17,0.14304
2706.03,0.14984
2682.88,0.15829
2659.74,0.16435
2636.59,0.17033
2613.45,0.17656
2590.3,0.18097
2567.16,0.18284
2544.02,0.18420
2520.87,0.18539
2497.73,0.19058
2474.58,0.19571
2451.44,0.19831
2428.29,0.20158
2405.15,0.20298
2382,0.20350
2358.86,0.20358
2335.71,0.20266
2312.57,0.20126
2289.42,0.19787
2266.28,0.19273
2243.13,0.18790
2219.99,0.18773
2196.84,0.18987
2173.7,0.18593
2150.55,0.18048
2127.41,0.17813
2104.26,0.18026
2081.12,0.17955
2057.97,0.17491
2034.83,0.15889
2011.68,0.14745
1988.54,0.14114
1965.39,0.14445
1942.25,0.14805
1919.1,0.14843
1895.96,0.12530
1872.81,0.11610
1849.67,0.13458
1826.52,0.14165
1803.38,0.12558
1780.23,0.12217
1757.09,0.12638
1733.94,0.08013
1710.8,0.09191
1687.65,0.07890
1664.51,0.06590
1641.36,0.05807
1618.22,0.05592
1595.07,0.05751
1571.93,0.06072
1548.78,0.06237
1525.64,0.05748
1502.49,0.05218
1479.35,0.04509
1456.2,0.03877
1433.06,0.03628
1409.91,0.04066
1386.77,0.03932
1363.62,0.04073
1340.48,0.04448
1317.33,0.04616
1294.19,0.05713
1271.04,0.05997
1247.9,0.07619
1224.75,0.10532
1201.61,0.08888
1178.46,0.08144
1155.32,0.07144
1132.17,0.08584
1109.03,0.09743
1085.88,0.10246
1062.74,0.08912
1039.59,0.06705
1016.45,0.06582
993.304,0.06644
970.159,0.07332
947.014,0.07402
923.869,0.07359
900.724,0.06675
877.579,0.06895
854.434,0.06931
831.289,0.06295
808.144,0.05770
784.999,0.06871
761.854,0.06364
738.709,0.05803
715.565,0.04843
692.42,0.04360
669.275,0.04507
646.13,0.04401
622.985,0.03855
599.84,0.04065

File: Fiber_Cement_Board_IS_S_221012_R7.dpt
7497.03,0.51880
7473.89,0.50391
7450.74,0.51198
7427.6,0.51189
7404.45,0.51144
7381.31,0.51212
7358.16,0.50763
7335.02,0.50614
7311.87,0.50766
7288.73,0.50131
7265.58,0.50578
7242.44,0.50125
7219.29,0.49997
7196.15,0.50132
7173,0.49228
7149.86,0.50040
7126.71,0.49314
7103.57,0.49009
7080.42,0.49493
7057.28,0.48935
7034.13,0.48583
7010.99,0.48686
6987.84,0.48748
6964.7,0.48442
6941.55,0.48928
6918.41,0.47952
6895.26,0.48484
6872.12,0.48600
6848.97,0.48134
6825.83,0.48561
6802.68,0.48253
6779.54,0.48690
6756.39,0.48336
6733.25,0.48088
6710.1,0.48467
6686.96,0.48590
6663.82,0.48760
6640.67,0.49144
6617.53,0.48566
6594.38,0.48845
6571.24,0.49044
6548.09,0.48917
6524.95,0.49093
6501.8,0.48913
6478.66,0.48488
6455.51,0.48703
6432.37,0.49321
6409.22,0.48876
6386.08,0.48956
6362.93,0.49273
6339.79,0.48735
6316.64,0.48958
6293.5,0.49091
6270.35,0.48865
6247.21,0.49281
6224.06,0.49157
6200.92,0.49189
6177.77,0.48985
6154.63,0.48884
6131.48,0.49329
6108.34,0.49092
6085.19,0.49539
6062.05,0.49324
6038.9,0.49220
6015.76,0.49431
5992.61,0.49210
5969.47,0.49342
5946.32,0.49119
5923.18,0.49048
5900.03,0.49153
5876.89,0.49157
5853.74,0.49019
5830.6,0.48980
5807.45,0.48905
5784.31,0.48688
5761.16,0.48800
5738.02,0.48814
5714.87,0.48984
5691.73,0.48893
5668.58,0.48768
5645.44,0.48746
5622.29,0.48634
5599.15,0.48523
5576,0.48652
5552.86,0.48447
5529.71,0.48351
5506.57,0.48567
5483.42,0.48627
5460.28,0.48439
5437.13,0.48142
5413.99,0.48326
5390.84,0.48212
5367.7,0.48152
5344.55,0.47972
5321.41,0.47480
5298.26,0.46890
5275.12,0.45679
5251.97,0.44083
5228.83,0.42287
5205.68,0.41000
5182.54,0.40672
5159.39,0.41296
5136.25,0.42006
5113.1,0.42688
5089.96,0.43061
5066.81,0.43559
5043.67,0.43981
5020.52,0.44350
4997.38,0.44689
4974.23,0.44920
4951.09,0.44818
4927.94,0.44905
4904.8,0.44753
4881.65,0.44532
4858.51,0.44237
4835.36,0.43904
4812.22,0.43607
4789.07,0.43497
4765.93,0.43430
4742.78,0.43342
4719.64,0.43495
4696.49,0.43675
4673.35,0.43829
4650.2,0.43888
4627.06,0.43913
4603.92,0.43849
4580.77,0.43866
4557.63,0.43678
4534.48,0.43476
4511.34,0.43395
4488.19,0.43039
4465.05,0.42630
4441.9,0.42025
4418.76,0.41421
4395.61,0.40979
4372.47,0.41245
4349.32,0.41151
4326.18,0.40861
4303.03,0.40433
4279.89,0.39983
4256.74,0.39670
4233.6,0.39435
4210.45,0.39159
4187.31,0.38849
4164.16,0.38489
4141.02,0.37895
4117.87,0.37208
4094.73,0.36154
4071.58,0.35028
4048.44,0.33895
4025.29,0.33141
4002.15,0.33134
3979,0.33154
3955.86,0.33251
3932.71,0.33283
3909.57,0.33343
3886.42,0.33289
3863.28,0.33226
3840.13,0.33136
3816.99,0.32656
3793.84,0.31871
3770.7,0.30943
3747.55,0.29485
3724.41,0.27096
3701.26,0.21762
3678.12,0.16622
3654.97,0.12010
3631.83,0.09391
3608.68,0.07709
3585.54,0.06698
3562.39,0.05938
3539.25,0.05387
3516.1,0.04987
3492.96,0.04603
3469.81,0.04321
3446.67,0.04259
3423.52,0.04160
3400.38,0.04072
3377.23,0.04101
3354.09,0.04191
3330.94,0.04381
3307.8,0.04579
3284.65,0.04834
3261.51,0.05140
3238.36,0.05541
3215.22,0.05922
3192.07,0.06390
3168.93,0.06826
3145.78,0.07417
3122.64,0.07884
3099.49,0.08460
3076.35,0.08967
3053.2,0.09471
3030.06,0.09640
3006.91,0.10117
2983.77,0.09736
2960.62,0.08372
2937.48,0.07887
2914.33,0.07615
2891.19,0.08064
2868.04,0.08638
2844.9,0.10017
2821.75,0.11746
2798.61,0.12920
2775.46,0.13533
2752.32,0.14002
2729.17,0.14392
2706.03,0.15098
2682.88,0.15853
2659.74,0.16490
2636.59,0.17144
2613.45,0.17709
2590.3,0.18134
2567.16,0.18404
2544.02,0.18475
2520.87,0.18660
2497.73,0.19164
2474.58,0.19664
2451.44,0.19929
2428.29,0.20217
2405.15,0.20402
2382,0.20426
2358.86,0.20429
2335.71,0.20334
2312.57,0.20198
2289.42,0.19878
2266.28,0.19374
2243.13,0.18841
2219.99,0.18853
2196.84,0.19121
2173.7,0.18680
2150.55,0.18104
2127.41,0.17911
2104.26,0.18117
2081.12,0.18025
2057.97,0.17555
2034.83,0.15930
2011.68,0.14820
1988.54,0.14184
1965.39,0.14523
1942.25,0.14842
1919.1,0.14907
1895.96,0.12574
1872.81,0.11668
1849.67,0.13533
1826.52,0.14183
1803.38,0.12618
1780.23,0.12285
1757.09,0.12732
1733.94,0.08002
1710.8,0.09219
1687.65,0.07920
1664.51,0.06612
1641.36,0.05819
1618.22,0.05648
1595.07,0.05749
1571.93,0.06061
1548.78,0.06264
1525.64,0.05826
1502.49,0.05281
1479.35,0.04510
1456.2,0.03889
1433.06,0.03593
1409.91,0.04057
1386.77,0.03905
1363.62,0.04095
1340.48,0.04436
1317.33,0.04613
1294.19,0.05727
1271.04,0.06073
1247.9,0.07635
1224.75,0.10540
1201.61,0.08928
1178.46,0.08193
1155.32,0.07179
1132.17,0.08639
1109.03,0.09722
1085.88,0.10337
1062.74,0.08925
1039.59,0.06797
1016.45,0.06579
993.304,0.06690
970.159,0.07290
947.014,0.07417
923.869,0.07365
900.724,0.06596
877.579,0.06953
854.434,0.06909
831.289,0.06262
808.144,0.05746
784.999,0.06839
761.854,0.06286
738.709,0.05842
715.565,0.04819
692.42,0.04464
669.275,0.04462
646.13,0.04290
622.985,0.04122
599.84,0.04425

File: Fiber_Cement_Board_IS_S_221012_R8.dpt
7497.03,0.51009
7473.89,0.51057
7450.74,0.51016
7427.6,0.49896
7404.45,0.50551
7381.31,0.50546
7358.16,0.49979
7335.02,0.50675
7311.87,0.51364
7288.73,0.49767
7265.58,0.50421
7242.44,0.49744
7219.29,0.50819
7196.15,0.50192
7173,0.50408
7149.86,0.49510
7126.71,0.49150
7103.57,0.49066
7080.42,0.49420
7057.28,0.48664
7034.13,0.47994
7010.99,0.48645
6987.84,0.47995
6964.7,0.48341
6941.55,0.48377
6918.41,0.48307
6895.26,0.48501
6872.12,0.48327
6848.97,0.48199
6825.83,0.48007
6802.68,0.48322
6779.54,0.48658
6756.39,0.48184
6733.25,0.48820
6710.1,0.48861
6686.96,0.48268
6663.82,0.48696
6640.67,0.48791
6617.53,0.48866
6594.38,0.48762
6571.24,0.48931
6548.09,0.49035
6524.95,0.48427
6501.8,0.48466
6478.66,0.48732
6455.51,0.48846
6432.37,0.49118
6409.22,0.48694
6386.08,0.48784
6362.93,0.49024
6339.79,0.48842
6316.64,0.49035
6293.5,0.48706
6270.35,0.48734
6247.21,0.49035
6224.06,0.48970
6200.92,0.48972
6177.77,0.49168
6154.63,0.49089
6131.48,0.49194
6108.34,0.49291
6085.19,0.48972
6062.05,0.49267
6038.9,0.49231
6015.76,0.49101
5992.61,0.49024
5969.47,0.48778
5946.32,0.48890
5923.18,0.48847
5900.03,0.48985
5876.89,0.48996
5853.74,0.49075
5830.6,0.48882
5807.45,0.48817
5784.31,0.48955
5761.16,0.48637
5738.02,0.48652
5714.87,0.48642
5691.73,0.48663
5668.58,0.48417
5645.44,0.48404
5622.29,0.48417
5599.15,0.48493
5576,0.48418
5552.86,0.48169
5529.71,0.48314
5506.57,0.47988
5483.42,0.48350
5460.28,0.48009
5437.13,0.48055
5413.99,0.48081
5390.84,0.48115
5367.7,0.47923
5344.55,0.47636
5321.41,0.47412
5298.26,0.46677
5275.12,0.45703
5251.97,0.43879
5228.83,0.42191
5205.68,0.40754
5182.54,0.40603
5159.39,0.41214
5136.25,0.41810
5113.1,0.42438
5089.96,0.43061
5066.81,0.43519
5043.67,0.43878
5020.52,0.44196
4997.38,0.44458
4974.23,0.44616
4951.09,0.44713
4927.94,0.44708
4904.8,0.44531
4881.65,0.44205
4858.51,0.44081
4835.36,0.43644
4812.22,0.43490
4789.07,0.43242
4765.93,0.43111
4742.78,0.43049
4719.64,0.43265
4696.49,0.43498
4673.35,0.43567
4650.2,0.43685
4627.06,0.43747
4603.92,0.43709
4580.77,0.43671
4557.63,0.43514
4534.48,0.43297
4511.34,0.43113
4488.19,0.42949
4465.05,0.42492
4441.9,0.41823
4418.76,0.41252
4395.61,0.40851
4372.47,0.41024
4349.32,0.40899
4326.18,0.40612
4303.03,0.40312
4279.89,0.39801
4256.74,0.39533
4233.6,0.39234
4210.45,0.38962
4187.31,0.38746
4164.16,0.38315
4141.02,0.37809
4117.87,0.37031
4094.73,0.36036
4071.58,0.34995
4048.44,0.33793
4025.29,0.33013
4002.15,0.33011
3979,0.33008
3955.86,0.33157
3932.71,0.33250
3909.57,0.33293
3886.42,0.33273
3863.28,0.33133
3840.13,0.33012
3816.99,0.32584
3793.84,0.31800
3770.7,0.30890
3747.55,0.29337
3724.41,0.26954
3701.26,0.21685
3678.12,0.16634
3654.97,0.11945
3631.83,0.09429
3608.68,0.07777
3585.54,0.06705
3562.39,0.05977
3539.25,0.05412
3516.1,0.04966
3492.96,0.04619
3469.81,0.04315
3446.67,0.04234
3423.52,0.04098
3400.38,0.04093
3377.23,0.04148
3354.09,0.04190
3330.94,0.04456
3307.8,0.04579
3284.65,0.04714
3261.51,0.05133
3238.36,0.05539
3215.22,0.05920
3192.07,0.06380
3168.93,0.06849
3145.78,0.07365
3122.64,0.07959
3099.49,0.08418
3076.35,0.08949
3053.2,0.09462
3030.06,0.09695
3006.91,0.10082
2983.77,0.09754
2960.62,0.08427
2937.48,0.07863
2914.33,0.07605
2891.19,0.07990
2868.04,0.08632
2844.9,0.09990
2821.75,0.11738
2798.61,0.12866
2775.46,0.13469
2752.32,0.13960
2729.17,0.14328
2706.03,0.15018
2682.88,0.15783
2659.74,0.16478
2636.59,0.17101
2613.45,0.17682
2590.3,0.18093
2567.16,0.18303
2544.02,0.18417
2520.87,0.18578
2497.73,0.19112
2474.58,0.19599
2451.44,0.19878
2428.29,0.20205
2405.15,0.20371
2382,0.20350
2358.86,0.20336
2335.71,0.20219
2312.57,0.20123
2289.42,0.19829
2266.28,0.19303
2243.13,0.18783
2219.99,0.18803
2196.84,0.19043
2173.7,0.18605
2150.55,0.18033
2127.41,0.17845
2104.26,0.18058
2081.12,0.17996
2057.97,0.17521
2034.83,0.15905
2011.68,0.14745
1988.54,0.14142
1965.39,0.14440
1942.25,0.14805
1919.1,0.14842
1895.96,0.12572
1872.81,0.11622
1849.67,0.13457
1826.52,0.14150
1803.38,0.12561
1780.23,0.12227
1757.09,0.12690
1733.94,0.08007
1710.8,0.09195
1687.65,0.07897
1664.51,0.06644
1641.36,0.05817
1618.22,0.05634
1595.07,0.05780
1571.93,0.06114
1548.78,0.06188
1525.64,0.05746
1502.49,0.05241
1479.35,0.04498
1456.2,0.03879
1433.06,0.03620
1409.91,0.04034
1386.77,0.03941
1363.62,0.04080
1340.48,0.04451
1317.33,0.04648
1294.19,0.05749
1271.04,0.06019
1247.9,0.07649
1224.75,0.10536
1201.61,0.08903
1178.46,0.08169
1155.32,0.07226
1132.17,0.08668
1109.03,0.09726
1085.88,0.10249
1062.74,0.08926
1039.59,0.06712
1016.45,0.06605
993.304,0.06687
970.159,0.07291
947.014,0.07392
923.869,0.07367
900.724,0.06627
877.579,0.06934
854.434,0.07044
831.289,0.06364
808.144,0.05697
784.999,0.06914
761.854,0.06351
738.709,0.05840
715.565,0.04916
692.42,0.04433
669.275,0.04506
646.13,0.04492
622.985,0.04281
599.84,0.04246

File: Fiber_Cement_Board_IS_T_221012_R2.dpt
7497.03,0.03526
7473.89,0.02075
7450.74,0.01738
7427.6,0.01994
7404.45,0.02349
7381.31,0.02026
7358.16,0.02948
7335.02,0.01635
7311.87,0.02909
7288.73,0.02591
7265.58,0.01917
7242.44,0.02366
7219.29,0.02423
7196.15,0.02264
7173,0.02400
7149.86,0.02269
7126.71,0.02448
7103.57,0.02765
7080.42,0.02441
7057.28,0.01971
7034.13,0.02781
7010.99,0.02284
6987.84,0.02810
6964.7,0.01961
6941.55,0.02609
6918.41,0.02723
6895.26,0.02014
6872.12,0.02194
6848.97,0.02326
6825.83,0.02158
6802.68,0.02273
6779.54,0.02233
6756.39,0.02181
6733.25,0.02270
6710.1,0.01877
6686.96,0.02470
6663.82,0.02202
6640.67,0.02186
6617.53,0.02739
6594.38,0.02203
6571.24,0.02582
6548.09,0.01869
6524.95,0.01967
6501.8,0.02293
6478.66,0.01966
6455.51,0.02238
6432.37,0.02103
6409.22,0.02316
6386.08,0.02330
6362.93,0.02222
6339.79,0.01903
6316.64,0.02396
6293.5,0.02213
6270.35,0.01957
6247.21,0.02015
6224.06,0.02029
6200.92,0.01840
6177.77,0.02190
6154.63,0.02302
6131.48,0.02024
6108.34,0.02135
6085.19,0.02316
6062.05,0.01979
6038.9,0.02132
6015.76,0.02040
5992.61,0.02068
5969.47,0.02144
5946.32,0.02061
5923.18,0.02273
5900.03,0.02275
5876.89,0.01960
5853.74,0.02146
5830.6,0.01943
5807.45,0.02122
5784.31,0.02026
5761.16,0.01995
5738.02,0.01939
5714.87,0.02172
5691.73,0.02284
5668.58,0.01973
5645.44,0.02026
5622.29,0.02201
5599.15,0.02062
5576,0.02160
5552.86,0.02159
5529.71,0.02100
5506.57,0.02062
5483.42,0.01956
5460.28,0.02137
5437.13,0.02062
5413.99,0.02041
5390.84,0.02026
5367.7,0.02097
5344.55,0.02158
5321.41,0.02139
5298.26,0.02108
5275.12,0.01955
5251.97,0.02153
5228.83,0.02153
5205.68,0.02004
5182.54,0.02212
5159.39,0.02161
5136.25,0.02128
5113.1,0.02096
5089.96,0.02103
5066.81,0.02119
5043.67,0.02172
5020.52,0.02139
4997.38,0.02108
4974.23,0.02180
4951.09,0.02089
4927.94,0.02032
4904.8,0.02126
4881.65,0.02161
4858.51,0.02131
4835.36,0.02132
4812.22,0.02118
4789.07,0.02114
4765.93,0.02055
4742.78,0.02147
4719.64,0.02117
4696.49,0.02185
4673.35,0.02059
4650.2,0.02107
4627.06,0.02134
4603.92,0.02207
4580.77,0.02177
4557.63,0.02132
4534.48,0.02135
4511.34,0.02186
4488.19,0.02009
4465.05,0.02047
4441.9,0.02138
4418.76,0.02092
4395.61,0.02257
4372.47,0.02208
4349.32,0.02097
4326.18,0.02083
4303.03,0.02102
4279.89,0.02201
4256.74,0.02116
4233.6,0.02167
4210.45,0.02141
4187.31,0.02107
4164.16,0.02148
4141.02,0.02169
4117.87,0.02128
4094.73,0.02200
4071.58,0.02147
4048.44,0.02141
4025.29,0.02048
4002.15,0.02161
3979,0.02160
3955.86,0.02166
3932.71,0.02212
3909.57,0.02169
3886.42,0.02240
3863.28,0.02180
3840.13,0.02255
3816.99,0.02189
3793.84,0.02145
3770.7,0.02176
3747.55,0.02208
3724.41,0.02158
3701.26,0.02139
3678.12,0.02101
3654.97,0.02172
3631.83,0.02075
3608.68,0.02104
3585.54,0.02047
3562.39,0.02011
3539.25,0.02054
3516.1,0.02060
3492.96,0.01921
3469.81,0.02005
3446.67,0.02011
3423.52,0.02007
3400.38,0.02037
3377.23,0.01949
3354.09,0.01980
3330.94,0.01882
3307.8,0.02075
3284.65,0.01999
3261.51,0.01898
3238.36,0.02006
3215.22,0.01946
3192.07,0.02028
3168.93,0.02036
3145.78,0.01979
3122.64,0.01993
3099.49,0.02023
3076.35,0.01988
3053.2,0.02012
3030.06,0.01984
3006.91,0.02028
2983.77,0.01948
2960.62,0.01904
2937.48,0.01949
2914.33,0.01949
2891.19,0.01968
2868.04,0.02022
2844.9,0.01991
2821.75,0.02053
2798.61,0.02023
2775.46,0.02054
2752.32,0.02013
2729.17,0.02075
2706.03,0.02090
2682.88,0.02053
2659.74,0.02100
2636.59,0.02013
2613.45,0.02086
2590.3,0.02061
2567.16,0.02063
2544.02,0.02042
2520.87,0.02036
2497.73,0.02081
2474.58,0.02049
2451.44,0.02041
2428.29,0.02006
2405.15,0.02054
2382,0.02040
2358.86,0.02068
2335.71,0.02068
2312.57,0.02046
2289.42,0.02014
2266.28,0.02035
2243.13,0.02061
2219.99,0.02082
2196.84,0.02050
2173.7,0.02009
2150.55,0.02043
2127.41,0.02026
2104.26,0.02021
2081.12,0.02042
2057.97,0.02030
2034.83,0.02024
2011.68,0.02036
1988.54,0.02027
1965.39,0.02045
1942.25,0.02014
1919.1,0.02008
1895.96,0.02062
1872.81,0.01999
1849.67,0.01978
1826.52,0.01978
1803.38,0.01943
1780.23,0.01845
1757.09,0.01778
1733.94,0.01950
1710.8,0.02032
1687.65,0.01886
1664.51,0.01804
1641.36,0.01797
1618.22,0.01859
1595.07,0.01837
1571.93,0.01774
1548.78,0.01749
1525.64,0.01798
1502.49,0.01837
1479.35,0.01821
1456.2,0.01850
1433.06,0.01828
1409.91,0.01807
1386.77,0.01758
1363.62,0.01794
1340.48,0.01742
1317.33,0.01665
1294.19,0.01735
1271.04,0.01903
1247.9,0.01939
1224.75,0.01900
1201.61,0.01811
1178.46,0.01767
1155.32,0.01710
1132.17,0.01805
1109.03,0.01854
1085.88,0.01650
1062.74,0.01967
1039.59,0.01896
1016.45,0.01947
993.304,0.02060
970.159,0.01964
947.014,0.01915
923.869,0.01889
900.724,0.01799
877.579,0.01845
854.434,0.01798
831.289,0.01821
808.144,0.01869
784.999,0.01795
761.854,0.01808
738.709,0.01752
715.565,0.01738
692.42,0.01802
669.275,0.01583
646.13,0.01682
622.985,0.01562
599.84,0.01306