Folder: fsri_materials_database/01_Data/Masonite_Board/STA/N2/10K_min

Note: README.md
# Materials and Products Database
### Repository of materials and products properties and fire test data to improve fire modeling and fire investigation.

This project was supported in part by Award No. 2019-DU-BX-0018, awarded by the National Institute of Justice, Office of Justice Programs, U.S. Department of Justice. The opinions, findings, and conclusions or recommendations expressed in this publication / program / exhibition are those of the author(s) and do not necessarily reflect those of the Department of Justice.

***
***

__Cite this database:__ "McKinnon, M., Weinschenk, C., Dow, N., DiDomizio, M., and Madrzykowski, D. Materials and Products Database (Version 1.0.0), Fire Safety Research Institute, UL Research Institutes. Columbia, MD 21045, 2023."

__Cite the Technical Reference Guide:__ "McKinnon, M., Weinschenk, C., and Madrzykowski, D. Materials and Products Database - Technical Reference Guide, Fire Safety Research Institute, UL Research Institutes. Columbia, MD 21045, 2023."

__Cite the User Guide:__ "McKinnon, M., and Weinschenk, C. Materials and Products Database - User Guide, Fire Safety Research Institute, UL Research Institutes. Columbia, MD 21045, 2023."

***
***

## Database Structure

## 01_Data/
Raw data generated from each apparatus are included here in plain-text format. The data is organized first by material, next by the short name of test apparatus used, and where applicable additional filtering by test settings.

### Test Apparatus and Data File Structure
- __Cone Calorimeter__ (Cone)
    + Data file structure includes the material, the short name for the apparatus, heat flux setting and scan/scalar, date of test, and replicate number. Scan is for the raw output data and scalar is for the initial conditions and high-level test parameters. 
        * Example: __MDF_Cone_HF25scalar_210323_R1__ stands for the first replicate of scalar data generated from a medium density fiber board test in cone calorimeter exposed to 25 kW/m<sup>2</sup> on March 23, 2021.
    + A _Cone_Notes.csv_ is generated for each material from the __plot_Cone_data.py__ script. For materials whose experiments deviated from typical behavior relevant pictures are included in the respective material directory.
- __Fourier Transform Infrared Spectrometer__ (FTIR)
    + The FTIR directory contains subdirectories for the Attenuated Total Reflectance method (ATR) and the Integrating Sphere (IS)
    + Data file structure for the ATR experiment files includes the material, the abbreviated name for the apparatus, date of test, and replicate number. 
        * Example: __MDF_ATR_210323_R5__ stands for the fifth replicate of data collected with the ATR accessory conducted on June 8, 2021.
    + Data file structure for the IS experiment files includes the material, the abbreviated name for the apparatus, the measurand, whether the test is a sample measurement or standard reference, date of test, and replicate number.
        * Example: __OSB_IS_REFLECT_MEAS_2

File: Masonite_Board_STA_N2_10KData_222306_R2.csv
##Temp./Â°C,Time/min,DSC(subtr.)/mW,Mass loss(subtr.)/mg,Sensit./(uV/mW)
49.661,10.00917,0.03707099,-0.02097,1.07019
52.261,11.224,0.44672,-0.02177482,1.06947
54.861,11.62122,0.65985,-0.02134297,1.06875
57.461,11.95238,0.77947,-0.02020801,1.06802
60.061,12.25736,0.87757,-0.02109679,1.06728
62.661,12.54946,0.95365,-0.02305726,1.06654
65.261,12.83549,1.00202,-0.02305808,1.06578
67.861,13.11597,1.04442,-0.02437804,1.06503
70.461,13.3947,1.07921,-0.02569479,1.06426
73.061,13.6698,1.12057,-0.02574421,1.06349
75.661,13.9422,1.15569,-0.02772805,1.06271
78.261,14.2127,1.17713,-0.02901661,1.06192
80.861,14.4801,1.18796,-0.02766999,1.06113
83.461,14.74675,1.20274,-0.03019669,1.06032
86.061,15.01114,1.20497,-0.0302998,1.05952
88.661,15.27297,1.19791,-0.032929,1.0587
91.261,15.5331,1.18786,-0.03293983,1.05788
93.861,15.79277,1.17987,-0.03431016,1.05705
96.461,16.04928,1.16871,-0.03292994,1.05621
99.061,16.3076,1.156,-0.03424959,1.05537
101.661,16.56364,1.16726,-0.03420893,1.05452
104.261,16.81899,1.17734,-0.0355706,1.05366
106.861,17.07389,1.1763,-0.03562029,1.05279
109.461,17.3281,1.17873,-0.03558003,1.05192
112.061,17.582,1.18002,-0.03556642,1.05104
114.661,17.83605,1.17598,-0.03520515,1.05015
117.261,18.08963,1.16695,-0.03820953,1.04926
119.861,18.34244,1.1733,-0.03721956,1.04835
122.461,18.5957,1.17846,-0.03689032,1.04744
125.061,18.8476,1.18093,-0.03722013,1.04653
127.661,19.09989,1.17631,-0.03689071,1.0456
130.261,19.35153,1.18795,-0.03686632,1.04467
132.861,19.60304,1.18772,-0.03816305,1.04373
135.461,19.85393,1.19752,-0.03821003,1.04278
138.061,20.1049,1.1994,-0.03688998,1.04183
140.661,20.35547,1.20869,-0.03689,1.04087
143.261,20.6054,1.21935,-0.03680837,1.0399
145.861,20.85592,1.22616,-0.03820121,1.03892
148.461,21.10601,1.24145,-0.03819237,1.03794
151.061,21.3553,1.25111,-0.03853224,1.03695
153.661,21.60387,1.26521,-0.03821,1.03595
156.261,21.85373,1.26797,-0.03820606,1.03494
158.861,22.1031,1.28016,-0.03820089,1.03393
161.461,22.3518,1.29961,-0.03852936,1.03291
164.061,22.6001,1.30469,-0.03919023,1.03188
166.661,22.84819,1.32112,-0.03861461,1.03084
169.261,23.09763,1.3352,-0.04015432,1.0298
171.861,23.34532,1.35344,-0.03919878,1.02874
174.461,23.5943,1.36244,-0.04084008,1.02768
177.061,23.8422,1.3675,-0.04116999,1.02662
179.661,24.09019,1.37321,-0.04187341,1.02554
182.261,24.33805,1.38502,-0.04181091,1.02446
184.861,24.5855,1.39797,-0.04348,1.02337
187.461,24.83318,1.40477,-0.04348135,1.02227
190.061,25.08091,1.42867,-0.04381209,1.02116
192.661,25.32795,1.41938,-0.04611,1.02005
195.261,25.57552,1.42578,-0.04743,1.01893
197.861,25.82374,1.43564,-0.04743,1.0178
200.461,26.07091,1.44632,-0.05006123,1.01666
203.061,26.3187,1.46357,-0.05006,1.01552
205.661,26.566,1.47909,-0.0510476,1.01436
208.261,26.814,1.49286,-0.05402017,1.0132
210.861,27.06178,1.50906,-0.05500099,1.01203
213.461,27.3084,1.52919,-0.0569931,1.01086
216.061,27.5569,1.54057,-0.05763,1.00967
218.661,27.8042,1.56361,-0.06027,1.00848
221.261,28.05155,1.57216,-0.06258001,1.00728
223.861,28.2986,1.5945,-0.06520999,1.00607
226.461,28.5463,1.60267,-0.06653176,1.00485
229.061,28.7933,1.62474,-0.06983618,1.00363
231.661,29.04134,1.63466,-0.0721081,1.0024
234.261,29.2895,1.64892,-0.07609005,1.00116
236.861,29.5371,1.65796,-0.08052151,0.99991
239.461,29.78544,1.66634,-0.08397209,0.99865
242.061,30.03385,1.67956,-0.08917397,0.99739
244.661,30.28179,1.69603,-0.0942034,0.99612
247.261,30.5301,1.70643,-0.10078,0.99484
249.861,30.7781,1.71544,-0.10605,0.99355
252.461,31.02621,1.73285,-0.11281,0.99225
255.061,31.27412,1.73646,-0.12118,0.99095
257.661,31.52229,1.75151,-0.13101,0.98963
260.261,31.7699,1.75862,-0.14179,0.98831
262.861,32.0173,1.77508,-0.15411,0.98698
265.461,32.26603,1.78225,-0.16756,0.98565
268.061,32.51381,1.78039,-0.18307,0.9843
270.661,32.76146,1.78179,-0.20003,0.98295
273.261,33.00992,1.78597,-0.21699,0.98159
275.861,33.25819,1.78961,-0.2372,0.98022
278.461,33.50639,1.79333,-0.25836,0.97884
281.061,33.75495,1.77388,-0.28481,0.97745
283.661,34.0037,1.76472,-0.31109,0.97606
286.261,34.2524,1.75348,-0.33913,0.97465
288.861,34.5011,1.74634,-0.36977,0.97324
291.461,34.7505,1.73374,-0.3997,0.97182
294.061,34.99933,1.70771,-0.43006,0.9704
296.661,35.2484,1.69553,-0.46429,0.96896
299.261,35.49736,1.68485,-0.49772,0.96752
301.861,35.74665,1.67667,-0.52964,0.96607
304.461,35.99589,1.67637,-0.56324,0.96461
307.061,36.24542,1.67888,-0.59605,0.96314
309.661,36.49443,1.69259,-0.62931,0.96166
312.261,36.74498,1.70979,-0.66387,0.96018
314.861,36.99472,1.73929,-0.69842,0.95868
317.461,37.24425,1.78856,-0.73392,0.95718
320.061,37.49429,1.82725,-0.76956,0.95567
322.661,37.744,1.89682,-0.80884,0.95415
325.261,37.9936,1.96975,-0.84891,0.95263
327.861,38.24389,2.063,-0.89152,0.95109
330.461,38.49418,2.16028,-0.93772,0.94955
333.061,38.7451,2.28438,-0.98769,0.948
335.661,38.99641,2.43691,-1.04241,0.94644
338.261,39.2474,2.60961,-1.0993,0.94487
340.861,39.49873,2.82867,-1.16435,0.9433
343.461,39.75008,3.06208,-1.23583,0.94171
346.061,40.0022,3.33817,-1.31338,0.94012
348.661,40.25399,3.64299,-1.40119,0.93852
351.261,40.50591,3.963,-1.49871,0.93691
353.861,40.75853,4.29584,-1.60586,0.93529
356.461,41.01024,4.59933,-1.72137,0.93367
359.061,41.26332,4.88682,-1.8475,0.93204
361.661,41.51562,5.08004,-1.98273,0.93039
364.261,41.76854,5.15233,-2.12182,0.92874
366.861,42.02094,5.05355,-2.26323,0.92709
369.461,42.2727,4.74511,-2.39684,0.92542
372.061,42.52497,4.20149,-2.52107,0.92374
374.661,42.7761,3.4702,-2.62735,0.92206
377.261,43.02709,2.6205,-2.70971,0.92037
379.861,43.27782,1.78818,-2.77107,0.91867
382.461,43.52871,1.09173,-2.80965,0.91696
385.061,43.7789,0.65584,-2.83383,0.91525
387.661,44.0304,0.40377,-2.84956,0.91352
390.261,44.28235,0.28825,-2.86035,0.91179
392.861,44.53447,0.2378,-2.86861,0.91005
395.461,44.78603,0.19668,-2.87686,0.9083
398.061,45.0387,0.15581,-2.88408,0.90655
400.661,45.2922,0.1102,-2.89205,0.90478
403.261,45.545,0.06522921,-2.89984,0.90301
405.861,45.79864,0.03699286,-2.90662,0.90123
408.461,46.05175,0.007524177,-2.91495,0.89944
411.061,46.30611,-0.03605928,-2.9229,0.89765
413.661,46.55874,-0.0570845,-2.93057,0.89584
416.261,46.81142,-0.09101615,-2.93749,0.89403
418.861,47.0662,-0.10629,-2.94415,0.89221
421.461,47.32079,-0.12156,-2.95248,0.89038
424.061,47.57463,-0.11915,-2.96023,0.88854
426.661,47.82913,-0.10669,-2.96777,0.8867
429.261,48.0841,-0.10138,-2.97591,0.88485
431.861,48.33885,-0.0795003,-2.9826,0.88299
434.461,48.59387,-0.05014385,-2.99023,0.88112
437.061,48.8491,-0.02257284,-2.99664,0.87924
439.661,49.10433,0.00181973,-3.00257,0.87736
442.261,49.35934,0.03739068,-3.00906,0.87547
444.861,49.61518,0.0742341,-3.0151,0.87357
447.461,49.87068,0.10718,-3.02151,0.87166
450.061,50.1255,0.14714,-3.02771,0.86975
452.661,50.381,0.1721,-3.03182,0.86782
455.261,50.63673,0.19763,-3.03595,0.86589
457.861,50.89244,0.21677,-3.04122,0.86396
460.461,51.14825,0.2391,-3.04608,0.86201
463.061,51.4046,0.24896,-3.05002,0.86006
465.661,51.66041,0.28446,-3.05404,0.8581
468.261,51.91612,0.33239,-3.05939,0.85613
470.861,52.17261,0.34995,-3.06197,0.85415
473.461,52.42906,0.3456,-3.06592,0.85217
476.061,52.68642,0.3408,-3.06861,0.85018
478.661,52.94333,0.33892,-3.07314,0.84818
481.261,53.2,0.34665,-3.07589,0.84617
483.861,53.4566,0.35848,-3.07954,0.84416
486.461,53.7133,0.37073,-3.08249,0.84214
489.061,53.97003,0.37318,-3.08555,0.84011
491.661,54.22673,0.3679,-3.08777,0.83808
494.261,54.4836,0.36894,-3.09305,0.83604
496.861,54.74195,0.34245,-3.0947,0.83399
499.461,54.9999,0.30933,-3.09798,0.83193
502.061,55.25781,0.29305,-3.10193,0.82987
504.661,55.51616,0.27836,-3.10325,0.8278
507.261,55.77417,0.27227,-3.1085,0.82572
509.861,56.03196,0.27362,-3.10983,0.82363
512.461,56.28954,0.25508,-3.11148,0.82154
515.061,56.547,0.25549,-3.11477,0.81944
517.661,56.80562,0.23907,-3.11672,0.81734
520.261,57.06375,0.24497,-3.11895,0.81522
522.861,57.322,0.23326,-3.12268,0.8131
525.461,57.58019,0.24126,-3.12531,0.81098
528.061,57.838,0.23905,-3.1273,0.80884
530.661,58.0974,0.2392,-3.13019,0.8067
533.261,58.3557,0.23927,-3.1319,0.80456
535.861,58.61481,0.22746,-3.13558,0.8024
538.461,58.8734,0.22862,-3.13849,0.80024
541.061,59.1323,0.21589,-3.13917,0.79808
543.661,59.3905,0.21452,-3.14145,0.79591
546.261,59.6487,0.21339,-3.14409,0.79373
548.861,59.90764,0.21401,-3.14708,0.79154
551.461,60.16575,0.20821,-3.14875,0.78935
554.061,60.4245,0.20579,-3.15264,0.78715
556.661,60.68284,0.20867,-3.15295,0.78495
559.261,60.9428,0.19787,-3.15528,0.78274
561.861,61.2024,0.19095,-3.15792,0.78052
564.461,61.4619,0.17865,-3.15956,0.77829
567.061,61.72145,0.1798,-3.16219,0.77607
569.661,61.9811,0.17396,-3.1645,0.77383
572.261,62.2404,0.17745,-3.16681,0.77159
574.861,62.5003,0.16433,-3.16813,0.76934
577.461,62.76024,0.16367,-3.17077,0.76709
580.061,63.01981,0.15478,-3.17235,0.76483
582.661,63.27965,0.15217,-3.17538,0.76257
585.261,63.539,0.15862,-3.17538,0.7603
587.861,63.79843,0.156,-3.17802,0.75802
590.461,64.05847,0.17086,-3.17999,0.75574
593.061,64.31818,0.18039,-3.18196,0.75345
595.661,64.57794,0.16781,-3.18295,0.75116
598.261,64.83795,0.17114,-3.1846,0.74886
600.861,65.09833,0.16872,-3.18782,0.74656
603.461,65.35857,0.16159,-3.18822,0.74425
606.061,65.61909,0.16863,-3.19086,0.74194
608.661,65.87943,0.16703,-3.19217,0.73962
611.261,66.1391,0.15728,-3.19448,0.73729
613.861,66.39936,0.16081,-3.19613,0.73496
616.461,66.65897,0.1655,-3.19678,0.73263
619.061,66.91942,0.15678,-3.19876,0.73029
621.661,67.17899,0.15716,-3.19941,0.72794
624.261,67.43904,0.17882,-3.20139,0.72559
626.861,67.69991,0.1752,-3.20271,0.72324
629.461,67.96088,0.1627,-3.20522,0.72088
632.061,68.22166,0.15825,-3.20667,0.71852
634.661,68.48225,0.15072,-3.2073,0.71615
637.261,68.74252,0.15538,-3.208,0.71378
639.861,69.00347,0.14843,-3.20968,0.7114
642.461,69.26462,0.14899,-3.21055,0.70902
645.061,69.52553,0.15675,-3.21163,0.70663
647.661,69.78668,0.14681,-3.21366,0.70424
649.761,69.99778,0.1439,-3.21423,0.70231

File: Masonite_Board_STA_N2_10KData_222706_R3.csv
##Temp./Â°C,Time/min,DSC(subtr.)/mW,Mass loss(subtr.)/mg,Sensit./(uV/mW)
49.731,10.01,0.0306553,-0.04074,1.07017
52.331,11.22649,0.45043,-0.04402462,1.06945
54.931,11.6227,0.6631,-0.04276781,1.06873
57.531,11.955,0.79499,-0.04311982,1.068
60.131,12.258,0.89181,-0.04440008,1.06726
62.731,12.55006,0.95143,-0.04765416,1.06652
65.331,12.83505,1.00554,-0.04679843,1.06576
67.931,13.11686,1.0449,-0.04765861,1.065
70.531,13.3951,1.08118,-0.05029456,1.06424
73.131,13.6703,1.12284,-0.05162653,1.06347
75.731,13.9436,1.1519,-0.05226889,1.06269
78.331,14.2149,1.17201,-0.05358027,1.0619
80.931,14.48276,1.1895,-0.05357995,1.0611
83.531,14.7492,1.20721,-0.05651125,1.0603
86.131,15.01234,1.2132,-0.05852301,1.05949
88.731,15.275,1.20617,-0.05851907,1.05868
91.331,15.53485,1.20057,-0.0588517,1.05786
93.931,15.7928,1.19349,-0.06153983,1.05703
96.531,16.05,1.18755,-0.06214002,1.05619
99.131,16.30685,1.17855,-0.06074763,1.05534
101.731,16.56286,1.19538,-0.06303023,1.05449
104.331,16.81829,1.20106,-0.06566736,1.05363
106.931,17.07262,1.2016,-0.06537834,1.05277
109.531,17.32674,1.20019,-0.06598909,1.05189
112.131,17.58044,1.19273,-0.06466988,1.05101
114.731,17.8343,1.19717,-0.06565784,1.05013
117.331,18.0872,1.20411,-0.06731386,1.04923
119.931,18.34061,1.20737,-0.06599,1.04833
122.531,18.5931,1.20781,-0.06638402,1.04742
125.131,18.8462,1.21221,-0.0673,1.0465
127.731,19.09672,1.21168,-0.0679699,1.04558
130.331,19.34887,1.22262,-0.06731751,1.04464
132.931,19.6006,1.229,-0.06861748,1.04371
135.531,19.8514,1.24767,-0.06861991,1.04276
138.131,20.1021,1.24842,-0.06861999,1.0418
140.731,20.3529,1.25052,-0.06762381,1.04084
143.331,20.60313,1.27233,-0.06897269,1.03987
145.931,20.8538,1.27589,-0.0699402,1.0389
148.531,21.10387,1.2929,-0.0686141,1.03791
151.131,21.35277,1.30449,-0.06893039,1.03692
153.731,21.603,1.31379,-0.06996541,1.03592
156.331,21.85325,1.31883,-0.07125,1.03492
158.931,22.10312,1.33348,-0.0699554,1.0339
161.531,22.35202,1.35567,-0.07124946,1.03288
164.131,22.60104,1.35933,-0.07065119,1.03185
166.731,22.84883,1.37389,-0.07125974,1.03081
169.331,23.09873,1.38374,-0.07155923,1.02977
171.931,23.3474,1.40223,-0.07191892,1.02872
174.531,23.59556,1.41411,-0.07323008,1.02766
177.131,23.844,1.42631,-0.07454998,1.02659
179.731,24.09232,1.43174,-0.07626468,1.02551
182.331,24.3403,1.45001,-0.07653669,1.02443
184.931,24.58796,1.46177,-0.07818,1.02334
187.531,24.83611,1.46962,-0.07853728,1.02224
190.131,25.08349,1.48897,-0.07949144,1.02113
192.731,25.33126,1.49244,-0.08047,1.02002
195.331,25.5789,1.50603,-0.08244616,1.0189
197.931,25.8255,1.53023,-0.08245,1.01777
200.531,26.07395,1.5413,-0.08475999,1.01663
203.131,26.3208,1.56012,-0.08509192,1.01549
205.731,26.56778,1.58011,-0.0874,1.01433
208.331,26.8148,1.59416,-0.08904018,1.01317
210.931,27.06257,1.60992,-0.09167097,1.012
213.531,27.30935,1.62061,-0.09365811,1.01083
216.131,27.55665,1.64186,-0.09431,1.00964
218.731,27.8037,1.65738,-0.09826051,1.00845
221.331,28.05122,1.67247,-0.10057,1.00725
223.931,28.29897,1.68344,-0.10189,1.00604
226.531,28.54624,1.71349,-0.10452,1.00482
229.131,28.79397,1.72787,-0.10783,1.0036
231.731,29.04113,1.74126,-0.11087,1.00236
234.331,29.2886,1.75809,-0.11408,1.00112
236.931,29.53623,1.76913,-0.11934,0.99988
239.531,29.7841,1.78758,-0.12217,0.99862
242.131,30.0317,1.79856,-0.12856,0.99735
244.731,30.27911,1.8152,-0.1335,0.99608
247.331,30.52658,1.82568,-0.13915,0.9948
249.931,30.7738,1.83681,-0.14534,0.99351
252.531,31.0217,1.85061,-0.15218,0.99222
255.131,31.2697,1.85164,-0.16062,0.99091
257.731,31.5171,1.8651,-0.172,0.9896
260.331,31.76525,1.87273,-0.18205,0.98828
262.931,32.01332,1.8842,-0.19458,0.98695
265.531,32.26119,1.88705,-0.20748,0.98561
268.131,32.509,1.90299,-0.22409,0.98426
270.731,32.75739,1.90115,-0.24014,0.98291
273.331,33.00548,1.90929,-0.25863,0.98155
275.931,33.25423,1.91676,-0.27822,0.98018
278.531,33.50315,1.92053,-0.30167,0.9788
281.131,33.75159,1.92192,-0.32767,0.97741
283.731,34.00073,1.91461,-0.3537,0.97602
286.331,34.2496,1.90639,-0.38407,0.97462
288.931,34.49841,1.89948,-0.41408,0.97321
291.531,34.74692,1.88681,-0.44598,0.97179
294.131,34.9957,1.87028,-0.4766,0.97036
296.731,35.24374,1.85511,-0.51139,0.96892
299.331,35.49303,1.84079,-0.54566,0.96748
301.931,35.7427,1.83615,-0.57742,0.96603
304.531,35.99187,1.83716,-0.61077,0.96457
307.131,36.2412,1.83687,-0.64387,0.9631
309.731,36.4903,1.85802,-0.67807,0.96162
312.331,36.7402,1.8785,-0.71385,0.96014
314.931,36.9897,1.90838,-0.74684,0.95864
317.531,37.2385,1.95564,-0.78361,0.95714
320.131,37.48932,1.98848,-0.82173,0.95563
322.731,37.7386,2.05756,-0.85991,0.95411
325.331,37.98845,2.13454,-0.90094,0.95259
327.931,38.2393,2.23801,-0.94448,0.95105
330.531,38.4895,2.33877,-0.99019,0.94951
333.131,38.74048,2.47364,-1.03993,0.94796
335.731,38.99085,2.62463,-1.09604,0.9464
338.331,39.24279,2.7841,-1.15356,0.94483
340.931,39.49481,3.00592,-1.22,0.94325
343.531,39.74645,3.24694,-1.29046,0.94167
346.131,39.99791,3.52901,-1.36934,0.94008
348.731,40.24989,3.83377,-1.45679,0.93848
351.331,40.5017,4.16753,-1.55485,0.93687
353.931,40.75427,4.49739,-1.66282,0.93525
356.531,41.0064,4.81438,-1.77865,0.93362
359.131,41.25804,5.09114,-1.90405,0.93199
361.731,41.51128,5.28467,-2.04092,0.93035
364.331,41.76358,5.3703,-2.18129,0.9287
366.931,42.0161,5.28999,-2.32132,0.92704
369.531,42.2673,4.98428,-2.45666,0.92537
372.131,42.5188,4.47083,-2.58435,0.9237
374.731,42.76933,3.74271,-2.69114,0.92202
377.331,43.0198,2.88481,-2.77714,0.92032
379.931,43.27036,2.03855,-2.8392,0.91863
382.531,43.52077,1.33528,-2.88121,0.91692
385.131,43.7708,0.85249,-2.906,0.9152
387.731,44.02186,0.58295,-2.92115,0.91348
390.331,44.27313,0.44083,-2.9332,0.91175
392.931,44.5248,0.39486,-2.94315,0.91001
395.531,44.77718,0.35315,-2.9501,0.90826
398.131,45.02969,0.32743,-2.95931,0.9065
400.731,45.2827,0.28901,-2.96624,0.90474
403.331,45.53611,0.25028,-2.9746,0.90296
405.931,45.7893,0.21822,-2.98168,0.90118
408.531,46.04322,0.19612,-2.98987,0.89939
411.131,46.2973,0.17045,-2.99633,0.8976
413.731,46.55175,0.13636,-3.00347,0.89579
416.331,46.80575,0.10968,-3.01173,0.89398
418.931,47.05953,0.10352,-3.01879,0.89216
421.531,47.31426,0.09167243,-3.02654,0.89033
424.131,47.56825,0.09564541,-3.03486,0.88849
426.731,47.82173,0.10455,-3.04152,0.88665
429.331,48.07685,0.12071,-3.05003,0.8848
431.931,48.3313,0.14306,-3.05657,0.88294
434.531,48.5854,0.16045,-3.06512,0.88107
437.131,48.84042,0.19437,-3.07112,0.87919
439.731,49.09551,0.21973,-3.07701,0.87731
442.331,49.35098,0.25468,-3.08382,0.87542
444.931,49.60581,0.29594,-3.08941,0.87352
447.531,49.86099,0.33469,-3.09666,0.87161
450.131,50.1158,0.37282,-3.10169,0.86969
452.731,50.37184,0.41268,-3.10754,0.86777
455.331,50.62744,0.45582,-3.11227,0.86584
457.931,50.88326,0.48125,-3.11642,0.8639
460.531,51.13932,0.50409,-3.12169,0.86196
463.131,51.39581,0.52623,-3.12532,0.86
465.731,51.65157,0.56351,-3.13037,0.85804
468.331,51.90775,0.5718,-3.13454,0.85607
470.931,52.16458,0.61302,-3.13846,0.8541
473.531,52.42095,0.62347,-3.14244,0.85212
476.131,52.6779,0.64876,-3.14425,0.85012
478.731,52.9354,0.65964,-3.1497,0.84813
481.331,53.19175,0.67867,-3.152,0.84612
483.931,53.4493,0.69229,-3.15595,0.84411
486.531,53.70605,0.70778,-3.15892,0.84209
489.131,53.96245,0.72404,-3.16155,0.84006
491.731,54.21965,0.73017,-3.16418,0.83802
494.331,54.47628,0.74287,-3.16945,0.83598
496.931,54.73335,0.76743,-3.17104,0.83393
499.531,54.9906,0.78678,-3.17571,0.83187
502.131,55.24725,0.78335,-3.17835,0.82981
504.731,55.50445,0.79421,-3.17966,0.82774
507.331,55.76169,0.79753,-3.18493,0.82566
509.931,56.0186,0.80703,-3.18756,0.82358
512.531,56.27655,0.81978,-3.18892,0.82148
515.131,56.53441,0.81373,-3.1925,0.81938
517.731,56.79179,0.82037,-3.19382,0.81728
520.331,57.04999,0.8283,-3.19645,0.81517
522.931,57.3082,0.81922,-3.1991,0.81305
525.531,57.56584,0.82125,-3.20205,0.81092
528.131,57.8241,0.82225,-3.20503,0.80879
530.731,58.0825,0.82177,-3.20766,0.80665
533.331,58.34189,0.80512,-3.20964,0.8045
535.931,58.60044,0.79881,-3.21227,0.80235
538.531,58.8596,0.80853,-3.21491,0.80019
541.131,59.1185,0.79566,-3.21765,0.79802
543.731,59.378,0.80438,-3.21917,0.79585
546.331,59.63661,0.80772,-3.22311,0.79367
548.931,59.89565,0.80398,-3.22608,0.79148
551.531,60.1547,0.81126,-3.22742,0.78929
554.131,60.4131,0.80717,-3.2292,0.78709
556.731,60.6723,0.82314,-3.23237,0.78489
559.331,60.93155,0.81501,-3.23433,0.78268
561.931,61.1909,0.81001,-3.23697,0.78046
564.531,61.4498,0.8048,-3.23861,0.77824
567.131,61.70939,0.81004,-3.24086,0.77601
569.731,61.9679,0.8085,-3.24256,0.77377
572.331,62.2275,0.82453,-3.24422,0.77153
574.931,62.4863,0.8074,-3.24587,0.76928
577.531,62.74618,0.8016,-3.2485,0.76703
580.131,63.00569,0.79445,-3.25047,0.76477
582.731,63.26611,0.79116,-3.25311,0.76251
585.331,63.52599,0.80173,-3.25452,0.76023
587.931,63.78604,0.80308,-3.25706,0.75796
590.531,64.04587,0.81109,-3.25774,0.75568
593.131,64.30561,0.81631,-3.25969,0.75339
595.731,64.5655,0.81732,-3.262,0.7511
598.331,64.82599,0.8205,-3.26366,0.7488
600.931,65.08588,0.82022,-3.26595,0.7465
603.531,65.34604,0.82126,-3.26693,0.74419
606.131,65.60634,0.83054,-3.26859,0.74187
608.731,65.86712,0.83318,-3.26991,0.73955
611.331,66.12771,0.83004,-3.27125,0.73723
613.931,66.38781,0.85529,-3.27386,0.7349
616.531,66.64832,0.84876,-3.27517,0.73256
619.131,66.9087,0.85487,-3.27649,0.73023
621.731,67.16932,0.8565,-3.27846,0.72788
624.331,67.4297,0.87583,-3.27946,0.72553
626.931,67.69086,0.86646,-3.27919,0.72318
629.531,67.9513,0.86345,-3.28318,0.72082
632.131,68.21161,0.86479,-3.2844,0.71846
634.731,68.47239,0.85444,-3.2857,0.71609
637.331,68.73356,0.86327,-3.28703,0.71371
639.931,68.99495,0.86851,-3.28835,0.71134
642.531,69.2556,0.87563,-3.28968,0.70896
645.131,69.51785,0.87797,-3.29196,0.70657
647.731,69.7793,0.8786,-3.29197,0.70418
649.831,69.99014,0.8844,-3.29197,0.70225