Folder: fsri_materials_database/01_Data/XPS_Foam_Board/Cone

Note: README.md
# Materials and Products Database
### Repository of materials and products properties and fire test data to improve fire modeling and fire investigation.

This project was supported in part by Award No. 2019-DU-BX-0018, awarded by the National Institute of Justice, Office of Justice Programs, U.S. Department of Justice. The opinions, findings, and conclusions or recommendations expressed in this publication / program / exhibition are those of the author(s) and do not necessarily reflect those of the Department of Justice.

***
***

__Cite this database:__ "McKinnon, M., Weinschenk, C., Dow, N., DiDomizio, M., and Madrzykowski, D. Materials and Products Database (Version 1.0.0), Fire Safety Research Institute, UL Research Institutes. Columbia, MD 21045, 2023."

__Cite the Technical Reference Guide:__ "McKinnon, M., Weinschenk, C., and Madrzykowski, D. Materials and Products Database - Technical Reference Guide, Fire Safety Research Institute, UL Research Institutes. Columbia, MD 21045, 2023."

__Cite the User Guide:__ "McKinnon, M., and Weinschenk, C. Materials and Products Database - User Guide, Fire Safety Research Institute, UL Research Institutes. Columbia, MD 21045, 2023."

***
***

## Database Structure

## 01_Data/
Raw data generated from each apparatus are included here in plain-text format. The data is organized first by material, next by the short name of test apparatus used, and where applicable additional filtering by test settings.

### Test Apparatus and Data File Structure
- __Cone Calorimeter__ (Cone)
    + Data file structure includes the material, the short name for the apparatus, heat flux setting and scan/scalar, date of test, and replicate number. Scan is for the raw output data and scalar is for the initial conditions and high-level test parameters. 
        * Example: __MDF_Cone_HF25scalar_210323_R1__ stands for the first replicate of scalar data generated from a medium density fiber board test in cone calorimeter exposed to 25 kW/m<sup>2</sup> on March 23, 2021.
    + A _Cone_Notes.csv_ is generated for each material from the __plot_Cone_data.py__ script. For materials whose experiments deviated from typical behavior relevant pictures are included in the respective material directory.
- __Fourier Transform Infrared Spectrometer__ (FTIR)
    + The FTIR directory contains subdirectories for the Attenuated Total Reflectance method (ATR) and the Integrating Sphere (IS)
    + Data file structure for the ATR experiment files includes the material, the abbreviated name for the apparatus, date of test, and replicate number. 
        * Example: __MDF_ATR_210323_R5__ stands for the fifth replicate of data collected with the ATR accessory conducted on June 8, 2021.
    + Data file structure for the IS experiment files includes the material, the abbreviated name for the apparatus, the measurand, whether the test is a sample measurement or standard reference, date of test, and replicate number.
        * Example: __OSB_IS_REFLECT_MEAS_2

File: XPS_Foam_Board_HRRPUA_25.csv
Time after Ignition,XPS_Foam_Board_R1,XPS_Foam_Board_R2,XPS_Foam_Board_R3,Mean,Std. Dev.
0.0,25.8,29.6,4.5,20.0,13.5
0.5,37.2,37.8,8.8,28.0,16.6
1.0,50.9,52.2,12.3,38.5,22.7
1.5,68.1,75.0,22.7,55.3,28.4
2.0,85.1,93.9,31.0,70.0,34.1
2.5,101.0,108.7,51.6,87.1,31.0
3.0,125.1,126.6,68.1,106.6,33.3
3.5,143.1,143.5,89.7,125.5,31.0
4.0,173.3,161.2,117.7,150.7,29.2
4.5,194.9,184.5,143.1,174.2,27.4
5.0,220.8,197.8,165.2,194.6,28.0
5.5,239.4,211.0,190.8,213.7,24.4
6.0,258.0,227.4,208.7,231.4,24.9
6.5,272.7,244.8,229.5,249.0,21.9
7.0,294.4,257.9,240.4,264.2,27.5
7.5,308.8,272.3,258.1,279.7,26.1
8.0,317.6,272.0,266.3,285.3,28.1
8.5,321.1,300.1,280.4,300.5,20.4
9.0,327.1,320.9,286.4,311.4,22.0
9.5,334.6,328.3,293.5,318.8,22.2
10.0,339.7,338.5,305.8,328.0,19.2
10.5,355.0,345.5,313.1,337.9,22.0
11.0,367.1,358.5,325.6,350.4,21.9
11.5,372.0,366.2,338.3,358.8,18.0
12.0,386.1,383.8,345.5,371.8,22.8
12.5,388.9,391.0,356.2,378.7,19.5
13.0,410.0,399.5,362.2,390.6,25.1
13.5,412.2,423.4,378.9,404.8,23.1
14.0,441.7,431.5,402.0,425.1,20.6
14.5,447.0,446.7,417.2,437.0,17.2
15.0,471.4,462.5,414.4,449.4,30.6
15.5,491.9,483.0,426.8,467.2,35.3
16.0,482.1,490.1,447.8,473.4,22.5
16.5,522.2,482.6,445.5,483.4,38.4
17.0,524.6,500.0,472.0,498.9,26.3
17.5,522.4,511.2,482.4,505.3,20.6
18.0,553.7,512.4,495.3,520.5,30.0
18.5,525.3,533.1,503.5,520.6,15.3
19.0,560.8,547.8,525.2,544.6,18.0
19.5,552.9,519.0,534.2,535.4,17.0
20.0,558.2,537.4,537.9,544.5,11.9
20.5,566.6,561.5,532.7,553.6,18.3
21.0,567.7,544.4,511.7,541.3,28.1
21.5,562.6,538.7,532.1,544.5,16.1
22.0,578.9,547.5,548.6,558.3,17.8
22.5,563.1,549.3,536.7,549.7,13.2
23.0,561.4,557.1,537.9,552.1,12.5
23.5,568.6,548.6,541.6,552.9,14.0
24.0,537.7,552.4,539.9,543.3,7.9
24.5,553.6,552.7,557.2,554.5,2.4
25.0,546.6,541.0,540.2,542.6,3.5
25.5,531.4,545.0,542.4,539.6,7.2
26.0,518.3,526.4,553.5,532.7,18.4
26.5,517.8,537.5,552.8,536.0,17.5
27.0,532.9,531.8,545.4,536.7,7.5
27.5,523.8,510.6,538.5,524.3,14.0
28.0,502.9,498.9,535.0,512.2,19.8
28.5,492.8,490.6,511.8,498.4,11.7
29.0,493.4,476.2,526.6,498.7,25.7
29.5,478.3,485.7,517.4,493.8,20.8
30.0,476.5,475.5,513.1,488.4,21.4
30.5,461.3,475.2,508.0,481.5,24.0
31.0,463.1,468.0,503.9,478.3,22.3
31.5,447.1,443.5,490.7,460.4,26.3
32.0,448.1,452.0,496.6,465.6,26.9
32.5,425.7,450.5,486.0,454.1,30.3
33.0,426.8,441.1,479.9,449.3,27.5
33.5,415.8,437.3,462.9,438.7,23.6
34.0,406.2,428.5,454.0,429.6,23.9
34.5,397.0,423.8,462.8,427.8,33.1
35.0,393.3,422.3,452.2,422.6,29.5
35.5,387.4,401.7,436.2,408.4,25.1
36.0,378.7,397.8,435.1,403.8,28.7
36.5,364.7,391.9,425.3,394.0,30.4
37.0,354.7,393.5,420.2,389.5,32.9
37.5,352.6,385.8,411.7,383.4,29.6
38.0,339.7,381.3,401.8,374.2,31.6
38.5,332.2,382.0,403.6,372.6,36.6
39.0,337.5,371.2,384.3,364.3,24.2
39.5,339.8,368.2,388.8,365.6,24.6
40.0,328.4,361.8,383.4,357.9,27.7
40.5,330.4,352.9,375.8,353.0,22.7
41.0,318.7,349.4,364.6,344.2,23.4
41.5,323.2,341.7,366.4,343.8,21.7
42.0,315.8,329.5,361.2,335.5,23.3
42.5,319.7,327.0,356.1,334.3,19.2
43.0,318.4,317.5,351.7,329.2,19.5
43.5,306.4,305.6,358.0,323.4,30.0
44.0,302.4,309.2,342.0,317.9,21.2
44.5,302.2,303.8,349.8,318.6,27.0
45.0,303.9,296.4,339.0,313.1,22.8
45.5,291.7,298.4,336.5,308.9,24.1
46.0,287.1,297.8,333.2,306.0,24.1
46.5,284.3,289.1,328.4,300.6,24.2
47.0,275.6,293.8,324.1,297.8,24.5
47.5,270.4,291.4,324.0,295.3,27.0
48.0,269.2,290.0,315.5,291.5,23.2
48.5,258.6,292.1,324.2,291.7,32.8
49.0,251.3,290.4,309.6,283.8,29.7
49.5,246.2,290.4,306.8,281.1,31.4
50.0,241.3,288.7,310.4,280.2,35.3
50.5,231.0,279.0,306.5,272.1,38.2
51.0,229.7,278.8,297.6,268.7,35.1
51.5,225.9,275.7,292.0,264.6,34.5
52.0,219.7,266.9,298.9,261.8,39.9
52.5,219.4,265.0,288.0,257.5,34.9
53.0,214.5,260.5,287.5,254.2,36.9
53.5,208.9,251.3,283.8,248.0,37.6
54.0,206.0,250.2,271.5,242.5,33.4
54.5,199.6,237.5,266.8,234.6,33.7
55.0,197.6,232.8,261.8,230.7,32.1
55.5,195.8,228.7,258.0,227.5,31.1
56.0,190.7,220.9,252.1,221.2,30.7
56.5,191.4,218.1,246.8,218.7,27.7
57.0,184.5,213.7,239.0,212.4,27.3
57.5,182.6,206.0,232.5,207.0,25.0
58.0,181.2,200.3,231.1,204.2,25.2
58.5,170.4,196.5,222.5,196.4,26.0
59.0,170.8,189.2,211.5,190.5,20.4
59.5,171.3,187.3,207.8,188.8,18.3
60.0,167.4,183.6,198.6,183.2,15.6
60.5,163.8,178.0,191.3,177.7,13.8
61.0,160.9,172.8,183.1,172.3,11.1
61.5,159.9,166.3,176.8,167.7,8.6
62.0,157.9,157.7,173.2,162.9,8.9
62.5,154.7,151.2,167.7,157.9,8.7
63.0,151.7,143.9,160.0,151.8,8.0
63.5,150.8,137.8,156.0,148.2,9.4
64.0,146.5,131.3,150.3,142.7,10.1
64.5,146.4,121.8,143.5,137.2,13.5
65.0,145.5,117.5,138.0,133.7,14.5
65.5,142.2,111.5,130.8,128.2,15.5
66.0,140.7,105.6,125.0,123.7,17.5
66.5,140.1,99.7,119.0,119.6,20.2
67.0,136.5,95.9,114.5,115.6,20.3
67.5,136.2,91.5,108.3,112.0,22.6
68.0,132.8,86.9,102.5,107.4,23.3
68.5,131.0,82.3,97.2,103.5,24.9
69.0,129.1,77.9,93.0,100.0,26.3
69.5,122.5,73.7,89.6,95.3,24.9
70.0,120.0,69.3,85.3,91.5,25.9
70.5,115.2,66.1,82.6,88.0,25.0
71.0,111.6,62.4,76.1,83.4,25.4
71.5,107.0,58.7,72.1,79.3,24.9
72.0,103.6,57.3,67.6,76.1,24.3
72.5,100.7,55.0,63.2,73.0,24.4
73.0,95.7,51.6,60.0,69.1,23.4
73.5,92.6,49.3,55.9,65.9,23.3
74.0,87.3,47.1,52.9,62.4,21.7
74.5,85.6,45.0,50.3,60.3,22.1
75.0,81.0,43.3,46.6,57.0,20.9
75.5,78.2,42.2,44.1,54.8,20.2
76.0,74.1,39.0,41.9,51.7,19.5
76.5,71.1,37.6,41.0,49.9,18.4
77.0,68.7,35.8,39.0,47.8,18.2
77.5,66.9,33.7,37.6,46.0,18.1
78.0,63.1,32.4,36.0,43.8,16.8
78.5,62.0,30.6,34.1,42.2,17.2
79.0,60.0,29.5,32.5,40.7,16.8
79.5,57.9,28.8,31.0,39.2,16.2
80.0,57.0,27.8,29.1,38.0,16.5
80.5,54.3,26.7,28.1,36.4,15.5
81.0,52.4,25.7,26.7,34.9,15.2
81.5,50.7,24.4,25.4,33.5,14.9
82.0,49.9,24.3,24.2,32.8,14.8
82.5,47.8,22.4,23.3,31.2,14.4
83.0,45.4,22.3,22.8,30.1,13.2
83.5,43.9,21.0,21.8,28.9,13.0
84.0,42.3,20.1,21.0,27.8,12.6
84.5,39.7,19.1,20.5,26.4,11.5
85.0,38.4,18.1,19.4,25.3,11.4
85.5,36.9,16.9,19.1,24.3,10.9
86.0,36.0,16.3,18.8,23.7,10.7
86.5,34.1,15.5,18.1,22.6,10.1
87.0,33.8,14.9,17.8,22.1,10.2
87.5,32.3,14.0,17.0,21.1,9.8
88.0,30.7,13.5,16.6,20.3,9.2
88.5,29.3,12.8,16.1,19.4,8.7
89.0,28.1,12.1,15.7,18.6,8.4
89.5,26.3,11.2,15.3,17.6,7.8
90.0,25.3,10.4,15.1,17.0,7.6
90.5,24.0,9.9,14.7,16.2,7.1
91.0,22.5,9.5,14.5,15.5,6.6
91.5,21.0,8.9,14.0,14.6,6.1
92.0,19.5,8.3,13.5,13.8,5.6
92.5,18.4,7.9,13.3,13.2,5.3
93.0,17.5,7.8,12.7,12.7,4.9
93.5,16.2,7.3,12.2,11.9,4.5
94.0,15.1,6.9,12.1,11.4,4.1
94.5,13.9,6.6,11.8,10.8,3.8
95.0,12.8,6.3,11.3,10.1,3.4
95.5,12.1,6.0,10.8,9.6,3.2
96.0,10.9,5.9,10.3,9.0,2.7
96.5,10.2,5.7,10.0,8.6,2.5
97.0,8.8,5.6,9.7,8.0,2.2
97.5,7.9,5.5,9.6,7.7,2.1
98.0,6.8,5.3,9.2,7.1,2.0
98.5,6.0,5.3,8.8,6.7,1.9
99.0,5.2,5.3,8.6,6.4,1.9
99.5,4.3,5.3,8.3,6.0,2.1
100.0,3.8,5.4,8.1,5.8,2.2
100.5,3.3,5.3,7.7,5.4,2.2
101.0,2.8,5.4,7.4,5.2,2.3
101.5,2.2,5.5,6.9,4.9,2.4
102.0,1.8,5.5,6.4,4.5,2.4
102.5,1.0,,6.0,3.5,3.6
103.0,0.2,,5.5,2.9,3.7
103.5,-0.5,,5.2,2.4,4.0
104.0,-1.2,,4.9,1.8,4.3
104.5,-1.9,,4.7,1.4,4.7
105.0,-2.4,,4.4,1.0,4.8

File: XPS_Foam_Board_HRRPUA_50.csv
Time after Ignition,XPS_Foam_Board_R1,XPS_Foam_Board_R2,XPS_Foam_Board_R3,Mean,Std. Dev.
0.0,20.5,35.7,44.7,33.6,12.2
0.5,34.5,46.4,62.3,47.8,14.0
1.0,50.6,68.4,85.3,68.1,17.4
1.5,67.1,84.9,99.4,83.8,16.2
2.0,88.6,108.9,119.5,105.7,15.7
2.5,108.9,128.6,137.3,124.9,14.6
3.0,126.5,145.8,145.1,139.1,10.9
3.5,149.1,168.7,163.7,160.5,10.2
4.0,161.3,179.8,173.8,171.6,9.4
4.5,179.7,193.6,200.8,191.4,10.7
5.0,191.9,208.4,207.6,202.6,9.3
5.5,211.4,220.5,214.9,215.6,4.6
6.0,226.7,234.3,226.5,229.2,4.4
6.5,236.8,244.6,242.7,241.4,4.1
7.0,248.2,260.3,251.9,253.5,6.2
7.5,263.5,271.1,262.3,265.6,4.8
8.0,281.5,301.6,281.5,288.2,11.6
8.5,302.8,315.0,291.5,303.1,11.8
9.0,315.1,344.6,305.3,321.7,20.5
9.5,335.1,375.4,322.3,344.3,27.7
10.0,364.0,386.9,328.9,359.9,29.2
10.5,378.6,412.8,342.9,378.1,35.0
11.0,414.4,476.1,362.4,417.6,56.9
11.5,441.6,503.4,374.6,439.9,64.4
12.0,461.8,543.1,401.3,468.7,71.1
12.5,490.4,543.9,432.7,489.0,55.6
13.0,498.1,594.4,476.3,522.9,62.9
13.5,545.2,650.6,501.1,565.6,76.8
14.0,581.6,681.8,522.2,595.2,80.6
14.5,594.0,687.2,551.8,611.0,69.2
15.0,655.7,763.8,586.2,668.6,89.5
15.5,672.4,810.0,611.4,697.9,101.7
16.0,750.5,796.4,678.3,741.7,59.5
16.5,746.3,860.0,693.2,766.5,85.2
17.0,803.1,891.1,707.0,800.4,92.0
17.5,808.2,939.6,725.8,824.5,107.8
18.0,832.1,945.0,767.2,848.1,90.0
18.5,853.3,956.0,768.9,859.4,93.7
19.0,865.9,1008.2,783.5,885.9,113.7
19.5,890.3,1019.2,830.1,913.2,96.6
20.0,883.4,980.3,869.7,911.2,60.3
20.5,897.4,1021.7,892.5,937.2,73.3
21.0,956.9,984.4,902.1,947.8,41.9
21.5,930.5,1055.4,879.9,955.3,90.3
22.0,923.2,1035.6,946.1,968.3,59.4
22.5,935.1,1007.2,920.8,954.3,46.3
23.0,928.8,988.1,931.1,949.3,33.6
23.5,924.9,990.3,901.1,938.8,46.2
24.0,965.3,947.2,964.1,958.9,10.1
24.5,958.5,959.3,946.6,954.8,7.2
25.0,919.3,908.8,930.8,919.6,11.0
25.5,946.1,907.6,998.7,950.8,45.7
26.0,916.0,879.4,945.8,913.7,33.3
26.5,914.4,846.6,893.9,885.0,34.8
27.0,924.6,832.7,896.2,884.5,47.0
27.5,902.5,816.0,876.9,865.1,44.5
28.0,884.2,794.0,855.7,844.6,46.1
28.5,867.1,770.2,845.6,827.6,50.9
29.0,830.5,746.8,816.7,798.0,44.9
29.5,828.3,712.8,806.2,782.5,61.3
30.0,800.4,690.8,759.4,750.2,55.4
30.5,767.7,656.9,793.4,739.3,72.5
31.0,762.8,624.6,742.2,709.9,74.6
31.5,736.9,608.9,725.6,690.4,70.9
32.0,698.2,576.2,706.1,660.2,72.8
32.5,681.1,576.0,697.7,651.6,66.0
33.0,638.2,540.3,675.3,617.9,69.7
33.5,603.0,516.3,642.3,587.2,64.5
34.0,585.6,500.9,619.8,568.7,61.2
34.5,555.6,477.0,588.7,540.4,57.4
35.0,522.9,456.9,560.8,513.5,52.6
35.5,494.1,440.0,542.6,492.2,51.3
36.0,476.6,417.4,527.6,473.9,55.1
36.5,453.4,398.6,494.7,448.9,48.2
37.0,443.0,393.3,478.0,438.1,42.6
37.5,424.6,366.1,460.6,417.1,47.7
38.0,399.7,354.2,436.0,396.6,41.0
38.5,384.9,336.8,427.7,383.1,45.5
39.0,364.4,333.2,406.0,367.9,36.6
39.5,341.2,309.3,390.8,347.1,41.1
40.0,332.1,297.2,368.1,332.5,35.5
40.5,320.2,284.3,349.9,318.1,32.9
41.0,312.0,269.2,327.3,302.8,30.1
41.5,287.5,257.2,309.2,284.6,26.1
42.0,278.8,241.5,295.7,272.0,27.7
42.5,268.9,227.7,282.9,259.8,28.7
43.0,256.5,212.2,270.0,246.2,30.3
43.5,243.2,200.4,247.2,230.3,25.9
44.0,231.6,188.5,238.5,219.5,27.1
44.5,217.6,177.5,222.6,205.9,24.7
45.0,211.4,169.4,210.5,197.1,24.0
45.5,206.7,163.3,195.1,188.4,22.5
46.0,194.1,154.1,181.1,176.4,20.4
46.5,194.4,143.4,168.0,168.6,25.5
47.0,181.2,138.4,154.7,158.1,21.6
47.5,174.4,129.4,140.7,148.2,23.4
48.0,168.4,122.7,127.5,139.5,25.1
48.5,162.4,114.7,116.5,131.2,27.0
49.0,155.8,107.6,102.1,121.8,29.5
49.5,148.4,102.1,91.8,114.1,30.1
50.0,142.1,95.0,83.5,106.9,31.1
50.5,137.9,91.0,76.1,101.7,32.2
51.0,133.6,86.2,67.8,95.9,34.0
51.5,126.6,82.7,61.0,90.1,33.4
52.0,122.2,77.6,53.7,84.5,34.8
52.5,117.0,75.8,47.4,80.1,35.0
53.0,114.4,71.7,42.6,76.3,36.1
53.5,109.2,68.9,37.2,71.8,36.1
54.0,104.5,65.3,32.0,67.3,36.3
54.5,100.1,61.5,,80.8,27.2
55.0,97.1,57.9,,77.5,27.7
55.5,90.3,54.0,,72.1,25.7
56.0,87.0,49.6,,68.3,26.4
56.5,82.4,46.4,,64.4,25.5
57.0,79.8,42.2,,61.0,26.6
57.5,74.3,39.3,,56.8,24.8
58.0,71.9,36.4,,54.1,25.1
58.5,68.7,33.9,,51.3,24.6
59.0,66.7,31.1,,48.9,25.2
59.5,64.2,28.6,,46.4,25.2
60.0,63.0,26.5,,44.7,25.8
60.5,60.8,23.7,,42.2,26.2
61.0,59.0,21.6,,40.3,26.4
61.5,57.9,19.5,,38.7,27.2
62.0,56.6,,,56.6,
62.5,54.6,,,54.6,
63.0,53.5,,,53.5,
63.5,51.8,,,51.8,
64.0,49.7,,,49.7,
64.5,48.0,,,48.0,
65.0,46.9,,,46.9,
65.5,45.1,,,45.1,
66.0,43.5,,,43.5,
66.5,42.1,,,42.1,
67.0,40.8,,,40.8,
67.5,39.9,,,39.9,
68.0,39.0,,,39.0,
68.5,38.3,,,38.3,
69.0,37.3,,,37.3,
69.5,36.8,,,36.8,
70.0,36.0,,,36.0,
70.5,34.0,,,34.0,
71.0,33.2,,,33.2,
71.5,31.2,,,31.2,
72.0,30.1,,,30.1,
72.5,28.8,,,28.8,
73.0,28.0,,,28.0,
73.5,27.3,,,27.3,
74.0,26.7,,,26.7,
74.5,25.0,,,25.0,
75.0,24.0,,,24.0,
75.5,22.3,,,22.3,
76.0,22.1,,,22.1,
76.5,20.7,,,20.7,
77.0,19.7,,,19.7,
77.5,18.2,,,18.2,
78.0,16.8,,,16.8,
78.5,14.9,,,14.9,
79.0,13.4,,,13.4,
79.5,11.9,,,11.9,
80.0,10.3,,,10.3,
80.25,9.6,,,9.6,

File: XPS_Foam_Board_HRRPUA_75.csv
Time after Ignition,XPS_Foam_Board_R1,XPS_Foam_Board_R2,XPS_Foam_Board_R3,Mean,Std. Dev.
0.0,54.4,29.5,50.8,44.9,13.4
0.25,63.1,34.7,58.5,52.1,15.2
0.5,70.3,47.9,73.0,63.8,13.8
0.75,82.6,61.4,86.1,76.7,13.4
1.0,94.8,71.4,96.7,87.7,14.1
1.25,106.2,81.3,105.8,97.8,14.3
1.5,113.3,89.4,121.3,108.0,16.6
1.75,124.6,105.3,134.3,121.4,14.7
2.0,130.7,118.2,142.3,130.4,12.0
2.25,141.8,133.8,153.9,143.2,10.1
2.5,153.5,137.0,165.2,151.9,14.2
2.75,163.9,149.0,174.9,162.6,13.0
3.0,169.3,162.9,181.7,171.3,9.6
3.25,184.5,177.6,193.5,185.2,8.0
3.5,192.8,185.3,202.2,193.4,8.5
3.75,201.1,195.6,210.3,202.3,7.4
4.0,212.3,201.9,214.6,209.6,6.8
4.25,226.5,215.7,221.3,221.2,5.4
4.5,241.3,224.8,228.6,231.6,8.7
4.75,243.2,236.6,237.2,239.0,3.7
5.0,249.9,239.7,237.2,242.3,6.7
5.25,267.6,247.0,244.7,253.1,12.6
5.5,278.2,256.7,245.7,260.2,16.5
5.75,293.8,263.1,256.0,271.0,20.1
6.0,305.7,265.4,257.4,276.2,25.9
6.25,318.3,282.7,255.5,285.5,31.5
6.5,344.8,285.6,261.1,297.2,43.0
6.75,356.8,306.1,267.0,310.0,45.0
7.0,366.7,307.4,278.4,317.5,45.0
7.25,382.1,317.4,273.5,324.3,54.6
7.5,401.5,332.3,282.3,338.7,59.8
7.75,434.2,337.3,294.8,355.5,71.5
8.0,447.6,342.0,315.6,368.4,69.9
8.25,480.7,360.2,314.3,385.1,85.9
8.5,470.6,375.9,329.0,391.8,72.1
8.75,487.3,396.4,349.8,411.2,69.9
9.0,544.0,421.1,373.0,446.1,88.2
9.25,553.6,411.8,387.2,450.9,89.8
9.5,556.4,421.0,402.3,459.9,84.1
9.75,567.6,431.7,425.2,474.8,80.4
10.0,588.9,458.8,433.7,493.8,83.3
10.25,593.6,488.6,453.5,511.9,72.9
10.5,625.8,483.7,466.9,525.5,87.3
10.75,642.8,507.0,507.6,552.5,78.2
11.0,663.2,523.1,521.8,569.4,81.2
11.25,666.9,562.6,557.6,595.7,61.7
11.5,689.5,582.7,559.0,610.4,69.5
11.75,718.3,583.1,608.4,636.6,71.9
12.0,730.5,611.0,628.7,656.7,64.5
12.25,767.1,654.1,648.1,689.8,67.0
12.5,761.1,692.7,684.6,712.8,42.0
12.75,802.9,682.3,692.8,726.0,66.8
13.0,845.2,769.9,728.7,781.3,59.1
13.25,860.2,759.4,798.1,805.9,50.8
13.5,872.1,877.8,808.7,852.9,38.4
13.75,943.0,802.7,873.6,873.1,70.2
14.0,975.0,858.2,885.4,906.2,61.1
14.25,963.5,933.3,907.1,934.6,28.2
14.5,1003.4,963.3,979.1,981.9,20.2
14.75,1021.8,1027.1,1025.3,1024.7,2.7
15.0,1061.2,1026.8,1136.1,1074.7,55.9
15.25,1116.2,1019.8,1065.2,1067.1,48.2
15.5,1023.8,1171.5,1004.0,1066.4,91.6
15.75,1147.0,1020.3,1080.7,1082.7,63.4
16.0,1075.1,1215.3,1173.9,1154.8,72.0
16.25,1149.3,1170.6,1166.1,1162.0,11.2
16.5,1249.3,1200.8,1201.9,1217.3,27.7
16.75,1098.9,1206.7,1246.5,1184.0,76.4
17.0,1215.0,1282.1,1271.5,1256.2,36.1
17.25,1212.5,1306.3,1244.6,1254.4,47.7
17.5,1211.5,1315.1,1279.5,1268.7,52.6
17.75,1199.9,1350.1,1426.0,1325.3,115.1
18.0,1165.7,1409.8,1346.2,1307.3,126.6
18.25,1227.3,1370.2,1302.3,1299.9,71.4
18.5,1245.0,1424.7,1455.6,1375.1,113.7
18.75,1325.3,1346.5,1355.4,1342.4,15.5
19.0,1223.2,1390.4,1431.7,1348.5,110.4
19.25,1248.4,1443.6,1579.5,1423.9,166.4
19.5,1203.8,1374.0,1498.4,1358.7,147.9
19.75,1247.8,1408.7,1410.6,1355.7,93.4
20.0,1247.4,1399.7,1469.5,1372.2,113.6
20.25,1220.4,1506.1,1447.5,1391.3,150.9
20.5,1227.2,1404.5,1405.9,1345.9,102.8
20.75,1238.4,1526.5,1532.2,1432.4,168.0
21.0,1207.3,1484.5,1442.5,1378.1,149.4
21.25,1290.2,1456.3,1456.5,1401.0,95.9
21.5,1156.7,1474.7,1469.6,1367.0,182.1
21.75,1231.8,1455.5,1424.2,1370.5,121.1
22.0,1135.6,1434.1,1477.0,1348.9,186.0
22.25,1196.3,1457.0,1457.0,1370.1,150.5
22.5,1156.8,1472.1,1390.7,1339.9,163.7
22.75,1161.7,1452.0,1425.2,1346.3,160.4
23.0,1128.2,1425.5,1424.7,1326.1,171.4
23.25,1115.3,1448.3,1357.0,1306.8,172.1
23.5,1115.1,1417.4,1340.9,1291.2,157.2
23.75,1120.9,1339.8,1279.9,1246.9,113.1
24.0,1113.2,1326.1,1297.0,1245.4,115.4
24.25,1023.7,1297.9,1256.5,1192.7,147.8
24.5,1059.7,1269.5,1245.3,1191.5,114.8
24.75,1045.4,1232.4,1226.1,1168.0,106.2
25.0,1019.2,1211.1,1187.1,1139.1,104.6
25.25,1010.3,1172.0,1141.2,1107.8,85.8
25.5,994.0,1166.9,1136.2,1099.0,92.2
25.75,957.9,1143.9,1137.8,1079.9,105.7
26.0,952.4,1077.5,1068.6,1032.9,69.8
26.25,925.3,1062.9,1014.2,1000.8,69.8
26.5,906.7,991.8,1007.9,968.8,54.4
26.75,880.9,993.7,959.8,944.8,57.9
27.0,818.3,934.8,960.6,904.6,75.8
27.25,823.7,899.1,910.6,877.8,47.2
27.5,801.9,864.2,872.2,846.1,38.5
27.75,754.7,827.9,860.7,814.4,54.3
28.0,731.4,807.9,825.8,788.4,50.1
28.25,700.1,763.0,792.4,751.8,47.2
28.5,651.0,751.6,746.8,716.5,56.7
28.75,618.0,704.3,722.2,681.5,55.7
29.0,601.6,679.9,715.1,665.5,58.1
29.25,573.3,640.6,660.7,624.9,45.8
29.5,552.5,577.7,648.7,593.0,49.9
29.75,520.4,586.2,621.7,576.1,51.4
30.0,493.3,560.6,595.2,549.7,51.8
30.25,469.9,534.2,574.2,526.1,52.6
30.5,454.6,513.0,549.5,505.7,47.9
30.75,428.4,481.6,535.1,481.7,53.3
31.0,408.4,461.8,504.3,458.2,48.1
31.25,394.7,435.4,476.5,435.5,40.9
31.5,370.3,420.3,461.8,417.5,45.9
31.75,351.3,393.7,441.6,395.5,45.2
32.0,330.3,369.3,418.0,372.5,43.9
32.25,312.7,348.5,398.4,353.2,43.1
32.5,293.1,331.1,382.0,335.4,44.6
32.75,282.1,317.0,363.8,321.0,41.0
33.0,266.6,299.5,345.0,303.7,39.4
33.25,260.0,280.4,325.9,288.7,33.7
33.5,244.8,263.7,310.0,272.8,33.6
33.75,228.7,253.3,295.6,259.2,33.9
34.0,216.0,234.6,281.2,243.9,33.6
34.25,207.6,218.7,267.6,231.3,31.9
34.5,199.9,207.4,248.7,218.7,26.3
34.75,188.5,194.7,240.6,207.9,28.4
35.0,179.0,170.1,226.3,191.8,30.2
35.25,170.1,170.1,216.5,185.6,26.8
35.5,162.0,161.7,201.4,175.1,22.8
35.75,157.7,151.9,189.1,166.2,20.0
36.0,147.9,142.3,181.6,157.3,21.2
36.25,142.3,134.5,171.6,149.5,19.6
36.5,135.4,124.8,160.6,140.3,18.4
36.75,131.5,116.9,150.2,132.9,16.7
37.0,125.6,110.1,141.4,125.7,15.6
37.25,121.1,102.1,136.2,119.8,17.1
37.5,113.7,96.5,128.4,112.9,16.0
37.75,110.8,91.7,122.1,108.2,15.4
38.0,105.2,85.2,113.7,101.4,14.7
38.25,103.8,81.2,106.4,97.1,13.9
38.5,97.5,75.2,102.6,91.8,14.6
38.75,93.5,70.9,96.1,86.8,13.8
39.0,89.9,67.1,90.4,82.5,13.3
39.25,87.3,63.2,85.3,78.6,13.4
39.5,82.5,,80.9,81.7,1.1
39.75,78.9,,76.3,77.6,1.8
40.0,75.5,,71.9,73.7,2.5
40.25,71.6,,,71.6,
40.5,70.3,,,70.3,
40.75,66.0,,,66.0,
41.0,62.5,,,62.5,
41.25,61.1,,,61.1,
41.5,56.8,,,56.8,