Folder: fsri_materials_database/01_Data/Hemp_Sheet/Cone

Note: README.md
# Materials and Products Database
### Repository of materials and products properties and fire test data to improve fire modeling and fire investigation.

This project was supported in part by Award No. 2019-DU-BX-0018, awarded by the National Institute of Justice, Office of Justice Programs, U.S. Department of Justice. The opinions, findings, and conclusions or recommendations expressed in this publication / program / exhibition are those of the author(s) and do not necessarily reflect those of the Department of Justice.

***
***

__Cite this database:__ "McKinnon, M., Weinschenk, C., Dow, N., DiDomizio, M., and Madrzykowski, D. Materials and Products Database (Version 1.0.0), Fire Safety Research Institute, UL Research Institutes. Columbia, MD 21045, 2023."

__Cite the Technical Reference Guide:__ "McKinnon, M., Weinschenk, C., and Madrzykowski, D. Materials and Products Database - Technical Reference Guide, Fire Safety Research Institute, UL Research Institutes. Columbia, MD 21045, 2023."

__Cite the User Guide:__ "McKinnon, M., and Weinschenk, C. Materials and Products Database - User Guide, Fire Safety Research Institute, UL Research Institutes. Columbia, MD 21045, 2023."

***
***

## Database Structure

## 01_Data/
Raw data generated from each apparatus are included here in plain-text format. The data is organized first by material, next by the short name of test apparatus used, and where applicable additional filtering by test settings.

### Test Apparatus and Data File Structure
- __Cone Calorimeter__ (Cone)
    + Data file structure includes the material, the short name for the apparatus, heat flux setting and scan/scalar, date of test, and replicate number. Scan is for the raw output data and scalar is for the initial conditions and high-level test parameters. 
        * Example: __MDF_Cone_HF25scalar_210323_R1__ stands for the first replicate of scalar data generated from a medium density fiber board test in cone calorimeter exposed to 25 kW/m<sup>2</sup> on March 23, 2021.
    + A _Cone_Notes.csv_ is generated for each material from the __plot_Cone_data.py__ script. For materials whose experiments deviated from typical behavior relevant pictures are included in the respective material directory.
- __Fourier Transform Infrared Spectrometer__ (FTIR)
    + The FTIR directory contains subdirectories for the Attenuated Total Reflectance method (ATR) and the Integrating Sphere (IS)
    + Data file structure for the ATR experiment files includes the material, the abbreviated name for the apparatus, date of test, and replicate number. 
        * Example: __MDF_ATR_210323_R5__ stands for the fifth replicate of data collected with the ATR accessory conducted on June 8, 2021.
    + Data file structure for the IS experiment files includes the material, the abbreviated name for the apparatus, the measurand, whether the test is a sample measurement or standard reference, date of test, and replicate number.
        * Example: __OSB_IS_REFLECT_MEAS_2

File: Hemp_Sheet_HRRPUA_25.csv
Time after Ignition,Hemp_Sheet_R1,Hemp_Sheet_R2,Hemp_Sheet_R3,Mean,Std. Dev.
0.0,21.9,34.0,20.9,25.6,7.3
0.25,32.2,40.9,26.8,33.3,7.1
0.5,40.6,46.6,33.4,40.2,6.6
0.75,48.4,57.9,37.2,47.9,10.4
1.0,56.1,68.4,42.7,55.7,12.9
1.25,63.5,76.1,53.0,64.2,11.6
1.5,70.9,85.4,62.3,72.9,11.7
1.75,80.6,96.1,70.3,82.3,13.0
2.0,88.0,108.1,78.0,91.3,15.3
2.25,95.7,115.4,88.5,99.9,14.0
2.5,101.7,123.7,98.9,108.1,13.6
2.75,112.0,128.8,106.7,115.8,11.6
3.0,120.9,136.6,114.5,124.0,11.4
3.25,129.6,147.5,124.2,133.8,12.2
3.5,133.6,154.3,130.4,139.5,13.0
3.75,141.9,160.7,138.0,146.9,12.1
4.0,146.9,170.7,148.1,155.2,13.4
4.25,150.7,173.9,154.1,159.6,12.6
4.5,156.9,180.0,162.3,166.4,12.1
4.75,163.5,187.8,165.6,172.3,13.5
5.0,169.7,194.1,172.2,178.7,13.4
5.25,175.4,194.1,180.3,183.3,9.7
5.5,178.5,197.9,184.9,187.1,9.9
5.75,179.8,201.9,192.6,191.4,11.1
6.0,183.3,204.6,189.9,192.6,10.9
6.25,188.0,209.1,195.0,197.4,10.8
6.5,190.6,213.0,196.9,200.2,11.5
6.75,192.8,214.7,199.4,202.3,11.3
7.0,193.6,215.8,203.0,204.1,11.2
7.25,197.5,216.2,201.7,205.1,9.8
7.5,197.8,218.8,208.0,208.2,10.5
7.75,199.7,220.9,213.0,211.2,10.7
8.0,200.4,226.5,208.7,211.8,13.3
8.25,201.2,221.4,211.0,211.2,10.1
8.5,200.0,221.0,208.2,209.7,10.6
8.75,202.0,223.0,207.8,210.9,10.8
9.0,199.9,217.2,205.8,207.6,8.8
9.25,198.4,218.4,201.7,206.2,10.7
9.5,192.9,211.9,194.9,199.9,10.5
9.75,192.1,209.9,194.6,198.9,9.7
10.0,189.8,207.6,190.1,195.8,10.2
10.25,184.4,198.1,185.9,189.5,7.5
10.5,180.7,199.8,177.4,186.0,12.1
10.75,175.6,193.2,174.1,181.0,10.6
11.0,176.0,186.3,170.2,177.5,8.2
11.25,172.4,181.1,168.6,174.0,6.4
11.5,168.3,176.7,164.1,169.7,6.4
11.75,163.3,172.5,160.4,165.4,6.3
12.0,158.5,161.3,159.3,159.7,1.4
12.25,154.6,158.7,155.1,156.1,2.3
12.5,151.7,151.9,150.6,151.4,0.7
12.75,146.3,145.0,151.1,147.5,3.2
13.0,138.9,134.6,145.8,139.7,5.7
13.25,134.8,130.5,140.5,135.3,5.0
13.5,132.7,126.1,137.6,132.1,5.8
13.75,127.3,119.0,135.4,127.2,8.2
14.0,123.5,113.5,130.7,122.6,8.6
14.25,117.1,107.9,126.8,117.3,9.4
14.5,113.2,106.3,123.6,114.4,8.7
14.75,106.9,100.4,118.4,108.6,9.1
15.0,101.7,96.0,114.2,104.0,9.3
15.25,99.0,92.1,109.4,100.2,8.7
15.5,95.1,88.1,106.3,96.5,9.2
15.75,90.4,84.1,102.5,92.3,9.3
16.0,86.9,82.2,100.1,89.7,9.3
16.25,83.2,78.8,94.8,85.6,8.3
16.5,78.1,76.3,94.0,82.8,9.7
16.75,73.9,72.3,89.8,78.7,9.7
17.0,71.1,70.1,86.1,75.8,9.0
17.25,68.0,67.3,83.5,73.0,9.2
17.5,64.9,66.2,81.1,70.7,9.0
17.75,62.8,63.1,78.2,68.0,8.8
18.0,59.9,61.5,76.4,65.9,9.1
18.25,57.9,59.3,73.8,63.7,8.8
18.5,54.7,57.9,71.3,61.3,8.8
18.75,53.5,55.4,69.3,59.4,8.6
19.0,51.8,53.8,68.6,58.1,9.2
19.25,49.1,51.8,65.3,55.4,8.7
19.5,47.8,49.8,65.8,54.4,9.8
19.75,46.2,48.7,61.1,52.0,8.0
20.0,44.7,46.9,60.7,50.8,8.7
20.25,42.7,45.7,57.9,48.7,8.1
20.5,41.0,44.0,57.6,47.5,8.8
20.75,40.1,42.2,54.9,45.7,8.0
21.0,39.1,41.1,53.6,44.6,7.9
21.25,37.1,39.8,53.7,43.5,8.9
21.5,35.7,38.8,50.4,41.6,7.8
21.75,34.9,36.8,49.5,40.4,7.9
22.0,33.5,36.4,47.9,39.3,7.6
22.25,32.6,35.2,46.0,37.9,7.1
22.5,31.9,34.2,44.4,36.9,6.7
22.75,31.0,32.8,43.6,35.8,6.8
23.0,29.6,32.3,42.4,34.8,6.7
23.25,29.3,31.0,40.4,33.6,6.0
23.5,28.4,29.9,39.1,32.5,5.8
23.75,27.9,29.4,37.9,31.7,5.4
24.0,26.9,28.6,,27.7,1.2
24.25,26.1,,,26.1,
24.5,25.6,,,25.6,
24.75,24.8,,,24.8,
25.0,24.3,,,24.3,
25.25,23.8,,,23.8,
25.5,23.1,,,23.1,
25.75,22.8,,,22.8,
26.0,22.0,,,22.0,

File: Hemp_Sheet_HRRPUA_50.csv
Time after Ignition,Hemp_Sheet_R1,Hemp_Sheet_R2,Hemp_Sheet_R3,Mean,Std. Dev.
0.0,43.8,44.5,35.0,41.1,5.3
0.25,56.0,68.7,50.3,58.3,9.4
0.5,68.4,89.2,61.7,73.1,14.3
0.75,76.9,111.1,73.7,87.2,20.7
1.0,90.6,122.6,83.1,98.8,21.0
1.25,109.1,144.2,109.2,120.9,20.2
1.5,122.4,168.2,130.9,140.5,24.4
1.75,142.4,179.0,153.1,158.1,18.8
2.0,148.9,195.3,164.2,169.5,23.7
2.25,167.4,210.2,182.0,186.5,21.7
2.5,176.6,223.9,195.6,198.7,23.8
2.75,188.3,230.1,207.0,208.5,21.0
3.0,201.5,243.8,217.0,220.8,21.4
3.25,205.9,253.2,233.5,230.8,23.8
3.5,222.2,257.2,242.5,240.6,17.5
3.75,221.3,268.3,249.9,246.5,23.7
4.0,233.7,277.2,259.1,256.7,21.9
4.25,242.8,286.9,264.6,264.8,22.1
4.5,250.5,300.7,269.9,273.7,25.3
4.75,260.2,301.9,280.9,281.0,20.8
5.0,262.5,301.8,283.4,282.6,19.7
5.25,276.0,302.0,284.8,287.6,13.2
5.5,273.8,308.2,291.4,291.1,17.2
5.75,270.9,309.4,283.2,287.8,19.7
6.0,268.6,306.1,279.5,284.7,19.3
6.25,268.3,299.0,274.7,280.7,16.2
6.5,269.1,290.1,273.7,277.6,11.0
6.75,265.6,283.8,265.9,271.7,10.4
7.0,258.1,275.8,258.2,264.0,10.2
7.25,257.0,261.3,252.2,256.9,4.5
7.5,247.7,252.0,246.3,248.7,3.0
7.75,247.5,242.6,239.6,243.2,4.0
8.0,243.5,234.3,233.1,237.0,5.7
8.25,235.6,220.1,223.4,226.3,8.1
8.5,229.2,212.4,218.8,220.2,8.5
8.75,223.6,199.4,210.2,211.1,12.1
9.0,217.4,191.4,204.5,204.4,13.0
9.25,210.0,181.1,199.2,196.8,14.6
9.5,204.9,174.7,188.4,189.3,15.1
9.75,200.7,165.4,178.4,181.5,17.9
10.0,188.2,156.0,175.3,173.2,16.2
10.25,182.3,150.6,165.1,166.0,15.8
10.5,177.9,142.6,155.8,158.8,17.8
10.75,167.2,135.7,149.6,150.8,15.8
11.0,160.5,129.0,143.7,144.4,15.8
11.25,157.0,121.2,134.2,137.5,18.1
11.5,149.8,117.6,130.0,132.4,16.2
11.75,143.7,111.5,123.6,126.3,16.3
12.0,134.5,104.2,118.5,119.1,15.2
12.25,131.9,98.9,112.7,114.5,16.5
12.5,125.2,97.1,106.5,109.6,14.3
12.75,120.5,89.2,101.9,103.9,15.8
13.0,114.6,84.7,98.5,99.3,15.0
13.25,109.7,81.4,93.7,94.9,14.2
13.5,104.4,76.2,88.9,89.8,14.1
13.75,100.7,72.9,86.0,86.5,13.9
14.0,95.9,68.5,81.3,81.9,13.7
14.25,90.7,64.9,78.1,77.9,12.9
14.5,86.5,60.9,75.1,74.2,12.9
14.75,83.6,58.6,72.6,71.6,12.5
15.0,79.4,55.6,68.9,68.0,11.9
15.25,76.0,53.0,65.9,65.0,11.5
15.5,72.1,51.2,64.7,62.7,10.6
15.75,69.5,48.2,61.4,59.7,10.7
16.0,68.2,46.5,58.5,57.7,10.9
16.25,64.7,45.3,56.6,55.5,9.8
16.5,62.1,42.6,54.8,53.1,9.8
16.75,59.7,41.4,51.9,51.0,9.2
17.0,57.3,39.8,50.2,49.1,8.8
17.25,54.5,38.6,47.7,46.9,8.0
17.5,52.7,36.5,46.7,45.3,8.2
17.75,50.6,35.9,44.9,43.8,7.4
18.0,48.4,34.2,43.1,41.9,7.1
18.25,47.2,33.4,41.9,40.8,6.9

File: Hemp_Sheet_HRRPUA_75.csv
Time after Ignition,Hemp_Sheet_R1,Hemp_Sheet_R2,Hemp_Sheet_R3,Mean,Std. Dev.
0.0,71.5,116.7,107.9,98.7,24.0
0.25,79.7,127.2,131.6,112.8,28.8
0.5,113.9,144.2,151.3,136.5,19.9
0.75,140.5,154.1,175.0,156.5,17.4
1.0,166.9,165.6,185.0,172.5,10.9
1.25,183.5,180.9,194.7,186.4,7.3
1.5,213.2,196.1,208.5,205.9,8.8
1.75,218.9,207.0,223.8,216.6,8.7
2.0,234.1,218.0,232.2,228.1,8.8
2.25,258.3,228.4,237.9,241.5,15.3
2.5,267.8,239.3,254.6,253.9,14.3
2.75,289.2,250.6,270.9,270.3,19.3
3.0,313.3,272.8,285.6,290.6,20.7
3.25,326.5,282.7,308.3,305.8,22.0
3.5,352.1,291.1,313.4,318.8,30.9
3.75,366.2,312.2,329.9,336.1,27.5
4.0,364.8,315.9,336.8,339.2,24.6
4.25,362.3,307.2,346.4,338.6,28.3
4.5,365.9,310.3,339.4,338.6,27.8
4.75,367.2,304.8,335.2,335.7,31.2
5.0,354.6,300.3,331.0,328.6,27.2
5.25,346.5,292.7,327.5,322.2,27.3
5.5,334.7,280.3,315.2,310.1,27.6
5.75,324.2,271.9,306.2,300.8,26.6
6.0,306.5,265.2,294.6,288.8,21.3
6.25,293.1,255.0,288.1,278.7,20.7
6.5,295.3,251.0,281.1,275.8,22.6
6.75,282.1,237.6,274.3,264.7,23.7
7.0,268.7,229.3,262.6,253.6,21.2
7.25,256.9,218.0,254.3,243.1,21.7
7.5,241.0,212.7,241.0,231.6,16.3
7.75,227.4,201.5,233.6,220.8,17.0
8.0,214.1,195.1,222.1,210.4,13.9
8.25,203.0,190.2,212.4,201.9,11.1
8.5,191.9,183.4,205.0,193.4,10.9
8.75,181.2,172.6,197.0,183.6,12.3
9.0,170.6,166.0,185.4,174.0,10.1
9.25,162.3,161.0,177.7,167.0,9.3
9.5,152.7,147.0,168.9,156.2,11.3
9.75,146.2,148.6,163.7,152.8,9.5
10.0,136.9,141.0,152.8,143.6,8.3
10.25,129.3,134.8,144.7,136.3,7.8
10.5,122.9,129.2,137.8,130.0,7.5
10.75,114.6,123.0,127.3,121.6,6.5
11.0,108.9,118.0,121.8,116.2,6.6
11.25,103.6,110.7,115.4,109.9,5.9
11.5,97.9,107.9,112.2,106.0,7.3
11.75,93.2,102.5,107.5,101.0,7.2
12.0,88.0,97.6,102.1,95.9,7.2
12.25,83.9,90.6,97.6,90.7,6.9
12.5,78.1,87.4,93.4,86.3,7.7
12.75,73.8,83.4,88.6,81.9,7.5
13.0,70.2,80.1,86.1,78.8,8.0
13.25,64.9,76.3,82.8,74.7,9.1
13.5,63.6,72.1,79.4,71.7,7.9
13.75,58.0,70.4,76.6,68.3,9.5
14.0,54.4,68.4,72.7,65.2,9.6
14.25,51.8,65.4,72.1,63.1,10.3
14.5,49.5,61.3,68.6,59.8,9.6
14.75,46.3,59.5,66.3,57.4,10.1
15.0,43.8,57.2,64.9,55.3,10.7
15.25,42.0,55.0,61.3,52.8,9.9
15.5,39.7,53.5,59.4,50.8,10.1
15.75,37.4,50.4,57.6,48.5,10.2