Folder: fsri_materials_database/01_Data/Nylon_Carpet_Low_Pile/FTIR/IS (part 2)

File: Nylon_Carpet_Low_Pile_IS_S_221122_R5.dpt
7497.03,0.72824
7473.89,0.71844
7450.74,0.73044
7427.6,0.72501
7404.45,0.70930
7381.31,0.72390
7358.16,0.70693
7335.02,0.70170
7311.87,0.69850
7288.73,0.66410
7265.58,0.64736
7242.44,0.62908
7219.29,0.62725
7196.15,0.62624
7173,0.63210
7149.86,0.62639
7126.71,0.61985
7103.57,0.62288
7080.42,0.61209
7057.28,0.61289
7034.13,0.62218
7010.99,0.61935
6987.84,0.63155
6964.7,0.63786
6941.55,0.63805
6918.41,0.64658
6895.26,0.65545
6872.12,0.65328
6848.97,0.65389
6825.83,0.65285
6802.68,0.65022
6779.54,0.64046
6756.39,0.62523
6733.25,0.62417
6710.1,0.62397
6686.96,0.61974
6663.82,0.60597
6640.67,0.58236
6617.53,0.56490
6594.38,0.56380
6571.24,0.56173
6548.09,0.55047
6524.95,0.53592
6501.8,0.52516
6478.66,0.53901
6455.51,0.57616
6432.37,0.59264
6409.22,0.59563
6386.08,0.57940
6362.93,0.55914
6339.79,0.56449
6316.64,0.58005
6293.5,0.58760
6270.35,0.58029
6247.21,0.57497
6224.06,0.57733
6200.92,0.58319
6177.77,0.59844
6154.63,0.61772
6131.48,0.63528
6108.34,0.63685
6085.19,0.64186
6062.05,0.63622
6038.9,0.63000
6015.76,0.63038
5992.61,0.61588
5969.47,0.60936
5946.32,0.59096
5923.18,0.55743
5900.03,0.50866
5876.89,0.46266
5853.74,0.42564
5830.6,0.40400
5807.45,0.40884
5784.31,0.42444
5761.16,0.43676
5738.02,0.43107
5714.87,0.41895
5691.73,0.42579
5668.58,0.44353
5645.44,0.46872
5622.29,0.48485
5599.15,0.49367
5576,0.49774
5552.86,0.50167
5529.71,0.50282
5506.57,0.51004
5483.42,0.51236
5460.28,0.51473
5437.13,0.51840
5413.99,0.52448
5390.84,0.53267
5367.7,0.54128
5344.55,0.54808
5321.41,0.54665
5298.26,0.54342
5275.12,0.53402
5251.97,0.52601
5228.83,0.51755
5205.68,0.51029
5182.54,0.49910
5159.39,0.48998
5136.25,0.48530
5113.1,0.48227
5089.96,0.48808
5066.81,0.49194
5043.67,0.49068
5020.52,0.48550
4997.38,0.45980
4974.23,0.41603
4951.09,0.40605
4927.94,0.40005
4904.8,0.36122
4881.65,0.30830
4858.51,0.32419
4835.36,0.40082
4812.22,0.43278
4789.07,0.42882
4765.93,0.42281
4742.78,0.40880
4719.64,0.38862
4696.49,0.36379
4673.35,0.35876
4650.2,0.35831
4627.06,0.34017
4603.92,0.31988
4580.77,0.30941
4557.63,0.31376
4534.48,0.32238
4511.34,0.33334
4488.19,0.34595
4465.05,0.34407
4441.9,0.32815
4418.76,0.29514
4395.61,0.25677
4372.47,0.20535
4349.32,0.18668
4326.18,0.22415
4303.03,0.24384
4279.89,0.22901
4256.74,0.21059
4233.6,0.21373
4210.45,0.21350
4187.31,0.21745
4164.16,0.23512
4141.02,0.25310
4117.87,0.26150
4094.73,0.26103
4071.58,0.26213
4048.44,0.24429
4025.29,0.23319
4002.15,0.24294
3979,0.26620
3955.86,0.27868
3932.71,0.28963
3909.57,0.30787
3886.42,0.31871
3863.28,0.31993
3840.13,0.32180
3816.99,0.33119
3793.84,0.34286
3770.7,0.33915
3747.55,0.33508
3724.41,0.34653
3701.26,0.33181
3678.12,0.28720
3654.97,0.27085
3631.83,0.23429
3608.68,0.20210
3585.54,0.17037
3562.39,0.14108
3539.25,0.11333
3516.1,0.09225
3492.96,0.07960
3469.81,0.07185
3446.67,0.06390
3423.52,0.05598
3400.38,0.04413
3377.23,0.03216
3354.09,0.02532
3330.94,0.02156
3307.8,0.02118
3284.65,0.02395
3261.51,0.02506
3238.36,0.02715
3215.22,0.03050
3192.07,0.03384
3168.93,0.04118
3145.78,0.04648
3122.64,0.04070
3099.49,0.03096
3076.35,0.02999
3053.2,0.03701
3030.06,0.05197
3006.91,0.05570
2983.77,0.03924
2960.62,0.02309
2937.48,0.02242
2914.33,0.02465
2891.19,0.02632
2868.04,0.02371
2844.9,0.02959
2821.75,0.05019
2798.61,0.06630
2775.46,0.08115
2752.32,0.08802
2729.17,0.09691
2706.03,0.11386
2682.88,0.12337
2659.74,0.12901
2636.59,0.13754
2613.45,0.14534
2590.3,0.15252
2567.16,0.15721
2544.02,0.15847
2520.87,0.17802
2497.73,0.18734
2474.58,0.18493
2451.44,0.20114
2428.29,0.21442
2405.15,0.21702
2382,0.21933
2358.86,0.22985
2335.71,0.22462
2312.57,0.22423
2289.42,0.22897
2266.28,0.23294
2243.13,0.24142
2219.99,0.23544
2196.84,0.21935
2173.7,0.22538
2150.55,0.22992
2127.41,0.22864
2104.26,0.23886
2081.12,0.23280
2057.97,0.23401
2034.83,0.23503
2011.68,0.24717
1988.54,0.24635
1965.39,0.24933
1942.25,0.25352
1919.1,0.25256
1895.96,0.23728
1872.81,0.24185
1849.67,0.23432
1826.52,0.21660
1803.38,0.19546
1780.23,0.16452
1757.09,0.11319
1733.94,0.06515
1710.8,0.05663
1687.65,0.02566
1664.51,0.01636
1641.36,0.03167
1618.22,0.02634
1595.07,0.02438
1571.93,0.01944
1548.78,0.02541
1525.64,0.03027
1502.49,0.02947
1479.35,0.02590
1456.2,0.02593
1433.06,0.02677
1409.91,0.03023
1386.77,0.02655
1363.62,0.02602
1340.48,0.02930
1317.33,0.02806
1294.19,0.02659
1271.04,0.02490
1247.9,0.02850
1224.75,0.03299
1201.61,0.02886
1178.46,0.03321
1155.32,0.04966
1132.17,0.06379
1109.03,0.05531
1085.88,0.06510
1062.74,0.07367
1039.59,0.07298
1016.45,0.09630
993.304,0.08805
970.159,0.07186
947.014,0.09241
923.869,0.08189
900.724,0.12513
877.579,0.12813
854.434,0.12192
831.289,0.09589
808.144,0.08811
784.999,0.05911
761.854,0.04338
738.709,0.03143
715.565,0.02595
692.42,0.02869
669.275,0.03863
646.13,0.04954
622.985,0.04387
599.84,0.04491

File: Nylon_Carpet_Low_Pile_IS_S_221122_R6.dpt
7497.03,0.73709
7473.89,0.73516
7450.74,0.72410
7427.6,0.73093
7404.45,0.71806
7381.31,0.70880
7358.16,0.71317
7335.02,0.69814
7311.87,0.67594
7288.73,0.66639
7265.58,0.65029
7242.44,0.63415
7219.29,0.62901
7196.15,0.62145
7173,0.63483
7149.86,0.62881
7126.71,0.62533
7103.57,0.61626
7080.42,0.61903
7057.28,0.61499
7034.13,0.62399
7010.99,0.62635
6987.84,0.62404
6964.7,0.63359
6941.55,0.64022
6918.41,0.64610
6895.26,0.64973
6872.12,0.64514
6848.97,0.66054
6825.83,0.65637
6802.68,0.64918
6779.54,0.63459
6756.39,0.62182
6733.25,0.62655
6710.1,0.62210
6686.96,0.61723
6663.82,0.60586
6640.67,0.58916
6617.53,0.57236
6594.38,0.56328
6571.24,0.56140
6548.09,0.55320
6524.95,0.53434
6501.8,0.52822
6478.66,0.54163
6455.51,0.57423
6432.37,0.59812
6409.22,0.59445
6386.08,0.57584
6362.93,0.56677
6339.79,0.56174
6316.64,0.57956
6293.5,0.58742
6270.35,0.58052
6247.21,0.57696
6224.06,0.57484
6200.92,0.58405
6177.77,0.59973
6154.63,0.62106
6131.48,0.63359
6108.34,0.64325
6085.19,0.64067
6062.05,0.63730
6038.9,0.63201
6015.76,0.63032
5992.61,0.62267
5969.47,0.60787
5946.32,0.59297
5923.18,0.55869
5900.03,0.50962
5876.89,0.46109
5853.74,0.42325
5830.6,0.40454
5807.45,0.40825
5784.31,0.42436
5761.16,0.43924
5738.02,0.42957
5714.87,0.41658
5691.73,0.42526
5668.58,0.44536
5645.44,0.46620
5622.29,0.48448
5599.15,0.49273
5576,0.49852
5552.86,0.50354
5529.71,0.50242
5506.57,0.51057
5483.42,0.51443
5460.28,0.51747
5437.13,0.51910
5413.99,0.52774
5390.84,0.53350
5367.7,0.54245
5344.55,0.54807
5321.41,0.54727
5298.26,0.54333
5275.12,0.53571
5251.97,0.52824
5228.83,0.52048
5205.68,0.51039
5182.54,0.50173
5159.39,0.49102
5136.25,0.48464
5113.1,0.48415
5089.96,0.48864
5066.81,0.49289
5043.67,0.49294
5020.52,0.48502
4997.38,0.46024
4974.23,0.41803
4951.09,0.40718
4927.94,0.39962
4904.8,0.36189
4881.65,0.30921
4858.51,0.32412
4835.36,0.40122
4812.22,0.43418
4789.07,0.42969
4765.93,0.42165
4742.78,0.40862
4719.64,0.38906
4696.49,0.36419
4673.35,0.35918
4650.2,0.35924
4627.06,0.34021
4603.92,0.32053
4580.77,0.30949
4557.63,0.31309
4534.48,0.32325
4511.34,0.33439
4488.19,0.34652
4465.05,0.34450
4441.9,0.32920
4418.76,0.29532
4395.61,0.25723
4372.47,0.20561
4349.32,0.18749
4326.18,0.22415
4303.03,0.24382
4279.89,0.22810
4256.74,0.21132
4233.6,0.21270
4210.45,0.21287
4187.31,0.21703
4164.16,0.23469
4141.02,0.25317
4117.87,0.26169
4094.73,0.26144
4071.58,0.26142
4048.44,0.24436
4025.29,0.23337
4002.15,0.24251
3979,0.26635
3955.86,0.27922
3932.71,0.28967
3909.57,0.30795
3886.42,0.31850
3863.28,0.32015
3840.13,0.32203
3816.99,0.33110
3793.84,0.34291
3770.7,0.33964
3747.55,0.33581
3724.41,0.34609
3701.26,0.33208
3678.12,0.28862
3654.97,0.27228
3631.83,0.23571
3608.68,0.20380
3585.54,0.17307
3562.39,0.14268
3539.25,0.11453
3516.1,0.09303
3492.96,0.08067
3469.81,0.07342
3446.67,0.06433
3423.52,0.05572
3400.38,0.04506
3377.23,0.03245
3354.09,0.02496
3330.94,0.02185
3307.8,0.02147
3284.65,0.02440
3261.51,0.02489
3238.36,0.02653
3215.22,0.03085
3192.07,0.03304
3168.93,0.04149
3145.78,0.04668
3122.64,0.04090
3099.49,0.03083
3076.35,0.02986
3053.2,0.03685
3030.06,0.05250
3006.91,0.05479
2983.77,0.03955
2960.62,0.02279
2937.48,0.02221
2914.33,0.02481
2891.19,0.02602
2868.04,0.02440
2844.9,0.03011
2821.75,0.04960
2798.61,0.06643
2775.46,0.08141
2752.32,0.08799
2729.17,0.09720
2706.03,0.11437
2682.88,0.12380
2659.74,0.12897
2636.59,0.13736
2613.45,0.14537
2590.3,0.15216
2567.16,0.15769
2544.02,0.15940
2520.87,0.17843
2497.73,0.18734
2474.58,0.18508
2451.44,0.20143
2428.29,0.21440
2405.15,0.21719
2382,0.21854
2358.86,0.22045
2335.71,0.21784
2312.57,0.22212
2289.42,0.22898
2266.28,0.23335
2243.13,0.24257
2219.99,0.23610
2196.84,0.22010
2173.7,0.22579
2150.55,0.23049
2127.41,0.22887
2104.26,0.23902
2081.12,0.23296
2057.97,0.23412
2034.83,0.23532
2011.68,0.24737
1988.54,0.24668
1965.39,0.24999
1942.25,0.25399
1919.1,0.25284
1895.96,0.23772
1872.81,0.24238
1849.67,0.23491
1826.52,0.21713
1803.38,0.19545
1780.23,0.16447
1757.09,0.11308
1733.94,0.06549
1710.8,0.05660
1687.65,0.02534
1664.51,0.01638
1641.36,0.03211
1618.22,0.02663
1595.07,0.02445
1571.93,0.01950
1548.78,0.02573
1525.64,0.02998
1502.49,0.02959
1479.35,0.02615
1456.2,0.02609
1433.06,0.02647
1409.91,0.03045
1386.77,0.02686
1363.62,0.02640
1340.48,0.02959
1317.33,0.02820
1294.19,0.02651
1271.04,0.02492
1247.9,0.02835
1224.75,0.03295
1201.61,0.02918
1178.46,0.03286
1155.32,0.04951
1132.17,0.06419
1109.03,0.05521
1085.88,0.06523
1062.74,0.07379
1039.59,0.07289
1016.45,0.09622
993.304,0.08882
970.159,0.07180
947.014,0.09238
923.869,0.08115
900.724,0.12439
877.579,0.12806
854.434,0.12240
831.289,0.09466
808.144,0.08851
784.999,0.05926
761.854,0.04361
738.709,0.03001
715.565,0.02604
692.42,0.02762
669.275,0.03681
646.13,0.04935
622.985,0.04442
599.84,0.04414

File: Nylon_Carpet_Low_Pile_IS_S_221122_R7.dpt
7497.03,0.71683
7473.89,0.72871
7450.74,0.71536
7427.6,0.72134
7404.45,0.72440
7381.31,0.72221
7358.16,0.70390
7335.02,0.69416
7311.87,0.68532
7288.73,0.66886
7265.58,0.65166
7242.44,0.64181
7219.29,0.62157
7196.15,0.61972
7173,0.62072
7149.86,0.63185
7126.71,0.62243
7103.57,0.62336
7080.42,0.61288
7057.28,0.61716
7034.13,0.62927
7010.99,0.62066
6987.84,0.63565
6964.7,0.63825
6941.55,0.64349
6918.41,0.64293
6895.26,0.64607
6872.12,0.65301
6848.97,0.65527
6825.83,0.65680
6802.68,0.65398
6779.54,0.64280
6756.39,0.62915
6733.25,0.62435
6710.1,0.61526
6686.96,0.61277
6663.82,0.60385
6640.67,0.58484
6617.53,0.56756
6594.38,0.56469
6571.24,0.56280
6548.09,0.54754
6524.95,0.53017
6501.8,0.52884
6478.66,0.53560
6455.51,0.57754
6432.37,0.59684
6409.22,0.59446
6386.08,0.57995
6362.93,0.56545
6339.79,0.56434
6316.64,0.57935
6293.5,0.58800
6270.35,0.58303
6247.21,0.57201
6224.06,0.57685
6200.92,0.58909
6177.77,0.59883
6154.63,0.61621
6131.48,0.63324
6108.34,0.63908
6085.19,0.63748
6062.05,0.63871
6038.9,0.63338
6015.76,0.62680
5992.61,0.61974
5969.47,0.60743
5946.32,0.58687
5923.18,0.56048
5900.03,0.51002
5876.89,0.45910
5853.74,0.42171
5830.6,0.40521
5807.45,0.40770
5784.31,0.42335
5761.16,0.43608
5738.02,0.42868
5714.87,0.41842
5691.73,0.42508
5668.58,0.44514
5645.44,0.46705
5622.29,0.48630
5599.15,0.49193
5576,0.49631
5552.86,0.49910
5529.71,0.50292
5506.57,0.50922
5483.42,0.51249
5460.28,0.51512
5437.13,0.52121
5413.99,0.52713
5390.84,0.53307
5367.7,0.54247
5344.55,0.54509
5321.41,0.54737
5298.26,0.54182
5275.12,0.53368
5251.97,0.52702
5228.83,0.52008
5205.68,0.51032
5182.54,0.50111
5159.39,0.49013
5136.25,0.48396
5113.1,0.48386
5089.96,0.48972
5066.81,0.49287
5043.67,0.49381
5020.52,0.48556
4997.38,0.45883
4974.23,0.41692
4951.09,0.40545
4927.94,0.39934
4904.8,0.36054
4881.65,0.30721
4858.51,0.32395
4835.36,0.39993
4812.22,0.43420
4789.07,0.42937
4765.93,0.42206
4742.78,0.40741
4719.64,0.38820
4696.49,0.36278
4673.35,0.35841
4650.2,0.35822
4627.06,0.33851
4603.92,0.31961
4580.77,0.30961
4557.63,0.31411
4534.48,0.32224
4511.34,0.33414
4488.19,0.34502
4465.05,0.34363
4441.9,0.32828
4418.76,0.29470
4395.61,0.25648
4372.47,0.20585
4349.32,0.18727
4326.18,0.22328
4303.03,0.24426
4279.89,0.22872
4256.74,0.21026
4233.6,0.21472
4210.45,0.21330
4187.31,0.21673
4164.16,0.23459
4141.02,0.25310
4117.87,0.26100
4094.73,0.26090
4071.58,0.26134
4048.44,0.24347
4025.29,0.23292
4002.15,0.24220
3979,0.26628
3955.86,0.27791
3932.71,0.28925
3909.57,0.30735
3886.42,0.31775
3863.28,0.31952
3840.13,0.32140
3816.99,0.33078
3793.84,0.34245
3770.7,0.33820
3747.55,0.33467
3724.41,0.34628
3701.26,0.33205
3678.12,0.28836
3654.97,0.27188
3631.83,0.23536
3608.68,0.20398
3585.54,0.17261
3562.39,0.14250
3539.25,0.11498
3516.1,0.09380
3492.96,0.08100
3469.81,0.07358
3446.67,0.06474
3423.52,0.05627
3400.38,0.04453
3377.23,0.03280
3354.09,0.02446
3330.94,0.02172
3307.8,0.02208
3284.65,0.02348
3261.51,0.02505
3238.36,0.02724
3215.22,0.03046
3192.07,0.03380
3168.93,0.04182
3145.78,0.04702
3122.64,0.04103
3099.49,0.03124
3076.35,0.03004
3053.2,0.03687
3030.06,0.05209
3006.91,0.05492
2983.77,0.03949
2960.62,0.02282
2937.48,0.02245
2914.33,0.02432
2891.19,0.02598
2868.04,0.02488
2844.9,0.02995
2821.75,0.04981
2798.61,0.06640
2775.46,0.08072
2752.32,0.08776
2729.17,0.09739
2706.03,0.11393
2682.88,0.12335
2659.74,0.12881
2636.59,0.13712
2613.45,0.14485
2590.3,0.15188
2567.16,0.15670
2544.02,0.15897
2520.87,0.17772
2497.73,0.18743
2474.58,0.18493
2451.44,0.20096
2428.29,0.21415
2405.15,0.21720
2382,0.21892
2358.86,0.22504
2335.71,0.22122
2312.57,0.22283
2289.42,0.22874
2266.28,0.23311
2243.13,0.24210
2219.99,0.23561
2196.84,0.21945
2173.7,0.22566
2150.55,0.23024
2127.41,0.22851
2104.26,0.23884
2081.12,0.23309
2057.97,0.23387
2034.83,0.23479
2011.68,0.24682
1988.54,0.24656
1965.39,0.24935
1942.25,0.25327
1919.1,0.25245
1895.96,0.23726
1872.81,0.24156
1849.67,0.23435
1826.52,0.21643
1803.38,0.19523
1780.23,0.16435
1757.09,0.11272
1733.94,0.06535
1710.8,0.05681
1687.65,0.02575
1664.51,0.01604
1641.36,0.03210
1618.22,0.02628
1595.07,0.02436
1571.93,0.01942
1548.78,0.02534
1525.64,0.03047
1502.49,0.02964
1479.35,0.02617
1456.2,0.02590
1433.06,0.02657
1409.91,0.03003
1386.77,0.02636
1363.62,0.02620
1340.48,0.02937
1317.33,0.02838
1294.19,0.02693
1271.04,0.02471
1247.9,0.02832
1224.75,0.03310
1201.61,0.02916
1178.46,0.03314
1155.32,0.04977
1132.17,0.06362
1109.03,0.05519
1085.88,0.06512
1062.74,0.07378
1039.59,0.07253
1016.45,0.09567
993.304,0.08833
970.159,0.07224
947.014,0.09260
923.869,0.08137
900.724,0.12488
877.579,0.12773
854.434,0.12268
831.289,0.09484
808.144,0.08791
784.999,0.05796
761.854,0.04406
738.709,0.03089
715.565,0.02551
692.42,0.02792
669.275,0.03701
646.13,0.04954
622.985,0.04481
599.84,0.04407

File: Nylon_Carpet_Low_Pile_IS_S_221122_R8.dpt
7497.03,0.73798
7473.89,0.73152
7450.74,0.71989
7427.6,0.71815
7404.45,0.71926
7381.31,0.71102
7358.16,0.71464
7335.02,0.68855
7311.87,0.68930
7288.73,0.66882
7265.58,0.64609
7242.44,0.64212
7219.29,0.62282
7196.15,0.62536
7173,0.63412
7149.86,0.62113
7126.71,0.61651
7103.57,0.62518
7080.42,0.61372
7057.28,0.61813
7034.13,0.62570
7010.99,0.62132
6987.84,0.63368
6964.7,0.64177
6941.55,0.64072
6918.41,0.65138
6895.26,0.65414
6872.12,0.64951
6848.97,0.64855
6825.83,0.65449
6802.68,0.65080
6779.54,0.63497
6756.39,0.62624
6733.25,0.62310
6710.1,0.62155
6686.96,0.61689
6663.82,0.59920
6640.67,0.58876
6617.53,0.56259
6594.38,0.56339
6571.24,0.56225
6548.09,0.54863
6524.95,0.53477
6501.8,0.52564
6478.66,0.53768
6455.51,0.57620
6432.37,0.59712
6409.22,0.59477
6386.08,0.58170
6362.93,0.56319
6339.79,0.56248
6316.64,0.57871
6293.5,0.58702
6270.35,0.58154
6247.21,0.57519
6224.06,0.58061
6200.92,0.58569
6177.77,0.59668
6154.63,0.61746
6131.48,0.63509
6108.34,0.63725
6085.19,0.64299
6062.05,0.63694
6038.9,0.63211
6015.76,0.63229
5992.61,0.61870
5969.47,0.60751
5946.32,0.58989
5923.18,0.56055
5900.03,0.51068
5876.89,0.46309
5853.74,0.42218
5830.6,0.40594
5807.45,0.40643
5784.31,0.42518
5761.16,0.43831
5738.02,0.43096
5714.87,0.41807
5691.73,0.42554
5668.58,0.44322
5645.44,0.46928
5622.29,0.48644
5599.15,0.49302
5576,0.49771
5552.86,0.50189
5529.71,0.50286
5506.57,0.51309
5483.42,0.51446
5460.28,0.51625
5437.13,0.52135
5413.99,0.52676
5390.84,0.53449
5367.7,0.54258
5344.55,0.54642
5321.41,0.54784
5298.26,0.54404
5275.12,0.53481
5251.97,0.52830
5228.83,0.52194
5205.68,0.51080
5182.54,0.50014
5159.39,0.49112
5136.25,0.48481
5113.1,0.48402
5089.96,0.49016
5066.81,0.49251
5043.67,0.49438
5020.52,0.48534
4997.38,0.45933
4974.23,0.41719
4951.09,0.40632
4927.94,0.40107
4904.8,0.36253
4881.65,0.30766
4858.51,0.32423
4835.36,0.40059
4812.22,0.43362
4789.07,0.43088
4765.93,0.42259
4742.78,0.40929
4719.64,0.38965
4696.49,0.36418
4673.35,0.35867
4650.2,0.35821
4627.06,0.33968
4603.92,0.32021
4580.77,0.30942
4557.63,0.31353
4534.48,0.32322
4511.34,0.33373
4488.19,0.34612
4465.05,0.34513
4441.9,0.32927
4418.76,0.29564
4395.61,0.25668
4372.47,0.20498
4349.32,0.18714
4326.18,0.22406
4303.03,0.24359
4279.89,0.22846
4256.74,0.21153
4233.6,0.21448
4210.45,0.21305
4187.31,0.21665
4164.16,0.23456
4141.02,0.25229
4117.87,0.26246
4094.73,0.26156
4071.58,0.26134
4048.44,0.24347
4025.29,0.23298
4002.15,0.24256
3979,0.26589
3955.86,0.27868
3932.71,0.28947
3909.57,0.30788
3886.42,0.31813
3863.28,0.31964
3840.13,0.32184
3816.99,0.33084
3793.84,0.34275
3770.7,0.33890
3747.55,0.33528
3724.41,0.34651
3701.26,0.33205
3678.12,0.28953
3654.97,0.27255
3631.83,0.23654
3608.68,0.20529
3585.54,0.17451
3562.39,0.14397
3539.25,0.11690
3516.1,0.09417
3492.96,0.08128
3469.81,0.07411
3446.67,0.06467
3423.52,0.05635
3400.38,0.04494
3377.23,0.03213
3354.09,0.02458
3330.94,0.02152
3307.8,0.02129
3284.65,0.02398
3261.51,0.02457
3238.36,0.02638
3215.22,0.02953
3192.07,0.03391
3168.93,0.04153
3145.78,0.04685
3122.64,0.04135
3099.49,0.03047
3076.35,0.03030
3053.2,0.03681
3030.06,0.05187
3006.91,0.05562
2983.77,0.03961
2960.62,0.02294
2937.48,0.02225
2914.33,0.02441
2891.19,0.02600
2868.04,0.02394
2844.9,0.03001
2821.75,0.04985
2798.61,0.06650
2775.46,0.08104
2752.32,0.08796
2729.17,0.09670
2706.03,0.11426
2682.88,0.12353
2659.74,0.12921
2636.59,0.13707
2613.45,0.14516
2590.3,0.15221
2567.16,0.15762
2544.02,0.15862
2520.87,0.17829
2497.73,0.18753
2474.58,0.18487
2451.44,0.20122
2428.29,0.21463
2405.15,0.21729
2382,0.21862
2358.86,0.22411
2335.71,0.22096
2312.57,0.22346
2289.42,0.22891
2266.28,0.23376
2243.13,0.24257
2219.99,0.23603
2196.84,0.22032
2173.7,0.22600
2150.55,0.23078
2127.41,0.22932
2104.26,0.23940
2081.12,0.23333
2057.97,0.23429
2034.83,0.23542
2011.68,0.24763
1988.54,0.24683
1965.39,0.24957
1942.25,0.25397
1919.1,0.25294
1895.96,0.23771
1872.81,0.24191
1849.67,0.23475
1826.52,0.21692
1803.38,0.19562
1780.23,0.16461
1757.09,0.11296
1733.94,0.06525
1710.8,0.05679
1687.65,0.02523
1664.51,0.01652
1641.36,0.03183
1618.22,0.02676
1595.07,0.02436
1571.93,0.01967
1548.78,0.02551
1525.64,0.03012
1502.49,0.03021
1479.35,0.02608
1456.2,0.02621
1433.06,0.02680
1409.91,0.03026
1386.77,0.02650
1363.62,0.02602
1340.48,0.02915
1317.33,0.02814
1294.19,0.02657
1271.04,0.02475
1247.9,0.02821
1224.75,0.03312
1201.61,0.02911
1178.46,0.03313
1155.32,0.04987
1132.17,0.06379
1109.03,0.05539
1085.88,0.06510
1062.74,0.07383
1039.59,0.07327
1016.45,0.09613
993.304,0.08790
970.159,0.07213
947.014,0.09345
923.869,0.08131
900.724,0.12540
877.579,0.12870
854.434,0.12243
831.289,0.09520
808.144,0.08819
784.999,0.05814
761.854,0.04365
738.709,0.03157
715.565,0.02682
692.42,0.02826
669.275,0.03550
646.13,0.04848
622.985,0.04410
599.84,0.04501

File: Nylon_Carpet_Low_Pile_IS_S_221122_R9.dpt
7497.03,0.72431
7473.89,0.72367
7450.74,0.70765
7427.6,0.72788
7404.45,0.71427
7381.31,0.72516
7358.16,0.71338
7335.02,0.69416
7311.87,0.68968
7288.73,0.67675
7265.58,0.64435
7242.44,0.63711
7219.29,0.62377
7196.15,0.62833
7173,0.63252
7149.86,0.63346
7126.71,0.61953
7103.57,0.61362
7080.42,0.61428
7057.28,0.62161
7034.13,0.62136
7010.99,0.62269
6987.84,0.63288
6964.7,0.63458
6941.55,0.64218
6918.41,0.64310
6895.26,0.64945
6872.12,0.64741
6848.97,0.64948
6825.83,0.65795
6802.68,0.65941
6779.54,0.64060
6756.39,0.63034
6733.25,0.62610
6710.1,0.61906
6686.96,0.61530
6663.82,0.60338
6640.67,0.58730
6617.53,0.57024
6594.38,0.56745
6571.24,0.56049
6548.09,0.55404
6524.95,0.53365
6501.8,0.52856
6478.66,0.53775
6455.51,0.57326
6432.37,0.59948
6409.22,0.59575
6386.08,0.58071
6362.93,0.56363
6339.79,0.56339
6316.64,0.57660
6293.5,0.58849
6270.35,0.57589
6247.21,0.57085
6224.06,0.57657
6200.92,0.58742
6177.77,0.59996
6154.63,0.61993
6131.48,0.63235
6108.34,0.63786
6085.19,0.64093
6062.05,0.63475
6038.9,0.63292
6015.76,0.62703
5992.61,0.61675
5969.47,0.60479
5946.32,0.59275
5923.18,0.56159
5900.03,0.50890
5876.89,0.46103
5853.74,0.42305
5830.6,0.40467
5807.45,0.40758
5784.31,0.42394
5761.16,0.43600
5738.02,0.43082
5714.87,0.41592
5691.73,0.42475
5668.58,0.44417
5645.44,0.46921
5622.29,0.48506
5599.15,0.49569
5576,0.49753
5552.86,0.50235
5529.71,0.50416
5506.57,0.50864
5483.42,0.51352
5460.28,0.51516
5437.13,0.51978
5413.99,0.52805
5390.84,0.53187
5367.7,0.54193
5344.55,0.54727
5321.41,0.54575
5298.26,0.54224
5275.12,0.53388
5251.97,0.52853
5228.83,0.52021
5205.68,0.51068
5182.54,0.50081
5159.39,0.49105
5136.25,0.48554
5113.1,0.48449
5089.96,0.49093
5066.81,0.49365
5043.67,0.49471
5020.52,0.48572
4997.38,0.46065
4974.23,0.41641
4951.09,0.40659
4927.94,0.39984
4904.8,0.36092
4881.65,0.30684
4858.51,0.32381
4835.36,0.39909
4812.22,0.43457
4789.07,0.42960
4765.93,0.42180
4742.78,0.40843
4719.64,0.38910
4696.49,0.36195
4673.35,0.35862
4650.2,0.35800
4627.06,0.34047
4603.92,0.32027
4580.77,0.30974
4557.63,0.31343
4534.48,0.32319
4511.34,0.33390
4488.19,0.34637
4465.05,0.34417
4441.9,0.32915
4418.76,0.29646
4395.61,0.25672
4372.47,0.20551
4349.32,0.18698
4326.18,0.22454
4303.03,0.24390
4279.89,0.22804
4256.74,0.21125
4233.6,0.21385
4210.45,0.21424
4187.31,0.21716
4164.16,0.23450
4141.02,0.25287
4117.87,0.26181
4094.73,0.26197
4071.58,0.26048
4048.44,0.24423
4025.29,0.23250
4002.15,0.24302
3979,0.26601
3955.86,0.27906
3932.71,0.28917
3909.57,0.30779
3886.42,0.31844
3863.28,0.32059
3840.13,0.32201
3816.99,0.33114
3793.84,0.34234
3770.7,0.33906
3747.55,0.33475
3724.41,0.34733
3701.26,0.33214
3678.12,0.28949
3654.97,0.27398
3631.83,0.23762
3608.68,0.20574
3585.54,0.17569
3562.39,0.14512
3539.25,0.11686
3516.1,0.09527
3492.96,0.08263
3469.81,0.07492
3446.67,0.06643
3423.52,0.05813
3400.38,0.04490
3377.23,0.03238
3354.09,0.02484
3330.94,0.02188
3307.8,0.02223
3284.65,0.02438
3261.51,0.02518
3238.36,0.02783
3215.22,0.03082
3192.07,0.03328
3168.93,0.04177
3145.78,0.04672
3122.64,0.04063
3099.49,0.03092
3076.35,0.03013
3053.2,0.03666
3030.06,0.05234
3006.91,0.05515
2983.77,0.03936
2960.62,0.02309
2937.48,0.02263
2914.33,0.02494
2891.19,0.02603
2868.04,0.02377
2844.9,0.03010
2821.75,0.05009
2798.61,0.06637
2775.46,0.08127
2752.32,0.08795
2729.17,0.09706
2706.03,0.11398
2682.88,0.12358
2659.74,0.12896
2636.59,0.13705
2613.45,0.14505
2590.3,0.15194
2567.16,0.15738
2544.02,0.15915
2520.87,0.17779
2497.73,0.18739
2474.58,0.18503
2451.44,0.20059
2428.29,0.21440
2405.15,0.21735
2382,0.21872
2358.86,0.22528
2335.71,0.22228
2312.57,0.22349
2289.42,0.22899
2266.28,0.23357
2243.13,0.24260
2219.99,0.23633
2196.84,0.22013
2173.7,0.22582
2150.55,0.23099
2127.41,0.22942
2104.26,0.23940
2081.12,0.23339
2057.97,0.23426
2034.83,0.23544
2011.68,0.24762
1988.54,0.24696
1965.39,0.24983
1942.25,0.25404
1919.1,0.25302
1895.96,0.23762
1872.81,0.24231
1849.67,0.23472
1826.52,0.21675
1803.38,0.19533
1780.23,0.16454
1757.09,0.11280
1733.94,0.06518
1710.8,0.05674
1687.65,0.02549
1664.51,0.01596
1641.36,0.03160
1618.22,0.02657
1595.07,0.02419
1571.93,0.01957
1548.78,0.02551
1525.64,0.03009
1502.49,0.02986
1479.35,0.02605
1456.2,0.02626
1433.06,0.02660
1409.91,0.02992
1386.77,0.02659
1363.62,0.02664
1340.48,0.02941
1317.33,0.02805
1294.19,0.02645
1271.04,0.02483
1247.9,0.02847
1224.75,0.03309
1201.61,0.02885
1178.46,0.03282
1155.32,0.04973
1132.17,0.06418
1109.03,0.05559
1085.88,0.06549
1062.74,0.07408
1039.59,0.07241
1016.45,0.09541
993.304,0.08850
970.159,0.07208
947.014,0.09325
923.869,0.08149
900.724,0.12478
877.579,0.12864
854.434,0.12274
831.289,0.09532
808.144,0.08855
784.999,0.05898
761.854,0.04331
738.709,0.03043
715.565,0.02654
692.42,0.02877
669.275,0.03734
646.13,0.04808
622.985,0.04600
599.84,0.04667