Folder: fsri_materials_database/01_Data/Nylon_Carpet_Low_Pile/FTIR/IS

Note: README.md
# Materials and Products Database
### Repository of materials and products properties and fire test data to improve fire modeling and fire investigation.

This project was supported in part by Award No. 2019-DU-BX-0018, awarded by the National Institute of Justice, Office of Justice Programs, U.S. Department of Justice. The opinions, findings, and conclusions or recommendations expressed in this publication / program / exhibition are those of the author(s) and do not necessarily reflect those of the Department of Justice.

***
***

__Cite this database:__ "McKinnon, M., Weinschenk, C., Dow, N., DiDomizio, M., and Madrzykowski, D. Materials and Products Database (Version 1.0.0), Fire Safety Research Institute, UL Research Institutes. Columbia, MD 21045, 2023."

__Cite the Technical Reference Guide:__ "McKinnon, M., Weinschenk, C., and Madrzykowski, D. Materials and Products Database - Technical Reference Guide, Fire Safety Research Institute, UL Research Institutes. Columbia, MD 21045, 2023."

__Cite the User Guide:__ "McKinnon, M., and Weinschenk, C. Materials and Products Database - User Guide, Fire Safety Research Institute, UL Research Institutes. Columbia, MD 21045, 2023."

***
***

## Database Structure

## 01_Data/
Raw data generated from each apparatus are included here in plain-text format. The data is organized first by material, next by the short name of test apparatus used, and where applicable additional filtering by test settings.

### Test Apparatus and Data File Structure
- __Cone Calorimeter__ (Cone)
    + Data file structure includes the material, the short name for the apparatus, heat flux setting and scan/scalar, date of test, and replicate number. Scan is for the raw output data and scalar is for the initial conditions and high-level test parameters. 
        * Example: __MDF_Cone_HF25scalar_210323_R1__ stands for the first replicate of scalar data generated from a medium density fiber board test in cone calorimeter exposed to 25 kW/m<sup>2</sup> on March 23, 2021.
    + A _Cone_Notes.csv_ is generated for each material from the __plot_Cone_data.py__ script. For materials whose experiments deviated from typical behavior relevant pictures are included in the respective material directory.
- __Fourier Transform Infrared Spectrometer__ (FTIR)
    + The FTIR directory contains subdirectories for the Attenuated Total Reflectance method (ATR) and the Integrating Sphere (IS)
    + Data file structure for the ATR experiment files includes the material, the abbreviated name for the apparatus, date of test, and replicate number. 
        * Example: __MDF_ATR_210323_R5__ stands for the fifth replicate of data collected with the ATR accessory conducted on June 8, 2021.
    + Data file structure for the IS experiment files includes the material, the abbreviated name for the apparatus, the measurand, whether the test is a sample measurement or standard reference, date of test, and replicate number.
        * Example: __OSB_IS_REFLECT_MEAS_2

File: Nylon_Carpet_Low_Pile_IS_S_221122_R1.dpt
7497.03,0.71852
7473.89,0.71645
7450.74,0.71248
7427.6,0.71982
7404.45,0.71156
7381.31,0.71344
7358.16,0.71429
7335.02,0.70896
7311.87,0.69024
7288.73,0.65805
7265.58,0.65072
7242.44,0.63057
7219.29,0.62084
7196.15,0.63070
7173,0.62757
7149.86,0.62455
7126.71,0.62059
7103.57,0.61782
7080.42,0.60736
7057.28,0.61955
7034.13,0.62791
7010.99,0.61988
6987.84,0.62547
6964.7,0.63250
6941.55,0.63131
6918.41,0.64649
6895.26,0.64387
6872.12,0.64599
6848.97,0.64909
6825.83,0.65530
6802.68,0.64954
6779.54,0.63658
6756.39,0.62187
6733.25,0.62638
6710.1,0.61990
6686.96,0.60787
6663.82,0.60056
6640.67,0.58491
6617.53,0.56811
6594.38,0.56358
6571.24,0.56046
6548.09,0.54732
6524.95,0.53314
6501.8,0.52736
6478.66,0.53949
6455.51,0.56855
6432.37,0.59766
6409.22,0.58730
6386.08,0.58095
6362.93,0.55829
6339.79,0.55938
6316.64,0.57454
6293.5,0.58544
6270.35,0.57731
6247.21,0.56874
6224.06,0.57441
6200.92,0.58357
6177.77,0.59777
6154.63,0.61659
6131.48,0.63105
6108.34,0.64067
6085.19,0.63862
6062.05,0.63760
6038.9,0.63214
6015.76,0.62290
5992.61,0.61596
5969.47,0.60571
5946.32,0.59146
5923.18,0.55939
5900.03,0.50822
5876.89,0.45979
5853.74,0.41956
5830.6,0.40236
5807.45,0.40470
5784.31,0.42283
5761.16,0.43471
5738.02,0.43128
5714.87,0.41683
5691.73,0.42342
5668.58,0.44510
5645.44,0.46463
5622.29,0.48590
5599.15,0.49037
5576,0.49655
5552.86,0.49933
5529.71,0.50378
5506.57,0.50791
5483.42,0.51100
5460.28,0.51335
5437.13,0.51739
5413.99,0.52414
5390.84,0.53149
5367.7,0.54054
5344.55,0.54360
5321.41,0.54335
5298.26,0.53995
5275.12,0.52855
5251.97,0.52118
5228.83,0.51266
5205.68,0.50332
5182.54,0.49250
5159.39,0.48233
5136.25,0.47540
5113.1,0.47564
5089.96,0.48199
5066.81,0.48780
5043.67,0.48789
5020.52,0.48152
4997.38,0.45777
4974.23,0.41471
4951.09,0.40288
4927.94,0.39782
4904.8,0.36019
4881.65,0.30731
4858.51,0.32241
4835.36,0.39933
4812.22,0.43204
4789.07,0.42808
4765.93,0.42115
4742.78,0.40764
4719.64,0.38769
4696.49,0.36222
4673.35,0.35714
4650.2,0.35759
4627.06,0.33876
4603.92,0.31908
4580.77,0.30863
4557.63,0.31241
4534.48,0.32144
4511.34,0.33284
4488.19,0.34512
4465.05,0.34337
4441.9,0.32814
4418.76,0.29504
4395.61,0.25624
4372.47,0.20509
4349.32,0.18695
4326.18,0.22379
4303.03,0.24356
4279.89,0.22848
4256.74,0.21044
4233.6,0.21361
4210.45,0.21270
4187.31,0.21666
4164.16,0.23402
4141.02,0.25241
4117.87,0.26147
4094.73,0.26081
4071.58,0.26019
4048.44,0.24295
4025.29,0.23222
4002.15,0.24175
3979,0.26596
3955.86,0.27837
3932.71,0.28810
3909.57,0.30666
3886.42,0.31588
3863.28,0.31720
3840.13,0.31799
3816.99,0.32774
3793.84,0.34042
3770.7,0.33576
3747.55,0.32954
3724.41,0.34074
3701.26,0.32699
3678.12,0.27829
3654.97,0.26038
3631.83,0.22319
3608.68,0.18946
3585.54,0.15877
3562.39,0.12890
3539.25,0.10394
3516.1,0.08331
3492.96,0.07222
3469.81,0.06562
3446.67,0.05842
3423.52,0.05224
3400.38,0.04234
3377.23,0.03176
3354.09,0.02458
3330.94,0.02232
3307.8,0.02175
3284.65,0.02391
3261.51,0.02504
3238.36,0.02681
3215.22,0.02926
3192.07,0.03304
3168.93,0.04108
3145.78,0.04542
3122.64,0.04016
3099.49,0.03106
3076.35,0.02978
3053.2,0.03596
3030.06,0.05129
3006.91,0.05448
2983.77,0.03935
2960.62,0.02310
2937.48,0.02267
2914.33,0.02476
2891.19,0.02613
2868.04,0.02380
2844.9,0.02974
2821.75,0.04931
2798.61,0.06631
2775.46,0.08075
2752.32,0.08796
2729.17,0.09708
2706.03,0.11343
2682.88,0.12290
2659.74,0.12852
2636.59,0.13688
2613.45,0.14452
2590.3,0.15122
2567.16,0.15706
2544.02,0.15853
2520.87,0.17747
2497.73,0.18584
2474.58,0.18428
2451.44,0.19992
2428.29,0.21365
2405.15,0.21648
2382,0.21715
2358.86,0.21630
2335.71,0.21446
2312.57,0.21934
2289.42,0.22690
2266.28,0.23112
2243.13,0.24001
2219.99,0.23268
2196.84,0.21703
2173.7,0.22250
2150.55,0.22689
2127.41,0.22563
2104.26,0.23606
2081.12,0.23042
2057.97,0.23178
2034.83,0.23319
2011.68,0.24521
1988.54,0.24439
1965.39,0.24775
1942.25,0.25222
1919.1,0.25074
1895.96,0.23615
1872.81,0.24059
1849.67,0.23318
1826.52,0.21494
1803.38,0.19390
1780.23,0.16343
1757.09,0.11195
1733.94,0.06513
1710.8,0.05664
1687.65,0.02538
1664.51,0.01616
1641.36,0.03146
1618.22,0.02640
1595.07,0.02400
1571.93,0.01954
1548.78,0.02549
1525.64,0.03016
1502.49,0.02929
1479.35,0.02648
1456.2,0.02586
1433.06,0.02660
1409.91,0.03034
1386.77,0.02628
1363.62,0.02606
1340.48,0.02944
1317.33,0.02803
1294.19,0.02630
1271.04,0.02522
1247.9,0.02840
1224.75,0.03377
1201.61,0.02930
1178.46,0.03247
1155.32,0.04948
1132.17,0.06356
1109.03,0.05492
1085.88,0.06500
1062.74,0.07368
1039.59,0.07246
1016.45,0.09517
993.304,0.08769
970.159,0.07146
947.014,0.09241
923.869,0.08087
900.724,0.12370
877.579,0.12773
854.434,0.12084
831.289,0.09372
808.144,0.08653
784.999,0.05835
761.854,0.04313
738.709,0.03097
715.565,0.02550
692.42,0.02845
669.275,0.03587
646.13,0.04885
622.985,0.04547
599.84,0.04446

File: Nylon_Carpet_Low_Pile_IS_S_221122_R2.dpt
7497.03,0.73115
7473.89,0.72453
7450.74,0.72172
7427.6,0.72036
7404.45,0.72418
7381.31,0.71399
7358.16,0.70943
7335.02,0.69055
7311.87,0.68748
7288.73,0.67186
7265.58,0.65796
7242.44,0.64174
7219.29,0.62267
7196.15,0.61683
7173,0.62949
7149.86,0.62159
7126.71,0.62257
7103.57,0.61580
7080.42,0.61067
7057.28,0.62144
7034.13,0.62528
7010.99,0.62084
6987.84,0.63477
6964.7,0.64161
6941.55,0.63938
6918.41,0.64817
6895.26,0.65189
6872.12,0.65660
6848.97,0.66020
6825.83,0.64833
6802.68,0.64883
6779.54,0.64004
6756.39,0.62932
6733.25,0.62090
6710.1,0.62598
6686.96,0.61487
6663.82,0.60350
6640.67,0.58550
6617.53,0.56252
6594.38,0.56064
6571.24,0.55864
6548.09,0.54782
6524.95,0.53706
6501.8,0.52673
6478.66,0.53758
6455.51,0.57346
6432.37,0.59711
6409.22,0.59348
6386.08,0.57989
6362.93,0.56070
6339.79,0.56268
6316.64,0.57659
6293.5,0.58524
6270.35,0.57529
6247.21,0.57383
6224.06,0.57626
6200.92,0.58622
6177.77,0.59786
6154.63,0.61808
6131.48,0.63587
6108.34,0.63982
6085.19,0.64036
6062.05,0.63530
6038.9,0.63564
6015.76,0.62848
5992.61,0.61942
5969.47,0.60682
5946.32,0.59258
5923.18,0.55832
5900.03,0.50713
5876.89,0.45798
5853.74,0.42306
5830.6,0.40331
5807.45,0.40785
5784.31,0.42660
5761.16,0.43577
5738.02,0.43238
5714.87,0.41461
5691.73,0.42333
5668.58,0.44238
5645.44,0.46860
5622.29,0.48711
5599.15,0.48938
5576,0.49743
5552.86,0.50312
5529.71,0.50460
5506.57,0.50947
5483.42,0.51491
5460.28,0.51717
5437.13,0.52073
5413.99,0.52715
5390.84,0.53249
5367.7,0.54316
5344.55,0.54494
5321.41,0.54692
5298.26,0.54298
5275.12,0.53292
5251.97,0.52457
5228.83,0.51731
5205.68,0.50729
5182.54,0.49659
5159.39,0.48754
5136.25,0.47987
5113.1,0.47927
5089.96,0.48467
5066.81,0.49017
5043.67,0.49155
5020.52,0.48128
4997.38,0.45926
4974.23,0.41669
4951.09,0.40630
4927.94,0.39944
4904.8,0.36141
4881.65,0.30870
4858.51,0.32514
4835.36,0.40157
4812.22,0.43313
4789.07,0.43096
4765.93,0.42178
4742.78,0.40906
4719.64,0.38737
4696.49,0.36394
4673.35,0.35832
4650.2,0.35879
4627.06,0.33942
4603.92,0.32018
4580.77,0.31034
4557.63,0.31426
4534.48,0.32263
4511.34,0.33468
4488.19,0.34582
4465.05,0.34476
4441.9,0.32920
4418.76,0.29572
4395.61,0.25722
4372.47,0.20484
4349.32,0.18694
4326.18,0.22484
4303.03,0.24381
4279.89,0.22777
4256.74,0.21076
4233.6,0.21357
4210.45,0.21433
4187.31,0.21681
4164.16,0.23550
4141.02,0.25284
4117.87,0.26207
4094.73,0.26166
4071.58,0.26174
4048.44,0.24446
4025.29,0.23378
4002.15,0.24268
3979,0.26647
3955.86,0.27872
3932.71,0.28912
3909.57,0.30833
3886.42,0.31835
3863.28,0.32017
3840.13,0.32133
3816.99,0.33085
3793.84,0.34200
3770.7,0.33915
3747.55,0.33497
3724.41,0.34572
3701.26,0.33032
3678.12,0.28411
3654.97,0.26641
3631.83,0.22940
3608.68,0.19640
3585.54,0.16537
3562.39,0.13486
3539.25,0.10798
3516.1,0.08731
3492.96,0.07525
3469.81,0.06811
3446.67,0.06068
3423.52,0.05413
3400.38,0.04301
3377.23,0.03183
3354.09,0.02467
3330.94,0.02193
3307.8,0.02128
3284.65,0.02358
3261.51,0.02513
3238.36,0.02748
3215.22,0.02962
3192.07,0.03252
3168.93,0.04071
3145.78,0.04638
3122.64,0.04075
3099.49,0.03101
3076.35,0.02936
3053.2,0.03614
3030.06,0.05192
3006.91,0.05506
2983.77,0.03921
2960.62,0.02314
2937.48,0.02247
2914.33,0.02390
2891.19,0.02646
2868.04,0.02393
2844.9,0.03010
2821.75,0.04955
2798.61,0.06662
2775.46,0.08105
2752.32,0.08796
2729.17,0.09729
2706.03,0.11447
2682.88,0.12314
2659.74,0.12887
2636.59,0.13749
2613.45,0.14516
2590.3,0.15222
2567.16,0.15757
2544.02,0.15890
2520.87,0.17777
2497.73,0.18789
2474.58,0.18527
2451.44,0.20072
2428.29,0.21453
2405.15,0.21717
2382,0.21852
2358.86,0.22272
2335.71,0.21944
2312.57,0.22179
2289.42,0.22865
2266.28,0.23244
2243.13,0.24134
2219.99,0.23440
2196.84,0.21868
2173.7,0.22387
2150.55,0.22888
2127.41,0.22728
2104.26,0.23801
2081.12,0.23168
2057.97,0.23315
2034.83,0.23451
2011.68,0.24682
1988.54,0.24606
1965.39,0.24917
1942.25,0.25335
1919.1,0.25273
1895.96,0.23723
1872.81,0.24166
1849.67,0.23448
1826.52,0.21683
1803.38,0.19568
1780.23,0.16458
1757.09,0.11292
1733.94,0.06548
1710.8,0.05668
1687.65,0.02537
1664.51,0.01614
1641.36,0.03189
1618.22,0.02630
1595.07,0.02463
1571.93,0.01952
1548.78,0.02580
1525.64,0.03063
1502.49,0.02927
1479.35,0.02589
1456.2,0.02606
1433.06,0.02628
1409.91,0.03014
1386.77,0.02652
1363.62,0.02595
1340.48,0.02935
1317.33,0.02826
1294.19,0.02628
1271.04,0.02489
1247.9,0.02813
1224.75,0.03348
1201.61,0.02946
1178.46,0.03269
1155.32,0.04997
1132.17,0.06328
1109.03,0.05536
1085.88,0.06518
1062.74,0.07319
1039.59,0.07297
1016.45,0.09543
993.304,0.08742
970.159,0.07179
947.014,0.09262
923.869,0.08145
900.724,0.12375
877.579,0.12777
854.434,0.12189
831.289,0.09414
808.144,0.08813
784.999,0.05861
761.854,0.04392
738.709,0.02991
715.565,0.02593
692.42,0.02802
669.275,0.03628
646.13,0.04733
622.985,0.04365
599.84,0.04286

File: Nylon_Carpet_Low_Pile_IS_S_221122_R3.dpt
7497.03,0.71721
7473.89,0.73368
7450.74,0.72552
7427.6,0.72257
7404.45,0.72125
7381.31,0.71115
7358.16,0.69771
7335.02,0.70037
7311.87,0.68454
7288.73,0.66354
7265.58,0.65012
7242.44,0.64367
7219.29,0.62339
7196.15,0.62245
7173,0.62890
7149.86,0.62168
7126.71,0.62221
7103.57,0.62438
7080.42,0.61389
7057.28,0.62703
7034.13,0.63060
7010.99,0.62695
6987.84,0.63551
6964.7,0.63822
6941.55,0.63508
6918.41,0.64314
6895.26,0.64929
6872.12,0.64832
6848.97,0.65762
6825.83,0.65264
6802.68,0.65227
6779.54,0.63791
6756.39,0.62896
6733.25,0.62549
6710.1,0.62789
6686.96,0.61511
6663.82,0.60549
6640.67,0.57824
6617.53,0.56663
6594.38,0.56487
6571.24,0.55809
6548.09,0.54770
6524.95,0.53408
6501.8,0.52697
6478.66,0.53825
6455.51,0.57391
6432.37,0.59903
6409.22,0.59346
6386.08,0.57647
6362.93,0.56270
6339.79,0.56144
6316.64,0.57727
6293.5,0.58638
6270.35,0.57903
6247.21,0.56833
6224.06,0.57593
6200.92,0.58862
6177.77,0.59686
6154.63,0.61955
6131.48,0.63660
6108.34,0.64201
6085.19,0.64375
6062.05,0.63521
6038.9,0.63238
6015.76,0.62750
5992.61,0.61800
5969.47,0.60653
5946.32,0.59120
5923.18,0.56071
5900.03,0.50861
5876.89,0.45780
5853.74,0.42297
5830.6,0.40408
5807.45,0.40841
5784.31,0.42585
5761.16,0.43873
5738.02,0.43089
5714.87,0.41699
5691.73,0.42451
5668.58,0.44359
5645.44,0.46725
5622.29,0.48669
5599.15,0.49292
5576,0.49644
5552.86,0.50062
5529.71,0.50518
5506.57,0.51001
5483.42,0.51334
5460.28,0.51571
5437.13,0.52189
5413.99,0.52562
5390.84,0.53315
5367.7,0.54171
5344.55,0.54631
5321.41,0.54631
5298.26,0.54220
5275.12,0.53211
5251.97,0.52684
5228.83,0.51728
5205.68,0.50835
5182.54,0.49944
5159.39,0.48779
5136.25,0.48240
5113.1,0.48124
5089.96,0.48657
5066.81,0.49011
5043.67,0.49070
5020.52,0.48413
4997.38,0.45990
4974.23,0.41583
4951.09,0.40633
4927.94,0.39940
4904.8,0.36096
4881.65,0.30707
4858.51,0.32358
4835.36,0.40067
4812.22,0.43342
4789.07,0.42930
4765.93,0.42273
4742.78,0.40855
4719.64,0.38989
4696.49,0.36308
4673.35,0.35796
4650.2,0.35868
4627.06,0.34029
4603.92,0.32023
4580.77,0.30946
4557.63,0.31211
4534.48,0.32295
4511.34,0.33365
4488.19,0.34675
4465.05,0.34480
4441.9,0.32922
4418.76,0.29621
4395.61,0.25702
4372.47,0.20494
4349.32,0.18700
4326.18,0.22493
4303.03,0.24394
4279.89,0.22887
4256.74,0.21086
4233.6,0.21412
4210.45,0.21408
4187.31,0.21710
4164.16,0.23452
4141.02,0.25309
4117.87,0.26163
4094.73,0.26114
4071.58,0.26154
4048.44,0.24409
4025.29,0.23276
4002.15,0.24186
3979,0.26644
3955.86,0.27902
3932.71,0.28937
3909.57,0.30795
3886.42,0.31811
3863.28,0.32053
3840.13,0.32217
3816.99,0.33034
3793.84,0.34217
3770.7,0.33845
3747.55,0.33454
3724.41,0.34514
3701.26,0.33052
3678.12,0.28543
3654.97,0.26920
3631.83,0.23142
3608.68,0.19903
3585.54,0.16827
3562.39,0.13737
3539.25,0.11002
3516.1,0.08943
3492.96,0.07691
3469.81,0.07074
3446.67,0.06222
3423.52,0.05440
3400.38,0.04299
3377.23,0.03278
3354.09,0.02472
3330.94,0.02114
3307.8,0.02180
3284.65,0.02427
3261.51,0.02407
3238.36,0.02688
3215.22,0.02987
3192.07,0.03309
3168.93,0.04106
3145.78,0.04578
3122.64,0.04127
3099.49,0.03100
3076.35,0.02946
3053.2,0.03675
3030.06,0.05174
3006.91,0.05559
2983.77,0.03940
2960.62,0.02352
2937.48,0.02256
2914.33,0.02379
2891.19,0.02588
2868.04,0.02380
2844.9,0.02978
2821.75,0.04980
2798.61,0.06671
2775.46,0.08114
2752.32,0.08821
2729.17,0.09709
2706.03,0.11373
2682.88,0.12367
2659.74,0.12856
2636.59,0.13715
2613.45,0.14518
2590.3,0.15180
2567.16,0.15756
2544.02,0.15867
2520.87,0.17809
2497.73,0.18746
2474.58,0.18494
2451.44,0.20077
2428.29,0.21464
2405.15,0.21744
2382,0.21800
2358.86,0.21919
2335.71,0.21698
2312.57,0.22141
2289.42,0.22874
2266.28,0.23245
2243.13,0.24157
2219.99,0.23492
2196.84,0.21888
2173.7,0.22426
2150.55,0.22952
2127.41,0.22823
2104.26,0.23822
2081.12,0.23232
2057.97,0.23360
2034.83,0.23448
2011.68,0.24679
1988.54,0.24637
1965.39,0.24963
1942.25,0.25318
1919.1,0.25251
1895.96,0.23715
1872.81,0.24224
1849.67,0.23448
1826.52,0.21654
1803.38,0.19528
1780.23,0.16471
1757.09,0.11272
1733.94,0.06534
1710.8,0.05666
1687.65,0.02559
1664.51,0.01628
1641.36,0.03206
1618.22,0.02663
1595.07,0.02437
1571.93,0.01980
1548.78,0.02561
1525.64,0.03013
1502.49,0.02976
1479.35,0.02580
1456.2,0.02565
1433.06,0.02633
1409.91,0.03023
1386.77,0.02669
1363.62,0.02640
1340.48,0.02964
1317.33,0.02836
1294.19,0.02661
1271.04,0.02480
1247.9,0.02844
1224.75,0.03344
1201.61,0.02971
1178.46,0.03296
1155.32,0.04994
1132.17,0.06381
1109.03,0.05501
1085.88,0.06563
1062.74,0.07383
1039.59,0.07284
1016.45,0.09550
993.304,0.08832
970.159,0.07226
947.014,0.09265
923.869,0.08166
900.724,0.12474
877.579,0.12821
854.434,0.12170
831.289,0.09541
808.144,0.08767
784.999,0.05887
761.854,0.04356
738.709,0.03021
715.565,0.02628
692.42,0.02812
669.275,0.03663
646.13,0.04636
622.985,0.04252
599.84,0.04610

File: Nylon_Carpet_Low_Pile_IS_S_221122_R4.dpt
7497.03,0.72427
7473.89,0.72994
7450.74,0.72160
7427.6,0.73092
7404.45,0.71474
7381.31,0.71866
7358.16,0.70352
7335.02,0.70805
7311.87,0.69258
7288.73,0.66321
7265.58,0.64986
7242.44,0.63527
7219.29,0.62472
7196.15,0.62383
7173,0.62277
7149.86,0.63073
7126.71,0.62283
7103.57,0.62101
7080.42,0.61912
7057.28,0.62185
7034.13,0.62767
7010.99,0.62191
6987.84,0.63268
6964.7,0.63212
6941.55,0.63738
6918.41,0.64923
6895.26,0.64574
6872.12,0.65076
6848.97,0.65592
6825.83,0.65964
6802.68,0.65308
6779.54,0.64251
6756.39,0.62079
6733.25,0.62000
6710.1,0.61748
6686.96,0.61623
6663.82,0.60771
6640.67,0.58797
6617.53,0.56800
6594.38,0.56675
6571.24,0.56062
6548.09,0.55405
6524.95,0.53303
6501.8,0.52856
6478.66,0.53503
6455.51,0.57661
6432.37,0.59295
6409.22,0.59672
6386.08,0.57986
6362.93,0.56483
6339.79,0.55898
6316.64,0.58248
6293.5,0.58893
6270.35,0.58398
6247.21,0.57292
6224.06,0.57641
6200.92,0.58805
6177.77,0.59944
6154.63,0.61901
6131.48,0.63780
6108.34,0.63939
6085.19,0.63950
6062.05,0.63943
6038.9,0.63466
6015.76,0.63022
5992.61,0.61817
5969.47,0.60720
5946.32,0.59048
5923.18,0.56088
5900.03,0.51153
5876.89,0.45939
5853.74,0.42305
5830.6,0.40398
5807.45,0.40867
5784.31,0.42437
5761.16,0.43627
5738.02,0.43022
5714.87,0.41642
5691.73,0.42294
5668.58,0.44398
5645.44,0.46844
5622.29,0.48411
5599.15,0.49195
5576,0.49859
5552.86,0.50485
5529.71,0.50444
5506.57,0.51034
5483.42,0.51311
5460.28,0.51736
5437.13,0.52088
5413.99,0.52801
5390.84,0.53271
5367.7,0.54207
5344.55,0.54676
5321.41,0.54802
5298.26,0.54363
5275.12,0.53333
5251.97,0.52569
5228.83,0.51986
5205.68,0.51141
5182.54,0.49967
5159.39,0.48929
5136.25,0.48409
5113.1,0.48250
5089.96,0.48811
5066.81,0.49270
5043.67,0.49304
5020.52,0.48491
4997.38,0.46050
4974.23,0.41555
4951.09,0.40600
4927.94,0.40083
4904.8,0.36083
4881.65,0.30821
4858.51,0.32409
4835.36,0.40135
4812.22,0.43365
4789.07,0.43120
4765.93,0.42162
4742.78,0.40886
4719.64,0.38879
4696.49,0.36483
4673.35,0.35851
4650.2,0.35915
4627.06,0.33860
4603.92,0.32059
4580.77,0.30959
4557.63,0.31423
4534.48,0.32260
4511.34,0.33463
4488.19,0.34745
4465.05,0.34501
4441.9,0.32915
4418.76,0.29605
4395.61,0.25762
4372.47,0.20574
4349.32,0.18783
4326.18,0.22527
4303.03,0.24466
4279.89,0.22873
4256.74,0.21096
4233.6,0.21389
4210.45,0.21296
4187.31,0.21724
4164.16,0.23462
4141.02,0.25292
4117.87,0.26251
4094.73,0.26164
4071.58,0.26189
4048.44,0.24422
4025.29,0.23359
4002.15,0.24290
3979,0.26666
3955.86,0.27922
3932.71,0.28949
3909.57,0.30808
3886.42,0.31919
3863.28,0.32005
3840.13,0.32237
3816.99,0.33127
3793.84,0.34274
3770.7,0.33912
3747.55,0.33540
3724.41,0.34583
3701.26,0.33150
3678.12,0.28739
3654.97,0.27001
3631.83,0.23275
3608.68,0.20103
3585.54,0.17048
3562.39,0.13938
3539.25,0.11243
3516.1,0.09090
3492.96,0.07819
3469.81,0.07123
3446.67,0.06321
3423.52,0.05468
3400.38,0.04368
3377.23,0.03216
3354.09,0.02419
3330.94,0.02179
3307.8,0.02149
3284.65,0.02473
3261.51,0.02492
3238.36,0.02662
3215.22,0.03015
3192.07,0.03320
3168.93,0.04157
3145.78,0.04601
3122.64,0.04067
3099.49,0.03174
3076.35,0.03028
3053.2,0.03692
3030.06,0.05233
3006.91,0.05553
2983.77,0.03964
2960.62,0.02304
2937.48,0.02207
2914.33,0.02421
2891.19,0.02582
2868.04,0.02387
2844.9,0.02954
2821.75,0.05003
2798.61,0.06680
2775.46,0.08091
2752.32,0.08804
2729.17,0.09734
2706.03,0.11394
2682.88,0.12366
2659.74,0.12915
2636.59,0.13719
2613.45,0.14485
2590.3,0.15241
2567.16,0.15787
2544.02,0.15920
2520.87,0.17816
2497.73,0.18704
2474.58,0.18505
2451.44,0.20128
2428.29,0.21460
2405.15,0.21711
2382,0.21847
2358.86,0.21859
2335.71,0.21724
2312.57,0.22118
2289.42,0.22909
2266.28,0.23289
2243.13,0.24222
2219.99,0.23543
2196.84,0.21951
2173.7,0.22507
2150.55,0.22968
2127.41,0.22862
2104.26,0.23890
2081.12,0.23237
2057.97,0.23388
2034.83,0.23526
2011.68,0.24739
1988.54,0.24643
1965.39,0.24972
1942.25,0.25367
1919.1,0.25291
1895.96,0.23785
1872.81,0.24252
1849.67,0.23477
1826.52,0.21694
1803.38,0.19569
1780.23,0.16475
1757.09,0.11303
1733.94,0.06546
1710.8,0.05692
1687.65,0.02560
1664.51,0.01619
1641.36,0.03181
1618.22,0.02627
1595.07,0.02457
1571.93,0.01954
1548.78,0.02529
1525.64,0.03031
1502.49,0.02960
1479.35,0.02625
1456.2,0.02564
1433.06,0.02631
1409.91,0.03053
1386.77,0.02637
1363.62,0.02638
1340.48,0.02928
1317.33,0.02815
1294.19,0.02611
1271.04,0.02489
1247.9,0.02821
1224.75,0.03340
1201.61,0.02867
1178.46,0.03299
1155.32,0.04941
1132.17,0.06347
1109.03,0.05522
1085.88,0.06533
1062.74,0.07348
1039.59,0.07284
1016.45,0.09585
993.304,0.08815
970.159,0.07290
947.014,0.09305
923.869,0.08119
900.724,0.12400
877.579,0.12835
854.434,0.12179
831.289,0.09553
808.144,0.08756
784.999,0.05884
761.854,0.04334
738.709,0.02984
715.565,0.02603
692.42,0.02768
669.275,0.03881
646.13,0.04906
622.985,0.04566
599.84,0.04544