Folder: fsri_materials_database/01_Data/Nylon_Carpet_High_Pile/Cone

Note: README.md
# Materials and Products Database
### Repository of materials and products properties and fire test data to improve fire modeling and fire investigation.

This project was supported in part by Award No. 2019-DU-BX-0018, awarded by the National Institute of Justice, Office of Justice Programs, U.S. Department of Justice. The opinions, findings, and conclusions or recommendations expressed in this publication / program / exhibition are those of the author(s) and do not necessarily reflect those of the Department of Justice.

***
***

__Cite this database:__ "McKinnon, M., Weinschenk, C., Dow, N., DiDomizio, M., and Madrzykowski, D. Materials and Products Database (Version 1.0.0), Fire Safety Research Institute, UL Research Institutes. Columbia, MD 21045, 2023."

__Cite the Technical Reference Guide:__ "McKinnon, M., Weinschenk, C., and Madrzykowski, D. Materials and Products Database - Technical Reference Guide, Fire Safety Research Institute, UL Research Institutes. Columbia, MD 21045, 2023."

__Cite the User Guide:__ "McKinnon, M., and Weinschenk, C. Materials and Products Database - User Guide, Fire Safety Research Institute, UL Research Institutes. Columbia, MD 21045, 2023."

***
***

## Database Structure

## 01_Data/
Raw data generated from each apparatus are included here in plain-text format. The data is organized first by material, next by the short name of test apparatus used, and where applicable additional filtering by test settings.

### Test Apparatus and Data File Structure
- __Cone Calorimeter__ (Cone)
    + Data file structure includes the material, the short name for the apparatus, heat flux setting and scan/scalar, date of test, and replicate number. Scan is for the raw output data and scalar is for the initial conditions and high-level test parameters. 
        * Example: __MDF_Cone_HF25scalar_210323_R1__ stands for the first replicate of scalar data generated from a medium density fiber board test in cone calorimeter exposed to 25 kW/m<sup>2</sup> on March 23, 2021.
    + A _Cone_Notes.csv_ is generated for each material from the __plot_Cone_data.py__ script. For materials whose experiments deviated from typical behavior relevant pictures are included in the respective material directory.
- __Fourier Transform Infrared Spectrometer__ (FTIR)
    + The FTIR directory contains subdirectories for the Attenuated Total Reflectance method (ATR) and the Integrating Sphere (IS)
    + Data file structure for the ATR experiment files includes the material, the abbreviated name for the apparatus, date of test, and replicate number. 
        * Example: __MDF_ATR_210323_R5__ stands for the fifth replicate of data collected with the ATR accessory conducted on June 8, 2021.
    + Data file structure for the IS experiment files includes the material, the abbreviated name for the apparatus, the measurand, whether the test is a sample measurement or standard reference, date of test, and replicate number.
        * Example: __OSB_IS_REFLECT_MEAS_2

File: Nylon_Carpet_High_Pile_HRRPUA_25.csv
Time after Ignition,Nylon_Carpet_High_Pile_R1,Nylon_Carpet_High_Pile_R2,Nylon_Carpet_High_Pile_R3,Mean,Std. Dev.
0.0,48.8,134.4,113.6,98.9,44.7
1.0,50.8,137.5,115.0,101.1,45.0
2.0,53.5,139.1,117.5,103.4,44.5
3.0,55.9,143.5,120.3,106.5,45.4
4.0,59.0,146.3,120.7,108.7,44.9
5.0,61.1,151.2,124.0,112.1,46.2
6.0,63.4,154.3,126.6,114.8,46.6
7.0,64.5,153.7,131.6,116.6,46.4
8.0,66.8,160.4,135.4,120.9,48.5
9.0,67.5,163.2,137.1,122.6,49.5
10.0,68.3,162.6,141.6,124.2,49.5
11.0,71.6,166.0,144.2,127.3,49.4
12.0,71.7,166.5,146.6,128.3,50.0
13.0,73.8,174.3,150.5,132.9,52.5
14.0,74.2,172.8,153.5,133.5,52.3
15.0,76.8,176.6,156.5,136.6,52.8
16.0,79.3,177.4,159.0,138.6,52.1
17.0,78.6,184.2,166.7,143.2,56.6
18.0,78.9,184.6,170.9,144.8,57.5
19.0,81.5,191.6,173.7,149.0,59.1
20.0,83.3,202.9,175.3,153.8,62.6
21.0,86.3,206.4,179.0,157.2,62.9
22.0,86.3,216.3,185.4,162.7,67.9
23.0,86.9,226.5,185.2,166.2,71.7
24.0,88.8,232.5,188.4,169.9,73.6
25.0,89.9,238.0,188.4,172.1,75.4
26.0,90.4,252.0,192.0,178.1,81.7
27.0,90.1,269.4,201.7,187.1,90.5
28.0,90.6,281.9,199.2,190.6,95.9
29.0,89.1,283.1,201.5,191.3,97.4
30.0,89.8,300.5,208.0,199.4,105.6
31.0,91.7,303.9,207.2,200.9,106.2
32.0,93.5,309.2,213.5,205.4,108.1
33.0,95.1,312.9,214.3,207.4,109.1
34.0,96.3,316.3,223.0,211.8,110.4
35.0,98.3,328.4,228.4,218.3,115.4
36.0,99.0,323.6,228.3,217.0,112.7
37.0,100.9,330.0,236.5,222.5,115.2
38.0,103.6,329.5,245.8,226.3,114.2
39.0,105.6,328.1,247.5,227.1,112.7
40.0,106.5,338.1,252.5,232.3,117.1
41.0,109.6,339.7,256.3,235.2,116.5
42.0,111.3,340.7,259.9,237.3,116.3
43.0,114.9,328.9,262.3,235.4,109.5
44.0,118.6,337.7,263.7,240.0,111.4
45.0,122.8,344.6,261.7,243.0,112.1
46.0,126.6,343.2,264.2,244.7,109.6
47.0,128.0,346.6,262.4,245.7,110.2
48.0,131.7,352.4,269.2,251.1,111.5
49.0,132.4,356.5,266.8,251.9,112.8
50.0,133.3,357.5,269.3,253.4,113.0
51.0,135.9,353.5,268.2,252.5,109.6
52.0,134.8,354.5,274.6,254.6,111.2
53.0,140.6,350.2,274.9,255.2,106.2
54.0,140.3,356.5,287.5,261.4,110.4
55.0,144.2,357.3,279.7,260.4,107.9
56.0,144.6,358.6,286.3,263.2,108.9
57.0,146.5,360.7,284.1,263.8,108.5
58.0,146.3,364.5,293.4,268.1,111.3
59.0,147.5,360.9,293.4,267.3,109.0
60.0,147.9,368.3,292.1,269.4,111.9
61.0,148.5,373.2,298.7,273.5,114.4
62.0,148.7,378.0,306.7,277.8,117.4
63.0,150.8,373.4,304.9,276.4,114.0
64.0,152.5,382.7,306.4,280.5,117.3
65.0,153.6,381.2,314.0,282.9,116.9
66.0,155.4,380.8,318.1,284.8,116.3
67.0,156.5,390.5,306.0,284.3,118.5
68.0,158.5,394.1,310.3,287.6,119.4
69.0,160.0,391.9,305.6,285.8,117.2
70.0,164.5,393.9,308.2,288.8,115.9
71.0,166.7,398.5,305.4,290.2,116.6
72.0,167.5,400.9,307.8,292.0,117.5
73.0,168.0,394.5,304.8,289.1,114.1
74.0,168.1,406.0,306.9,293.6,119.5
75.0,172.1,410.3,308.0,296.8,119.5
76.0,174.6,403.3,311.9,296.6,115.1
77.0,173.8,415.5,306.3,298.5,121.0
78.0,177.7,407.4,314.2,299.8,115.5
79.0,177.9,411.4,319.3,302.9,117.6
80.0,180.8,409.2,313.0,301.0,114.7
81.0,180.5,417.4,315.9,304.6,118.8
82.0,183.7,413.5,314.5,303.9,115.3
83.0,183.6,400.6,312.4,298.8,109.1
84.0,182.6,406.2,315.8,301.5,112.5
85.0,189.8,406.7,316.4,304.3,109.0
86.0,187.6,411.4,320.8,306.6,112.5
87.0,189.5,410.5,313.4,304.5,110.8
88.0,194.0,408.2,315.1,305.8,107.4
89.0,191.8,401.2,310.2,301.1,105.0
90.0,197.0,399.5,307.6,301.4,101.4
91.0,196.4,411.5,305.1,304.3,107.6
92.0,197.8,404.0,303.3,301.7,103.1
93.0,202.3,399.7,304.9,302.3,98.7
94.0,201.1,404.4,295.3,300.3,101.8
95.0,201.4,399.2,293.9,298.2,99.0
96.0,202.3,404.5,293.6,300.1,101.2
97.0,204.0,405.5,293.9,301.1,100.9
98.0,210.1,395.2,290.4,298.6,92.8
99.0,208.2,401.3,291.3,300.3,96.8
100.0,207.2,401.5,285.6,298.1,97.8
101.0,202.7,400.5,288.2,297.1,99.2
102.0,204.7,397.3,285.2,295.7,96.7
103.0,203.7,405.7,286.9,298.8,101.5
104.0,205.8,408.8,283.8,299.5,102.4
105.0,203.2,392.5,289.5,295.1,94.7
106.0,202.2,390.8,282.3,291.8,94.7
107.0,202.5,405.5,274.0,294.0,103.0
108.0,200.7,402.8,280.2,294.6,101.8
109.0,200.3,394.4,269.4,288.0,98.4
110.0,198.3,385.3,271.5,285.0,94.2
111.0,204.2,378.0,263.9,282.0,88.3
112.0,200.7,378.7,271.3,283.6,89.6
113.0,200.9,369.6,270.9,280.5,84.7
114.0,201.9,370.9,268.5,280.4,85.1
115.0,203.6,359.4,272.1,278.4,78.1
116.0,208.9,359.7,270.0,279.6,75.9
117.0,207.1,357.1,273.1,279.1,75.2
118.0,209.0,358.6,273.5,280.3,75.0
119.0,211.4,350.3,274.9,278.9,69.6
120.0,213.4,348.6,272.5,278.2,67.8
121.0,212.8,344.9,276.4,278.0,66.1
122.0,214.9,332.5,269.8,272.4,58.8
123.0,214.7,326.9,270.9,270.8,56.1
124.0,215.3,325.9,274.0,271.8,55.3
125.0,214.2,319.9,276.2,270.1,53.1
126.0,219.0,316.6,270.6,268.7,48.8
127.0,216.7,312.6,276.8,268.7,48.4
128.0,217.0,311.1,272.4,266.8,47.3
129.0,216.6,304.2,275.4,265.4,44.7
130.0,218.9,295.1,271.3,261.8,39.0
131.0,227.3,290.0,271.5,262.9,32.2
132.0,231.4,280.7,266.9,259.7,25.4
133.0,228.8,280.3,273.4,260.8,27.9
134.0,231.9,271.1,265.2,256.1,21.1
135.0,235.3,273.1,268.3,258.9,20.6
136.0,232.5,261.7,263.2,252.5,17.3
137.0,237.9,260.5,268.0,255.5,15.7
138.0,234.9,251.5,265.4,250.6,15.3
139.0,238.9,247.6,264.5,250.4,13.0
140.0,236.5,245.2,265.0,248.9,14.6
141.0,242.8,239.0,268.2,250.0,15.9
142.0,245.3,228.5,265.4,246.4,18.5
143.0,248.5,226.7,264.5,246.6,19.0
144.0,255.0,213.5,266.6,245.0,27.9
145.0,251.7,209.9,265.5,242.4,29.0
146.0,258.6,203.7,269.6,243.9,35.3
147.0,256.5,202.9,267.2,242.2,34.5
148.0,252.7,193.8,267.4,238.0,39.0
149.0,257.1,192.4,262.6,237.4,39.1
150.0,257.9,186.7,261.0,235.2,42.1
151.0,259.0,181.4,269.5,236.7,48.1
152.0,257.2,176.7,259.4,231.1,47.1
153.0,263.0,170.1,262.2,231.8,53.4
154.0,264.1,163.9,260.0,229.3,56.7
155.0,267.6,155.7,264.5,229.3,63.7
156.0,265.9,151.3,258.5,225.2,64.1
157.0,262.2,145.2,257.3,221.6,66.2
158.0,269.5,139.4,256.7,221.9,71.7
159.0,264.0,133.7,257.4,218.4,73.4
160.0,257.9,131.3,253.2,214.1,71.8
161.0,260.3,128.4,251.6,213.5,73.8
162.0,256.8,123.1,245.9,208.6,74.3
163.0,258.0,118.0,251.7,209.2,79.1
164.0,255.8,115.6,248.0,206.5,78.8
165.0,258.6,110.8,246.4,205.3,82.0
166.0,256.3,106.0,243.3,201.9,83.3
167.0,258.1,100.9,237.0,198.7,85.4
168.0,261.7,97.4,233.9,197.7,87.9
169.0,267.4,95.8,230.1,197.7,90.3
170.0,271.7,91.4,222.6,195.2,93.2
171.0,274.0,87.5,216.0,192.5,95.4
172.0,273.2,84.6,214.3,190.7,96.5
173.0,281.5,81.1,212.2,191.6,101.8
174.0,285.2,77.7,208.2,190.4,104.9
175.0,277.9,75.4,208.2,187.2,102.9
176.0,281.0,72.0,207.3,186.8,106.0
177.0,271.3,68.2,203.7,181.0,103.4
178.0,274.5,63.0,204.4,180.6,107.8
179.0,268.8,57.7,201.4,176.0,107.8
180.0,268.1,54.8,194.6,172.5,108.3
181.0,266.9,52.0,193.9,170.9,109.3
182.0,261.7,50.1,195.0,168.9,108.2
183.0,265.7,47.8,191.2,168.2,110.8
184.0,263.1,44.5,194.0,167.2,111.7
185.0,265.2,42.2,191.8,166.4,113.6
186.0,264.6,38.5,190.0,164.3,115.2
187.0,260.6,35.8,189.7,162.1,114.9
188.0,260.6,33.5,182.2,158.7,115.4
189.0,256.9,31.9,184.0,157.6,114.8
190.0,259.3,29.5,178.3,155.7,116.5
191.0,259.5,27.7,177.0,154.7,117.5
192.0,259.4,25.3,175.3,153.3,118.6
193.0,256.0,24.2,173.4,151.2,117.5
194.0,259.4,22.3,172.6,151.4,119.9
195.0,254.9,21.4,167.6,148.0,118.0
196.0,255.7,20.7,161.8,146.1,118.3
197.0,253.1,19.6,163.1,145.3,117.8
198.0,251.3,19.0,162.1,144.1,117.2
199.0,256.8,17.5,161.2,145.2,120.4
200.0,254.4,,160.9,207.7,66.1
201.0,251.1,,158.5,204.8,65.5
202.0,245.8,,152.5,199.1,66.0
203.0,246.8,,153.7,200.2,65.8
204.0,242.3,,152.7,197.5,63.3
205.0,243.4,,148.8,196.1,66.9
206.0,244.1,,148.4,196.3,67.6
207.0,241.3,,143.5,192.4,69.2
208.0,238.3,,143.8,191.0,66.8
209.0,235.9,,142.6,189.2,66.0
210.0,232.6,,140.5,186.6,65.1
211.0,231.4,,135.9,183.6,67.5
212.0,231.6,,136.3,183.9,67.3
213.0,225.9,,133.1,179.5,65.6
214.0,225.8,,131.0,178.4,67.0
215.0,230.0,,128.8,179.4,71.6
216.0,228.7,,128.8,178.8,70.7
217.0,226.1,,124.6,175.3,71.8
218.0,225.5,,122.4,173.9,72.9
219.0,222.6,,120.9,171.7,71.9
220.0,218.6,,117.0,167.8,71.8
221.0,218.6,,114.3,166.4,73.7
222.0,217.6,,112.1,164.8,74.6
223.0,214.3,,107.9,161.1,75.2
224.0,210.3,,104.6,157.4,74.8
225.0,215.1,,104.3,159.7,78.3
226.0,208.2,,101.2,154.7,75.6
227.0,201.9,,98.5,150.2,73.1
228.0,199.9,,96.0,147.9,73.5
229.0,196.2,,94.2,145.2,72.1
230.0,194.1,,90.1,142.1,73.5
231.0,193.3,,86.9,140.1,75.2
232.0,194.5,,83.0,138.7,78.8
233.0,193.1,,80.0,136.5,79.9
234.0,190.1,,78.1,134.1,79.2
235.0,185.3,,74.6,129.9,78.3
236.0,182.5,,69.3,125.9,80.1
237.0,180.4,,66.6,123.5,80.5
238.0,178.2,,60.0,119.1,83.5
239.0,173.5,,55.4,114.4,83.5
240.0,174.4,,52.1,113.2,86.4
241.0,169.2,,48.9,109.1,85.1
242.0,165.8,,45.5,105.6,85.0
243.0,161.2,,42.2,101.7,84.1
244.0,163.0,,38.9,100.9,87.8
245.0,157.9,,35.8,96.9,86.3
246.0,156.3,,33.1,94.7,87.2
247.0,155.1,,29.7,92.4,88.6
248.0,151.2,,28.4,89.8,86.8
249.0,153.0,,26.5,89.7,89.4
250.0,150.5,,23.7,87.1,89.7
251.0,150.2,,,150.2,
252.0,144.3,,,144.3,
253.0,141.8,,,141.8,
254.0,135.2,,,135.2,
255.0,131.7,,,131.7,
256.0,129.2,,,129.2,
257.0,127.2,,,127.2,
258.0,124.9,,,124.9,
259.0,124.6,,,124.6,
260.0,123.4,,,123.4,
261.0,123.7,,,123.7,
262.0,119.4,,,119.4,
263.0,117.5,,,117.5,
264.0,116.8,,,116.8,
265.0,114.2,,,114.2,
266.0,111.1,,,111.1,
267.0,108.6,,,108.6,
268.0,107.0,,,107.0,
269.0,107.1,,,107.1,
270.0,103.2,,,103.2,
271.0,100.8,,,100.8,
272.0,98.5,,,98.5,
273.0,95.3,,,95.3,
274.0,91.9,,,91.9,
275.0,89.8,,,89.8,
276.0,86.0,,,86.0,
277.0,84.1,,,84.1,
278.0,81.6,,,81.6,
279.0,77.8,,,77.8,
280.0,75.9,,,75.9,
281.0,70.9,,,70.9,
282.0,67.9,,,67.9,
283.0,64.7,,,64.7,
284.0,62.3,,,62.3,
285.0,59.4,,,59.4,
286.0,56.5,,,56.5,
287.0,51.4,,,51.4,
288.0,48.5,,,48.5,
289.0,46.2,,,46.2,
290.0,43.1,,,43.1,
291.0,40.6,,,40.6,
292.0,39.0,,,39.0,
293.0,36.5,,,36.5,
294.0,32.7,,,32.7,
295.0,29.7,,,29.7,
296.0,27.1,,,27.1,
297.0,24.7,,,24.7,
298.0,23.3,,,23.3,
298.75,22.4,,,22.4,

File: Nylon_Carpet_High_Pile_HRRPUA_50.csv
Time after Ignition,Nylon_Carpet_High_Pile_R1,Nylon_Carpet_High_Pile_R2,Nylon_Carpet_High_Pile_R3,Mean,Std. Dev.
0.0,24.3,10.4,7.5,14.1,9.0
0.75,41.9,24.7,15.1,27.2,13.5
1.5,67.1,47.5,26.7,47.1,20.2
2.25,96.9,69.9,47.0,71.3,25.0
3.0,127.6,92.2,71.3,97.0,28.4
3.75,145.8,115.8,97.4,119.7,24.4
4.5,169.4,133.3,123.4,142.0,24.2
5.25,186.7,151.2,149.4,162.4,21.0
6.0,201.4,170.0,174.8,182.1,16.9
6.75,212.1,185.5,188.6,195.4,14.5
7.5,226.4,201.1,206.7,211.4,13.3
8.25,233.3,217.9,237.5,229.6,10.3
9.0,241.1,236.4,261.5,246.3,13.4
9.75,250.0,245.8,282.3,259.4,20.0
10.5,262.7,253.6,302.2,272.8,25.9
11.25,264.7,269.5,316.0,283.4,28.3
12.0,271.8,279.2,332.2,294.4,32.9
12.75,280.7,289.3,356.1,308.7,41.3
13.5,284.9,299.7,357.7,314.1,38.5
14.25,298.0,303.2,367.0,322.7,38.4
15.0,299.3,310.8,374.4,328.2,40.5
15.75,310.7,323.5,381.9,338.7,37.9
16.5,315.7,330.2,390.1,345.4,39.4
17.25,321.7,348.2,398.9,356.2,39.2
18.0,315.8,357.7,396.9,356.8,40.5
18.75,327.6,361.3,395.8,361.6,34.1
19.5,327.1,369.2,397.3,364.6,35.3
20.25,338.8,381.6,403.5,374.6,32.9
21.0,341.6,387.1,393.9,374.2,28.4
21.75,352.8,403.7,391.8,382.7,26.6
22.5,355.0,415.5,393.5,388.0,30.6
23.25,362.0,421.7,404.9,396.2,30.8
24.0,375.5,432.6,406.7,404.9,28.6
24.75,375.4,447.1,406.7,409.8,35.9
25.5,394.1,442.4,408.2,414.9,24.8
26.25,402.1,449.2,399.7,417.0,27.9
27.0,404.1,458.3,405.8,422.8,30.8
27.75,404.2,462.3,414.9,427.1,30.9
28.5,422.7,472.9,417.1,437.6,30.7
29.25,425.1,466.6,415.9,435.9,27.0
30.0,436.5,471.2,426.9,444.9,23.3
30.75,432.5,461.5,427.9,440.7,18.2
31.5,442.0,476.9,432.9,450.6,23.2
32.25,450.6,486.1,431.8,456.2,27.6
33.0,470.7,470.0,442.3,461.0,16.2
33.75,448.0,482.5,460.2,463.6,17.5
34.5,461.0,474.9,447.0,461.0,14.0
35.25,459.9,487.2,447.8,465.0,20.2
36.0,467.7,487.5,449.4,468.2,19.1
36.75,460.4,493.3,448.3,467.3,23.3
37.5,485.6,488.4,443.1,472.3,25.4
38.25,489.1,497.6,441.4,476.0,30.3
39.0,482.4,508.2,449.0,479.9,29.7
39.75,487.9,504.8,461.8,484.9,21.6
40.5,486.3,498.7,451.3,478.8,24.6
41.25,489.2,495.4,446.8,477.1,26.5
42.0,493.1,495.9,458.6,482.5,20.8
42.75,487.2,512.9,461.8,487.3,25.5
43.5,517.9,514.8,458.9,497.2,33.2
44.25,509.0,510.7,454.2,491.3,32.1
45.0,512.3,531.8,453.3,499.2,40.9
45.75,512.2,520.0,466.0,499.4,29.2
46.5,512.2,521.6,462.6,498.8,31.7
47.25,510.1,535.1,464.9,503.4,35.6
48.0,517.6,526.4,455.7,499.9,38.5
48.75,520.1,535.8,458.7,504.9,40.8
49.5,528.7,540.8,452.6,507.4,47.8
50.25,519.0,549.8,451.3,506.7,50.4
51.0,514.4,540.8,443.1,499.4,50.5
51.75,510.1,525.0,431.7,488.9,50.1
52.5,516.5,536.8,430.7,494.7,56.3
53.25,516.6,537.2,430.0,494.6,56.9
54.0,499.8,534.4,428.1,487.4,54.2
54.75,517.2,530.1,422.9,490.1,58.6
55.5,501.4,523.1,418.9,481.1,55.0
56.25,512.7,515.7,415.6,481.4,56.9
57.0,510.4,520.5,416.8,482.6,57.2
57.75,498.0,519.6,410.1,475.9,58.0
58.5,490.5,522.1,408.4,473.7,58.7
59.25,507.5,510.8,398.0,472.1,64.2
60.0,510.5,507.7,403.4,473.9,61.0
60.75,499.2,496.8,388.5,461.5,63.2
61.5,494.6,489.7,396.9,460.4,55.0
62.25,485.5,485.6,384.9,452.0,58.1
63.0,483.2,482.3,384.4,450.0,56.8
63.75,473.5,465.0,386.9,441.8,47.7
64.5,482.1,469.3,378.0,443.1,56.8
65.25,480.0,458.3,376.0,438.1,54.8
66.0,470.3,450.8,374.8,432.0,50.4
66.75,469.2,446.8,361.8,425.9,56.7
67.5,465.7,449.4,373.4,429.5,49.3
68.25,462.4,444.3,362.5,423.1,53.2
69.0,467.8,443.4,364.9,425.4,53.8
69.75,450.2,429.6,356.4,412.1,49.3
70.5,447.4,408.9,362.8,406.4,42.4
71.25,445.8,410.1,352.5,402.8,47.1
72.0,437.1,400.5,350.8,396.1,43.4
72.75,445.2,396.8,353.7,398.6,45.7
73.5,425.2,397.2,349.7,390.7,38.2
74.25,430.0,383.7,350.1,387.9,40.1
75.0,432.1,380.8,340.4,384.5,46.0
75.75,430.9,385.4,333.3,383.2,48.8
76.5,416.4,377.6,342.6,378.9,36.9
77.25,417.4,379.7,332.8,376.6,42.4
78.0,412.8,368.1,316.6,365.9,48.2
78.75,419.4,371.6,323.1,371.4,48.1
79.5,409.7,363.7,326.9,366.8,41.5
80.25,402.1,357.2,325.5,361.6,38.5
81.0,410.0,363.7,327.2,367.0,41.5
81.75,400.0,349.4,316.7,355.4,42.0
82.5,402.5,350.9,318.6,357.3,42.3
83.25,397.4,346.6,314.0,352.6,42.0
84.0,397.6,342.2,315.4,351.8,41.9
84.75,381.9,344.7,314.6,347.1,33.7
85.5,381.2,327.9,311.4,340.1,36.5
86.25,375.8,332.4,310.8,339.7,33.1
87.0,365.4,332.7,312.6,336.9,26.6
87.75,362.7,323.0,301.1,328.9,31.2
88.5,361.6,328.3,306.3,332.0,27.9
89.25,351.0,321.2,301.8,324.7,24.8
90.0,358.1,323.0,300.4,327.2,29.0
90.75,350.0,316.5,297.3,321.3,26.7
91.5,351.1,308.6,296.8,318.8,28.6
92.25,354.7,312.6,296.6,321.3,30.0
93.0,347.9,310.3,293.0,317.1,28.0
93.75,341.5,299.9,291.7,311.0,26.7
94.5,336.4,301.9,293.5,310.6,22.7
95.25,333.3,297.4,285.5,305.4,24.9
96.0,330.2,296.8,295.1,307.4,19.8
96.75,323.3,295.9,282.1,300.5,21.0
97.5,319.9,291.6,286.3,299.3,18.0
98.25,314.5,292.0,283.7,296.7,15.9
99.0,310.9,295.2,285.0,297.0,13.0
99.75,306.6,291.9,282.9,293.8,12.0
100.5,305.0,286.3,278.3,289.9,13.7
101.25,301.2,286.7,280.5,289.5,10.6
102.0,308.7,295.2,275.7,293.2,16.6
102.75,297.8,283.8,275.2,285.6,11.4
103.5,299.8,281.8,272.3,284.6,13.9
104.25,293.6,282.1,274.3,283.4,9.7
105.0,289.3,276.5,273.5,279.8,8.4
105.75,290.2,270.5,273.7,278.1,10.5
106.5,280.0,274.5,273.4,276.0,3.5
107.25,276.1,269.1,268.2,271.2,4.3
108.0,280.0,261.7,269.0,270.2,9.2
108.75,272.7,265.8,272.3,270.2,3.9
109.5,276.0,264.7,269.3,270.0,5.7
110.25,273.7,262.8,265.3,267.3,5.7
111.0,269.9,260.1,263.2,264.4,5.0
111.75,268.8,257.5,261.5,262.6,5.7
112.5,269.0,258.0,266.8,264.6,5.8
113.25,267.8,253.7,258.4,260.0,7.2
114.0,262.6,256.9,260.7,260.0,2.9
114.75,262.5,256.9,259.8,259.7,2.8
115.5,263.7,249.4,255.2,256.1,7.2
116.25,260.5,251.5,254.9,255.7,4.5
117.0,257.5,258.4,256.7,257.5,0.8
117.75,256.6,254.4,258.1,256.4,1.9
118.5,258.5,247.4,255.7,253.9,5.8
119.25,259.1,251.4,254.8,255.1,3.9
120.0,257.3,250.9,256.4,254.9,3.4
120.75,253.9,250.5,253.9,252.8,2.0
121.5,249.0,248.4,254.9,250.7,3.6
122.25,247.1,241.6,251.7,246.8,5.0
123.0,246.9,244.9,250.3,247.4,2.8
123.75,244.0,243.4,255.7,247.7,6.9
124.5,240.0,241.0,253.0,244.6,7.2
125.25,241.5,236.8,250.7,243.0,7.1
126.0,242.4,237.6,249.7,243.2,6.1
126.75,236.9,233.6,249.6,240.1,8.4
127.5,243.1,234.3,249.4,242.3,7.6
128.25,235.0,230.2,246.0,237.1,8.1
129.0,233.0,233.0,243.8,236.6,6.2
129.75,229.4,231.3,245.0,235.2,8.5
130.5,229.9,228.5,247.2,235.2,10.4
131.25,236.0,226.9,249.2,237.4,11.2
132.0,228.0,226.7,248.6,234.4,12.3
132.75,224.0,228.1,248.7,233.6,13.2
133.5,229.8,230.0,243.5,234.5,7.8
134.25,225.8,225.9,244.5,232.0,10.8
135.0,226.0,221.8,245.0,230.9,12.4
135.75,228.1,219.4,242.1,229.9,11.5
136.5,227.5,219.7,239.2,228.8,9.8
137.25,221.3,218.4,239.8,226.5,11.6
138.0,222.5,222.3,236.9,227.2,8.3
138.75,222.7,216.5,238.1,225.8,11.2
139.5,219.8,215.4,236.4,223.9,11.1
140.25,221.0,216.0,236.9,224.6,10.9
141.0,212.2,212.7,236.5,220.5,13.9
141.75,213.8,211.0,234.5,219.7,12.8
142.5,210.7,209.2,235.5,218.4,14.8
143.25,213.6,209.0,231.7,218.1,12.0
144.0,208.4,210.8,236.8,218.7,15.8
144.75,206.4,209.2,235.6,217.1,16.1
145.5,207.9,208.4,232.5,216.3,14.0
146.25,206.8,204.4,232.0,214.4,15.3
147.0,203.7,205.0,228.5,212.4,14.0
147.75,204.0,207.0,228.1,213.0,13.1
148.5,202.8,205.0,230.5,212.8,15.4
149.25,201.9,204.6,228.8,211.8,14.8
150.0,198.1,203.9,227.2,209.7,15.4
150.75,199.5,201.2,223.9,208.2,13.6
151.5,196.4,205.3,228.7,210.2,16.7
152.25,194.2,204.5,225.1,207.9,15.7
153.0,191.6,201.5,224.3,205.8,16.7
153.75,189.8,204.8,218.7,204.4,14.5
154.5,187.8,203.3,221.9,204.3,17.1
155.25,184.1,200.5,215.1,199.9,15.5
156.0,187.2,197.6,217.3,200.7,15.3
156.75,180.5,198.0,218.7,199.1,19.1
157.5,178.3,198.6,219.3,198.7,20.5
158.25,177.4,198.2,218.3,198.0,20.4
159.0,173.9,195.2,218.6,195.9,22.3
159.75,167.4,194.7,216.3,192.8,24.5
160.5,166.1,195.3,219.6,193.7,26.8
161.25,162.8,197.7,215.3,191.9,26.7
162.0,162.8,192.7,212.4,189.3,25.0
162.75,156.6,191.4,208.5,185.5,26.5
163.5,153.7,191.9,210.1,185.2,28.8
164.25,149.7,192.4,205.9,182.7,29.3
165.0,151.3,191.9,206.5,183.2,28.6
165.75,147.3,195.9,204.4,182.5,30.8
166.5,146.6,191.8,202.2,180.2,29.6
167.25,145.1,191.8,197.4,178.1,28.7
168.0,141.7,192.3,199.3,177.8,31.4
168.75,138.3,189.4,193.7,173.8,30.9
169.5,137.1,186.7,193.0,172.2,30.6
170.25,133.4,186.8,190.9,170.4,32.1
171.0,133.7,185.3,194.1,171.0,32.7
171.75,132.1,182.2,184.7,166.3,29.7
172.5,130.8,186.1,186.1,167.7,31.9
173.25,130.3,185.6,185.6,167.2,31.9
174.0,128.3,182.9,185.3,165.5,32.2
174.75,129.6,180.3,184.6,164.8,30.6
175.5,125.6,179.2,181.6,162.1,31.6
176.25,123.6,176.8,177.4,159.3,30.9
177.0,123.8,177.4,179.9,160.4,31.7
177.75,121.4,175.9,178.0,158.4,32.0
178.5,119.6,174.4,177.0,157.0,32.4
179.25,116.9,175.4,178.4,156.9,34.7
180.0,113.8,178.6,176.7,156.4,36.9
180.75,113.6,173.8,176.8,154.7,35.7
181.5,112.7,174.5,175.1,154.1,35.9
182.25,110.5,171.6,174.3,152.1,36.1
183.0,108.3,174.7,172.7,151.9,37.8
183.75,106.7,173.7,171.3,150.6,38.0
184.5,104.5,170.4,169.3,148.1,37.7
185.25,103.0,172.2,168.0,147.8,38.8
186.0,102.1,170.4,165.3,146.0,38.1
186.75,99.8,171.5,166.5,145.9,40.0
187.5,97.2,175.0,167.3,146.5,42.9
188.25,93.9,171.8,165.2,143.6,43.2
189.0,92.0,170.6,163.4,142.0,43.5
189.75,87.8,171.6,157.9,139.1,44.9
190.5,83.2,171.2,157.4,137.3,47.3
191.25,79.0,169.0,157.0,135.0,48.8
192.0,75.0,168.6,154.8,132.8,50.5
192.75,72.6,167.5,154.8,131.6,51.5
193.5,69.7,167.8,150.8,129.4,52.4
194.25,65.5,166.5,150.4,127.5,54.3
195.0,63.9,166.9,151.0,127.3,55.5
195.75,59.4,164.9,146.7,123.7,56.4
196.5,55.6,166.3,147.7,123.2,59.3
197.25,50.2,164.0,148.2,120.8,61.6
198.0,44.6,164.6,146.0,118.4,64.6
198.75,41.2,164.4,144.7,116.8,66.2
199.5,37.6,164.1,141.5,114.4,67.5
200.0,34.5,158.9,143.6,112.3,67.8