Folder: fsri_materials_database/01_Data/Nylon_Carpet_High_Pile/Cone (part 2)

File: Nylon_Carpet_High_Pile_HRRPUA_75.csv
Time after Ignition,Nylon_Carpet_High_Pile_R1,Nylon_Carpet_High_Pile_R2,Nylon_Carpet_High_Pile_R3,Mean,Std. Dev.
0.0,41.0,40.7,28.2,36.7,7.3
0.75,74.3,63.8,33.5,57.2,21.2
1.5,114.9,97.2,49.3,87.1,34.0
2.25,156.4,123.4,72.8,117.5,42.1
3.0,199.7,151.1,100.5,150.4,49.6
3.75,233.4,175.3,136.7,181.8,48.7
4.5,262.0,214.5,165.7,214.0,48.2
5.25,296.3,232.0,210.0,246.1,44.9
6.0,319.5,266.8,250.4,278.9,36.1
6.75,338.9,289.2,272.9,300.3,34.4
7.5,360.3,311.0,318.0,329.8,26.7
8.25,381.4,331.8,335.5,349.6,27.6
9.0,399.7,334.7,360.9,365.1,32.7
9.75,412.2,352.7,384.4,383.1,29.8
10.5,459.1,366.0,398.9,408.0,47.2
11.25,474.6,377.7,408.2,420.2,49.6
12.0,498.4,384.7,440.6,441.2,56.9
12.75,499.1,399.0,429.5,442.6,51.3
13.5,501.3,408.7,462.6,457.5,46.6
14.25,516.8,414.4,468.5,466.6,51.2
15.0,517.5,435.8,480.9,478.1,40.9
15.75,542.0,441.1,490.9,491.3,50.5
16.5,556.3,442.2,497.9,498.8,57.1
17.25,554.7,446.7,505.2,502.2,54.1
18.0,556.2,434.2,508.2,499.5,61.4
18.75,558.2,458.2,516.5,511.0,50.2
19.5,552.4,447.0,536.4,511.9,56.8
20.25,566.3,455.5,525.6,515.8,56.1
21.0,566.7,463.6,536.9,522.4,53.1
21.75,553.3,469.6,546.5,523.1,46.5
22.5,576.9,480.6,547.5,535.0,49.3
23.25,586.4,477.5,577.9,547.3,60.6
24.0,584.5,478.6,575.4,546.2,58.7
24.75,604.1,489.0,593.4,562.2,63.6
25.5,605.5,509.2,596.5,570.4,53.2
26.25,604.7,498.4,596.7,566.6,59.2
27.0,624.5,531.0,584.7,580.1,47.0
27.75,644.3,540.6,628.9,604.6,55.9
28.5,684.9,545.4,678.5,636.2,78.8
29.25,692.7,552.3,674.5,639.8,76.4
30.0,699.3,586.9,688.7,658.3,62.1
30.75,722.5,595.0,710.8,676.1,70.5
31.5,788.3,621.1,739.3,716.2,85.9
32.25,767.4,622.2,745.8,711.8,78.3
33.0,772.6,646.8,777.9,732.4,74.2
33.75,793.5,643.4,769.4,735.4,80.6
34.5,794.7,644.6,762.6,734.0,79.0
35.25,798.8,656.2,763.6,739.6,74.3
36.0,810.0,650.4,776.8,745.8,84.3
36.75,783.4,672.8,762.8,739.7,58.8
37.5,786.0,685.8,762.0,744.6,52.3
38.25,799.7,693.6,781.3,758.2,56.7
39.0,802.7,699.7,774.2,758.9,53.2
39.75,783.3,657.2,758.1,732.9,66.8
40.5,797.6,685.7,719.3,734.2,57.4
41.25,787.5,684.7,732.6,734.9,51.4
42.0,761.3,686.4,719.4,722.3,37.5
42.75,771.8,703.3,684.4,719.8,46.0
43.5,755.8,717.6,731.8,735.1,19.3
44.25,736.2,692.5,711.8,713.5,21.9
45.0,735.1,672.3,682.3,696.6,33.7
45.75,751.9,682.1,680.0,704.7,40.9
46.5,733.8,698.6,691.5,708.0,22.7
47.25,715.4,706.5,687.8,703.2,14.1
48.0,716.8,694.1,690.2,700.4,14.4
48.75,718.8,695.3,686.4,700.2,16.8
49.5,705.3,685.0,666.7,685.7,19.3
50.25,713.4,702.1,689.9,701.8,11.7
51.0,728.6,676.4,683.9,696.3,28.2
51.75,688.7,688.5,661.0,679.4,15.9
52.5,690.1,694.5,665.7,683.4,15.5
53.25,667.1,684.5,665.3,672.3,10.6
54.0,663.4,668.8,653.0,661.8,8.0
54.75,652.6,650.3,647.9,650.3,2.4
55.5,638.0,638.0,638.2,638.0,0.1
56.25,618.2,666.0,629.3,637.8,25.0
57.0,610.9,634.2,624.3,623.1,11.7
57.75,603.7,621.7,628.0,617.8,12.6
58.5,585.2,619.4,597.4,600.7,17.3
59.25,580.3,620.1,595.9,598.8,20.1
60.0,555.4,609.0,568.8,577.8,27.9
60.75,554.8,587.4,564.1,568.8,16.8
61.5,550.4,575.7,549.9,558.7,14.8
62.25,534.9,555.4,534.1,541.4,12.1
63.0,503.2,546.1,516.9,522.1,22.0
63.75,487.8,531.2,514.4,511.1,21.8
64.5,468.8,524.3,513.4,502.1,29.4
65.25,457.1,508.7,492.9,486.2,26.4
66.0,440.3,500.2,492.6,477.7,32.6
66.75,428.7,482.4,481.1,464.1,30.6
67.5,408.5,472.1,471.0,450.5,36.4
68.25,413.1,447.7,463.8,441.5,25.9
69.0,395.9,440.0,454.5,430.1,30.5
69.75,394.5,432.2,441.2,422.6,24.8
70.5,384.3,409.9,444.2,412.8,30.1
71.25,370.3,418.4,433.5,407.4,33.0
72.0,373.5,396.5,428.3,399.4,27.5
72.75,366.1,383.1,424.9,391.3,30.2
73.5,349.7,374.9,420.1,381.6,35.7
74.25,343.7,379.0,404.1,375.6,30.4
75.0,329.1,363.7,398.2,363.7,34.5
75.75,328.7,355.0,393.4,359.0,32.6
76.5,323.6,349.7,384.8,352.7,30.7
77.25,322.6,336.6,371.4,343.5,25.1
78.0,315.0,334.9,369.7,339.9,27.7
78.75,303.7,328.4,356.3,329.5,26.3
79.5,301.5,327.3,347.6,325.5,23.1
80.25,295.5,324.9,343.8,321.4,24.3
81.0,294.0,317.2,333.1,314.8,19.7
81.75,286.1,311.7,332.2,310.0,23.1
82.5,283.9,314.3,325.9,308.1,21.7
83.25,276.2,302.6,321.5,300.1,22.7
84.0,273.6,297.4,314.7,295.2,20.6
84.75,263.3,290.0,309.4,287.6,23.2
85.5,258.7,293.6,301.0,284.4,22.6
86.25,261.5,287.6,298.3,282.5,18.9
87.0,255.4,283.4,287.1,275.3,17.3
87.75,253.0,278.5,287.2,272.9,17.7
88.5,244.1,268.5,287.5,266.7,21.8
89.25,245.6,264.0,278.3,262.6,16.4
90.0,244.3,260.8,274.4,259.8,15.1
90.75,235.6,254.8,268.6,253.0,16.6
91.5,242.2,252.2,262.1,252.2,9.9
92.25,235.7,247.8,256.2,246.5,10.3
93.0,232.9,241.6,259.3,244.6,13.5
93.75,230.5,235.3,256.6,240.8,13.9
94.5,230.5,234.7,254.2,239.8,12.6
95.25,222.2,236.2,249.8,236.1,13.8
96.0,223.9,229.5,247.4,233.6,12.3
96.75,217.0,223.4,242.6,227.7,13.3
97.5,211.8,220.0,238.9,223.6,13.9
98.25,212.4,218.1,233.3,221.3,10.8
99.0,211.3,214.5,227.8,217.9,8.8
99.75,208.8,216.0,228.6,217.8,10.0
100.5,205.9,212.7,223.2,213.9,8.7
101.25,204.9,208.0,220.6,211.2,8.3
102.0,203.2,202.6,217.1,207.6,8.2
102.75,199.3,200.9,215.2,205.1,8.7
103.5,200.7,201.3,213.6,205.2,7.3
104.25,196.1,199.8,210.7,202.2,7.6
105.0,197.0,196.7,204.0,199.2,4.2
105.75,197.3,193.9,207.1,199.5,6.9
106.5,194.1,188.5,203.6,195.4,7.6
107.25,191.3,189.5,202.9,194.6,7.3
108.0,187.0,188.0,196.0,190.3,5.0
108.75,184.8,188.2,198.5,190.5,7.1
109.5,184.1,186.4,196.6,189.0,6.6
110.25,179.7,183.7,193.5,185.6,7.1
111.0,178.2,182.7,194.5,185.1,8.4
111.75,176.2,180.7,189.6,182.2,6.8
112.5,175.7,180.0,187.7,181.1,6.1
113.25,175.7,179.0,187.4,180.7,6.0
114.0,175.2,179.1,186.0,180.1,5.4
114.75,175.0,175.0,180.8,176.9,3.4
115.5,172.1,175.8,184.9,177.6,6.6
116.25,171.2,172.4,187.5,177.1,9.1
117.0,170.3,172.2,182.5,175.0,6.5
117.75,171.6,171.6,183.6,175.6,6.9
118.5,171.3,169.3,181.3,174.0,6.4
119.25,171.7,169.5,180.4,173.9,5.8
120.0,169.7,162.2,179.4,170.5,8.6
120.75,172.9,165.8,181.6,173.4,7.9
121.5,171.9,162.2,178.8,171.0,8.3
122.25,173.5,159.4,177.3,170.1,9.4
123.0,171.6,157.1,179.6,169.4,11.4
123.75,170.7,157.7,177.1,168.5,9.9
124.5,168.7,156.5,175.7,166.9,9.7
125.25,167.9,153.0,176.9,165.9,12.1
126.0,170.2,156.3,176.2,167.6,10.2
126.75,168.7,152.6,172.0,164.5,10.4
127.5,166.5,153.0,171.8,163.8,9.7
128.25,166.5,153.3,170.2,163.3,8.8
129.0,166.1,151.2,168.7,162.0,9.4
129.75,163.6,151.4,169.1,161.4,9.1
130.5,163.8,150.2,169.7,161.2,10.0
131.25,160.4,148.7,164.3,157.8,8.1
132.0,162.0,146.3,160.9,156.4,8.7
132.75,159.5,146.6,163.9,156.7,9.0
133.5,162.0,144.9,162.4,156.4,10.0
134.25,161.2,144.7,160.7,155.5,9.4
135.0,160.2,145.7,159.1,155.0,8.1
135.75,159.0,144.1,160.6,154.6,9.1
136.5,160.1,141.0,156.0,152.3,10.1
137.25,157.3,139.0,157.9,151.4,10.7
138.0,154.0,139.0,156.8,149.9,9.6
138.75,160.2,139.9,154.4,151.5,10.4
139.5,159.8,138.1,153.8,150.6,11.2
140.25,157.1,139.2,150.3,148.9,9.1
141.0,158.1,139.4,153.3,150.3,9.7
141.75,156.8,136.6,150.7,148.0,10.4
142.5,156.3,134.6,147.2,146.0,10.9
143.25,156.3,137.6,148.4,147.4,9.4
144.0,154.9,134.1,146.3,145.1,10.5
144.75,154.3,132.0,145.0,143.8,11.2
145.5,154.0,133.3,147.3,144.8,10.6
146.25,151.8,135.5,144.1,143.8,8.2
147.0,153.7,133.8,144.2,143.9,10.0
147.75,154.4,133.5,141.6,143.2,10.6
148.5,155.2,130.5,143.0,142.9,12.4
149.25,151.5,132.3,139.8,141.2,9.7
150.0,153.8,130.4,138.9,141.0,11.8
150.75,151.4,129.8,133.8,138.3,11.5
151.5,152.7,130.2,135.9,139.6,11.7
152.25,150.6,130.5,132.9,138.0,11.0
153.0,148.7,128.8,133.0,136.8,10.5
153.75,149.2,128.7,129.9,136.0,11.5
154.5,148.5,128.0,130.0,135.5,11.3
155.25,148.6,126.2,127.8,134.2,12.5
156.0,144.5,124.3,127.1,132.0,11.0
156.75,145.8,123.4,124.9,131.3,12.5
157.5,145.6,122.9,123.3,130.6,13.0
158.25,145.4,122.2,121.1,129.5,13.7
159.0,145.7,118.5,121.3,128.5,15.0
159.75,141.0,120.5,119.3,126.9,12.2
160.5,139.7,119.7,118.6,126.0,11.9
161.25,141.3,117.7,116.8,125.3,13.9
162.0,142.5,117.1,116.8,125.5,14.8
162.75,141.2,117.2,114.8,124.4,14.6
163.5,136.3,116.3,113.6,122.0,12.4
164.25,133.9,117.0,110.5,120.5,12.1
165.0,134.9,115.7,108.2,119.6,13.8
165.75,133.3,116.5,106.2,118.7,13.7
166.5,132.4,115.1,103.7,117.1,14.4
167.25,129.4,114.0,100.5,114.6,14.4
168.0,127.5,113.8,97.2,112.8,15.2
168.75,125.8,113.1,92.7,110.5,16.7
169.5,122.6,113.1,88.0,107.9,17.9
170.25,117.8,112.3,82.5,104.2,19.0
171.0,116.6,111.0,77.2,101.6,21.3
171.75,112.3,110.9,71.6,98.3,23.1
172.5,110.1,111.2,65.9,95.7,25.8
173.25,107.9,109.8,59.3,92.3,28.6
174.0,105.4,107.1,54.8,89.1,29.7
174.75,103.6,105.6,50.1,86.4,31.5
175.5,98.2,106.8,46.2,83.7,32.8
176.25,91.8,107.5,42.5,80.6,33.9
177.0,88.2,104.2,,96.2,11.3
177.75,80.9,102.3,,91.6,15.2
178.5,75.2,102.0,,88.6,18.9
179.25,70.2,98.8,,84.5,20.2
180.0,65.2,98.4,,81.8,23.5
180.75,59.5,96.1,,77.8,25.9
181.5,54.5,96.0,,75.3,29.3
182.25,47.2,94.0,,70.6,33.0
183.0,43.2,92.7,,67.9,35.0
183.25,41.2,91.9,,66.5,35.8