Folder: fsri_materials_database/01_Data/Wood_Stud/FTIR/IS (part 2)

File: Wood_Stud_IS_S_221031_R5.dpt
7497.03,0.84482
7473.89,0.84135
7450.74,0.84188
7427.6,0.81741
7404.45,0.82076
7381.31,0.81193
7358.16,0.79639
7335.02,0.80645
7311.87,0.80176
7288.73,0.79034
7265.58,0.78244
7242.44,0.78692
7219.29,0.77518
7196.15,0.77184
7173,0.76638
7149.86,0.74342
7126.71,0.73596
7103.57,0.71878
7080.42,0.70363
7057.28,0.68511
7034.13,0.66424
7010.99,0.65780
6987.84,0.64475
6964.7,0.64046
6941.55,0.62637
6918.41,0.63130
6895.26,0.62501
6872.12,0.62770
6848.97,0.62914
6825.83,0.62774
6802.68,0.62650
6779.54,0.62273
6756.39,0.62715
6733.25,0.62565
6710.1,0.62996
6686.96,0.63494
6663.82,0.63967
6640.67,0.63784
6617.53,0.64332
6594.38,0.64379
6571.24,0.64963
6548.09,0.65277
6524.95,0.65576
6501.8,0.66109
6478.66,0.65882
6455.51,0.65903
6432.37,0.66725
6409.22,0.66063
6386.08,0.66849
6362.93,0.66473
6339.79,0.66451
6316.64,0.66796
6293.5,0.67702
6270.35,0.67976
6247.21,0.68455
6224.06,0.68994
6200.92,0.69727
6177.77,0.70447
6154.63,0.70841
6131.48,0.71275
6108.34,0.71837
6085.19,0.71579
6062.05,0.71739
6038.9,0.71344
6015.76,0.70579
5992.61,0.70166
5969.47,0.70054
5946.32,0.69924
5923.18,0.70340
5900.03,0.69837
5876.89,0.69255
5853.74,0.69363
5830.6,0.69113
5807.45,0.68612
5784.31,0.68717
5761.16,0.69054
5738.02,0.69095
5714.87,0.68948
5691.73,0.68863
5668.58,0.68549
5645.44,0.68692
5622.29,0.68430
5599.15,0.68453
5576,0.68754
5552.86,0.68667
5529.71,0.69147
5506.57,0.69177
5483.42,0.69320
5460.28,0.69675
5437.13,0.69897
5413.99,0.70312
5390.84,0.70544
5367.7,0.70354
5344.55,0.70075
5321.41,0.68983
5298.26,0.66758
5275.12,0.63122
5251.97,0.58920
5228.83,0.55809
5205.68,0.54424
5182.54,0.54105
5159.39,0.55047
5136.25,0.56160
5113.1,0.57607
5089.96,0.58628
5066.81,0.59717
5043.67,0.60679
5020.52,0.61530
4997.38,0.61815
4974.23,0.61303
4951.09,0.60376
4927.94,0.58475
4904.8,0.56505
4881.65,0.54665
4858.51,0.52871
4835.36,0.51290
4812.22,0.50263
4789.07,0.49615
4765.93,0.49378
4742.78,0.49420
4719.64,0.49839
4696.49,0.50215
4673.35,0.50705
4650.2,0.51541
4627.06,0.52611
4603.92,0.53788
4580.77,0.54883
4557.63,0.55519
4534.48,0.55969
4511.34,0.56198
4488.19,0.55228
4465.05,0.53238
4441.9,0.50381
4418.76,0.47443
4395.61,0.45962
4372.47,0.46537
4349.32,0.47066
4326.18,0.46477
4303.03,0.45437
4279.89,0.44733
4256.74,0.45113
4233.6,0.45411
4210.45,0.45427
4187.31,0.45582
4164.16,0.45994
4141.02,0.45613
4117.87,0.44092
4094.73,0.42035
4071.58,0.39734
4048.44,0.37553
4025.29,0.36053
4002.15,0.35903
3979,0.36491
3955.86,0.37315
3932.71,0.38509
3909.57,0.39579
3886.42,0.40617
3863.28,0.41521
3840.13,0.42507
3816.99,0.42801
3793.84,0.42668
3770.7,0.42276
3747.55,0.41431
3724.41,0.39693
3701.26,0.36431
3678.12,0.30201
3654.97,0.21995
3631.83,0.16172
3608.68,0.12171
3585.54,0.09312
3562.39,0.07554
3539.25,0.06467
3516.1,0.05706
3492.96,0.05195
3469.81,0.04973
3446.67,0.04841
3423.52,0.04858
3400.38,0.04933
3377.23,0.05038
3354.09,0.05197
3330.94,0.05479
3307.8,0.05872
3284.65,0.06146
3261.51,0.06670
3238.36,0.07297
3215.22,0.08045
3192.07,0.08943
3168.93,0.09920
3145.78,0.10885
3122.64,0.11987
3099.49,0.13131
3076.35,0.14042
3053.2,0.15008
3030.06,0.15591
3006.91,0.14902
2983.77,0.13257
2960.62,0.10243
2937.48,0.08763
2914.33,0.08511
2891.19,0.08770
2868.04,0.09545
2844.9,0.11138
2821.75,0.14162
2798.61,0.16459
2775.46,0.17493
2752.32,0.17938
2729.17,0.18264
2706.03,0.19251
2682.88,0.20345
2659.74,0.21198
2636.59,0.22022
2613.45,0.22854
2590.3,0.23582
2567.16,0.23964
2544.02,0.24123
2520.87,0.24788
2497.73,0.25764
2474.58,0.26844
2451.44,0.27766
2428.29,0.28925
2405.15,0.30237
2382,0.31348
2358.86,0.32269
2335.71,0.32791
2312.57,0.33035
2289.42,0.32732
2266.28,0.32143
2243.13,0.31588
2219.99,0.31270
2196.84,0.30713
2173.7,0.29304
2150.55,0.28364
2127.41,0.28059
2104.26,0.28543
2081.12,0.28710
2057.97,0.28263
2034.83,0.28919
2011.68,0.30368
1988.54,0.31310
1965.39,0.32153
1942.25,0.33488
1919.1,0.34239
1895.96,0.34253
1872.81,0.34068
1849.67,0.33616
1826.52,0.32629
1803.38,0.30688
1780.23,0.26216
1757.09,0.15028
1733.94,0.11459
1710.8,0.15144
1687.65,0.15548
1664.51,0.10968
1641.36,0.11112
1618.22,0.10937
1595.07,0.10158
1571.93,0.14902
1548.78,0.17378
1525.64,0.11582
1502.49,0.07564
1479.35,0.08695
1456.2,0.06558
1433.06,0.06141
1409.91,0.06911
1386.77,0.06296
1363.62,0.06089
1340.48,0.06219
1317.33,0.06024
1294.19,0.06114
1271.04,0.05192
1247.9,0.05671
1224.75,0.05686
1201.61,0.05902
1178.46,0.04826
1155.32,0.04959
1132.17,0.04241
1109.03,0.04850
1085.88,0.04914
1062.74,0.07108
1039.59,0.07524
1016.45,0.08748
993.304,0.09412
970.159,0.11354
947.014,0.12872
923.869,0.13726
900.724,0.11598
877.579,0.12747
854.434,0.13536
831.289,0.13429
808.144,0.11803
784.999,0.12210
761.854,0.11289
738.709,0.10497
715.565,0.09621
692.42,0.08985
669.275,0.08158
646.13,0.08176
622.985,0.07616
599.84,0.08039

File: Wood_Stud_IS_S_221031_R6.dpt
7497.03,0.83232
7473.89,0.85839
7450.74,0.83120
7427.6,0.81715
7404.45,0.80957
7381.31,0.80553
7358.16,0.80009
7335.02,0.80394
7311.87,0.78564
7288.73,0.78262
7265.58,0.78459
7242.44,0.79097
7219.29,0.78140
7196.15,0.78623
7173,0.76586
7149.86,0.75326
7126.71,0.74397
7103.57,0.72182
7080.42,0.70822
7057.28,0.68812
7034.13,0.66441
7010.99,0.64961
6987.84,0.64412
6964.7,0.63012
6941.55,0.63411
6918.41,0.62970
6895.26,0.62802
6872.12,0.62707
6848.97,0.63350
6825.83,0.62564
6802.68,0.62629
6779.54,0.63153
6756.39,0.63082
6733.25,0.63013
6710.1,0.63178
6686.96,0.63268
6663.82,0.63850
6640.67,0.64203
6617.53,0.64745
6594.38,0.65583
6571.24,0.65066
6548.09,0.65683
6524.95,0.65520
6501.8,0.65807
6478.66,0.65625
6455.51,0.65882
6432.37,0.66148
6409.22,0.66648
6386.08,0.66645
6362.93,0.66673
6339.79,0.67075
6316.64,0.67048
6293.5,0.67688
6270.35,0.67491
6247.21,0.68307
6224.06,0.69074
6200.92,0.69592
6177.77,0.70609
6154.63,0.70916
6131.48,0.71513
6108.34,0.71530
6085.19,0.71621
6062.05,0.71698
6038.9,0.71190
6015.76,0.70653
5992.61,0.70303
5969.47,0.69982
5946.32,0.70127
5923.18,0.70266
5900.03,0.69796
5876.89,0.69107
5853.74,0.69678
5830.6,0.68841
5807.45,0.68786
5784.31,0.68994
5761.16,0.69146
5738.02,0.69210
5714.87,0.68991
5691.73,0.68952
5668.58,0.68731
5645.44,0.68575
5622.29,0.68697
5599.15,0.68514
5576,0.68771
5552.86,0.68936
5529.71,0.69072
5506.57,0.69176
5483.42,0.69251
5460.28,0.69735
5437.13,0.70036
5413.99,0.70549
5390.84,0.70659
5367.7,0.70772
5344.55,0.70401
5321.41,0.69141
5298.26,0.67037
5275.12,0.63437
5251.97,0.59234
5228.83,0.56264
5205.68,0.54753
5182.54,0.54594
5159.39,0.55219
5136.25,0.56479
5113.1,0.57675
5089.96,0.58841
5066.81,0.59865
5043.67,0.61037
5020.52,0.61599
4997.38,0.61989
4974.23,0.61448
4951.09,0.60381
4927.94,0.58567
4904.8,0.56455
4881.65,0.54573
4858.51,0.52850
4835.36,0.51424
4812.22,0.50231
4789.07,0.49748
4765.93,0.49449
4742.78,0.49514
4719.64,0.49952
4696.49,0.50125
4673.35,0.50840
4650.2,0.51798
4627.06,0.52667
4603.92,0.53969
4580.77,0.54939
4557.63,0.55703
4534.48,0.56068
4511.34,0.56228
4488.19,0.55384
4465.05,0.53240
4441.9,0.50500
4418.76,0.47518
4395.61,0.46135
4372.47,0.46739
4349.32,0.47228
4326.18,0.46530
4303.03,0.45457
4279.89,0.44871
4256.74,0.45308
4233.6,0.45467
4210.45,0.45513
4187.31,0.45667
4164.16,0.46155
4141.02,0.45646
4117.87,0.44204
4094.73,0.42162
4071.58,0.39793
4048.44,0.37593
4025.29,0.36083
4002.15,0.35931
3979,0.36468
3955.86,0.37486
3932.71,0.38599
3909.57,0.39694
3886.42,0.40727
3863.28,0.41590
3840.13,0.42641
3816.99,0.42959
3793.84,0.42831
3770.7,0.42443
3747.55,0.41571
3724.41,0.39852
3701.26,0.36644
3678.12,0.30346
3654.97,0.22126
3631.83,0.16328
3608.68,0.12319
3585.54,0.09395
3562.39,0.07639
3539.25,0.06490
3516.1,0.05742
3492.96,0.05271
3469.81,0.04917
3446.67,0.04896
3423.52,0.04867
3400.38,0.05035
3377.23,0.05003
3354.09,0.05171
3330.94,0.05478
3307.8,0.05801
3284.65,0.06140
3261.51,0.06676
3238.36,0.07316
3215.22,0.08113
3192.07,0.08951
3168.93,0.09944
3145.78,0.10986
3122.64,0.12073
3099.49,0.13221
3076.35,0.14127
3053.2,0.15109
3030.06,0.15619
3006.91,0.14909
2983.77,0.13281
2960.62,0.10317
2937.48,0.08760
2914.33,0.08581
2891.19,0.08831
2868.04,0.09554
2844.9,0.11147
2821.75,0.14223
2798.61,0.16451
2775.46,0.17519
2752.32,0.17997
2729.17,0.18317
2706.03,0.19241
2682.88,0.20415
2659.74,0.21227
2636.59,0.22026
2613.45,0.22949
2590.3,0.23655
2567.16,0.24043
2544.02,0.24216
2520.87,0.24789
2497.73,0.25826
2474.58,0.26914
2451.44,0.27798
2428.29,0.29000
2405.15,0.30286
2382,0.31409
2358.86,0.32295
2335.71,0.32927
2312.57,0.33123
2289.42,0.32832
2266.28,0.32254
2243.13,0.31669
2219.99,0.31394
2196.84,0.30854
2173.7,0.29427
2150.55,0.28422
2127.41,0.28189
2104.26,0.28645
2081.12,0.28844
2057.97,0.28377
2034.83,0.29016
2011.68,0.30468
1988.54,0.31445
1965.39,0.32290
1942.25,0.33577
1919.1,0.34342
1895.96,0.34335
1872.81,0.34192
1849.67,0.33741
1826.52,0.32733
1803.38,0.30785
1780.23,0.26223
1757.09,0.15026
1733.94,0.11461
1710.8,0.15172
1687.65,0.15604
1664.51,0.10984
1641.36,0.11158
1618.22,0.10948
1595.07,0.10127
1571.93,0.14906
1548.78,0.17463
1525.64,0.11615
1502.49,0.07569
1479.35,0.08670
1456.2,0.06587
1433.06,0.06137
1409.91,0.06926
1386.77,0.06294
1363.62,0.06073
1340.48,0.06196
1317.33,0.06004
1294.19,0.06154
1271.04,0.05145
1247.9,0.05746
1224.75,0.05664
1201.61,0.05850
1178.46,0.04797
1155.32,0.04948
1132.17,0.04239
1109.03,0.04811
1085.88,0.04945
1062.74,0.07067
1039.59,0.07530
1016.45,0.08752
993.304,0.09440
970.159,0.11337
947.014,0.12890
923.869,0.13770
900.724,0.11560
877.579,0.12672
854.434,0.13483
831.289,0.13496
808.144,0.11851
784.999,0.12139
761.854,0.11356
738.709,0.10548
715.565,0.09546
692.42,0.08896
669.275,0.08089
646.13,0.08179
622.985,0.07675
599.84,0.08271

File: Wood_Stud_IS_S_221031_R7.dpt
7497.03,0.85416
7473.89,0.84345
7450.74,0.82229
7427.6,0.82975
7404.45,0.81367
7381.31,0.80344
7358.16,0.80594
7335.02,0.78498
7311.87,0.78915
7288.73,0.78865
7265.58,0.79463
7242.44,0.77970
7219.29,0.77693
7196.15,0.77215
7173,0.77200
7149.86,0.75150
7126.71,0.74990
7103.57,0.71843
7080.42,0.70564
7057.28,0.69078
7034.13,0.67531
7010.99,0.65298
6987.84,0.63651
6964.7,0.63861
6941.55,0.63358
6918.41,0.62990
6895.26,0.62653
6872.12,0.63332
6848.97,0.62268
6825.83,0.62263
6802.68,0.62843
6779.54,0.62877
6756.39,0.62318
6733.25,0.63442
6710.1,0.63238
6686.96,0.63601
6663.82,0.63930
6640.67,0.63987
6617.53,0.64122
6594.38,0.64356
6571.24,0.65462
6548.09,0.65580
6524.95,0.65573
6501.8,0.65740
6478.66,0.65422
6455.51,0.66106
6432.37,0.66314
6409.22,0.66512
6386.08,0.66664
6362.93,0.66406
6339.79,0.66805
6316.64,0.67248
6293.5,0.67681
6270.35,0.67812
6247.21,0.68745
6224.06,0.69031
6200.92,0.70012
6177.77,0.70090
6154.63,0.70542
6131.48,0.71399
6108.34,0.71611
6085.19,0.71891
6062.05,0.71810
6038.9,0.71176
6015.76,0.70833
5992.61,0.69995
5969.47,0.69908
5946.32,0.70167
5923.18,0.70393
5900.03,0.69691
5876.89,0.69455
5853.74,0.69472
5830.6,0.69246
5807.45,0.68738
5784.31,0.68693
5761.16,0.69326
5738.02,0.69038
5714.87,0.69126
5691.73,0.69055
5668.58,0.68813
5645.44,0.68631
5622.29,0.68639
5599.15,0.68495
5576,0.68568
5552.86,0.69012
5529.71,0.69130
5506.57,0.69395
5483.42,0.69379
5460.28,0.69630
5437.13,0.69818
5413.99,0.70500
5390.84,0.70766
5367.7,0.70646
5344.55,0.70265
5321.41,0.69288
5298.26,0.67017
5275.12,0.63426
5251.97,0.59216
5228.83,0.56236
5205.68,0.54862
5182.54,0.54959
5159.39,0.55581
5136.25,0.56728
5113.1,0.57970
5089.96,0.59186
5066.81,0.60258
5043.67,0.61185
5020.52,0.61880
4997.38,0.62099
4974.23,0.61580
4951.09,0.60473
4927.94,0.58557
4904.8,0.56527
4881.65,0.54618
4858.51,0.52859
4835.36,0.51410
4812.22,0.50232
4789.07,0.49814
4765.93,0.49416
4742.78,0.49593
4719.64,0.49818
4696.49,0.50172
4673.35,0.50652
4650.2,0.51649
4627.06,0.52654
4603.92,0.53913
4580.77,0.55023
4557.63,0.55722
4534.48,0.56092
4511.34,0.56328
4488.19,0.55430
4465.05,0.53194
4441.9,0.50506
4418.76,0.47488
4395.61,0.46005
4372.47,0.46729
4349.32,0.47181
4326.18,0.46498
4303.03,0.45470
4279.89,0.44796
4256.74,0.45226
4233.6,0.45495
4210.45,0.45465
4187.31,0.45632
4164.16,0.46221
4141.02,0.45711
4117.87,0.44188
4094.73,0.42113
4071.58,0.39901
4048.44,0.37630
4025.29,0.36156
4002.15,0.35912
3979,0.36517
3955.86,0.37435
3932.71,0.38645
3909.57,0.39687
3886.42,0.40755
3863.28,0.41612
3840.13,0.42713
3816.99,0.43015
3793.84,0.42817
3770.7,0.42513
3747.55,0.41648
3724.41,0.40027
3701.26,0.36821
3678.12,0.30606
3654.97,0.22366
3631.83,0.16532
3608.68,0.12414
3585.54,0.09398
3562.39,0.07597
3539.25,0.06472
3516.1,0.05757
3492.96,0.05294
3469.81,0.05003
3446.67,0.04856
3423.52,0.04896
3400.38,0.04950
3377.23,0.05063
3354.09,0.05206
3330.94,0.05538
3307.8,0.05853
3284.65,0.06215
3261.51,0.06747
3238.36,0.07418
3215.22,0.08151
3192.07,0.09001
3168.93,0.10011
3145.78,0.11045
3122.64,0.12171
3099.49,0.13288
3076.35,0.14159
3053.2,0.15146
3030.06,0.15703
3006.91,0.14929
2983.77,0.13303
2960.62,0.10307
2937.48,0.08817
2914.33,0.08557
2891.19,0.08829
2868.04,0.09510
2844.9,0.11167
2821.75,0.14198
2798.61,0.16486
2775.46,0.17576
2752.32,0.17990
2729.17,0.18306
2706.03,0.19297
2682.88,0.20418
2659.74,0.21226
2636.59,0.22078
2613.45,0.22925
2590.3,0.23625
2567.16,0.24055
2544.02,0.24180
2520.87,0.24810
2497.73,0.25836
2474.58,0.26876
2451.44,0.27832
2428.29,0.28993
2405.15,0.30360
2382,0.31417
2358.86,0.32328
2335.71,0.32947
2312.57,0.33159
2289.42,0.32905
2266.28,0.32285
2243.13,0.31750
2219.99,0.31447
2196.84,0.30921
2173.7,0.29503
2150.55,0.28511
2127.41,0.28211
2104.26,0.28749
2081.12,0.28915
2057.97,0.28428
2034.83,0.29132
2011.68,0.30559
1988.54,0.31486
1965.39,0.32348
1942.25,0.33656
1919.1,0.34459
1895.96,0.34408
1872.81,0.34281
1849.67,0.33769
1826.52,0.32805
1803.38,0.30844
1780.23,0.26259
1757.09,0.14997
1733.94,0.11502
1710.8,0.15263
1687.65,0.15698
1664.51,0.11079
1641.36,0.11219
1618.22,0.11043
1595.07,0.10145
1571.93,0.14942
1548.78,0.17502
1525.64,0.11603
1502.49,0.07601
1479.35,0.08701
1456.2,0.06533
1433.06,0.06143
1409.91,0.06929
1386.77,0.06321
1363.62,0.06120
1340.48,0.06179
1317.33,0.06054
1294.19,0.06108
1271.04,0.05163
1247.9,0.05681
1224.75,0.05674
1201.61,0.05870
1178.46,0.04805
1155.32,0.04973
1132.17,0.04240
1109.03,0.04787
1085.88,0.04974
1062.74,0.07099
1039.59,0.07544
1016.45,0.08758
993.304,0.09467
970.159,0.11306
947.014,0.12854
923.869,0.13712
900.724,0.11595
877.579,0.12713
854.434,0.13552
831.289,0.13501
808.144,0.11857
784.999,0.12358
761.854,0.11448
738.709,0.10602
715.565,0.09633
692.42,0.09137
669.275,0.08070
646.13,0.08252
622.985,0.07789
599.84,0.08088

File: Wood_Stud_IS_S_221031_R8.dpt
7497.03,0.84121
7473.89,0.83144
7450.74,0.83587
7427.6,0.82576
7404.45,0.82043
7381.31,0.81320
7358.16,0.80313
7335.02,0.80323
7311.87,0.79439
7288.73,0.78969
7265.58,0.77928
7242.44,0.78784
7219.29,0.78253
7196.15,0.76753
7173,0.76620
7149.86,0.75145
7126.71,0.74094
7103.57,0.72555
7080.42,0.71064
7057.28,0.69050
7034.13,0.66460
7010.99,0.65368
6987.84,0.64218
6964.7,0.63409
6941.55,0.63577
6918.41,0.63102
6895.26,0.62811
6872.12,0.62665
6848.97,0.63071
6825.83,0.62488
6802.68,0.63107
6779.54,0.62325
6756.39,0.62530
6733.25,0.63215
6710.1,0.63130
6686.96,0.63777
6663.82,0.64067
6640.67,0.64406
6617.53,0.64784
6594.38,0.65103
6571.24,0.65189
6548.09,0.65692
6524.95,0.65603
6501.8,0.65638
6478.66,0.66043
6455.51,0.66182
6432.37,0.66127
6409.22,0.66618
6386.08,0.66437
6362.93,0.66816
6339.79,0.66726
6316.64,0.66654
6293.5,0.67083
6270.35,0.67596
6247.21,0.68328
6224.06,0.69018
6200.92,0.69861
6177.77,0.70257
6154.63,0.70920
6131.48,0.71365
6108.34,0.71598
6085.19,0.71694
6062.05,0.71944
6038.9,0.71015
6015.76,0.70514
5992.61,0.70105
5969.47,0.69860
5946.32,0.70182
5923.18,0.70223
5900.03,0.69696
5876.89,0.69551
5853.74,0.69128
5830.6,0.69244
5807.45,0.68516
5784.31,0.68901
5761.16,0.69094
5738.02,0.68974
5714.87,0.69065
5691.73,0.68742
5668.58,0.68753
5645.44,0.68711
5622.29,0.68839
5599.15,0.68490
5576,0.68647
5552.86,0.68924
5529.71,0.68947
5506.57,0.69091
5483.42,0.69248
5460.28,0.69545
5437.13,0.69972
5413.99,0.70494
5390.84,0.70573
5367.7,0.70705
5344.55,0.70406
5321.41,0.69138
5298.26,0.67045
5275.12,0.63417
5251.97,0.59306
5228.83,0.56609
5205.68,0.55100
5182.54,0.54973
5159.39,0.55436
5136.25,0.56668
5113.1,0.58111
5089.96,0.59242
5066.81,0.60202
5043.67,0.61128
5020.52,0.61870
4997.38,0.62079
4974.23,0.61764
4951.09,0.60346
4927.94,0.58568
4904.8,0.56520
4881.65,0.54536
4858.51,0.52812
4835.36,0.51405
4812.22,0.50219
4789.07,0.49647
4765.93,0.49399
4742.78,0.49492
4719.64,0.49802
4696.49,0.50233
4673.35,0.50826
4650.2,0.51678
4627.06,0.52720
4603.92,0.53949
4580.77,0.54955
4557.63,0.55663
4534.48,0.56174
4511.34,0.56155
4488.19,0.55384
4465.05,0.53126
4441.9,0.50446
4418.76,0.47437
4395.61,0.45966
4372.47,0.46623
4349.32,0.47102
4326.18,0.46496
4303.03,0.45458
4279.89,0.44832
4256.74,0.45195
4233.6,0.45426
4210.45,0.45398
4187.31,0.45624
4164.16,0.46156
4141.02,0.45630
4117.87,0.44183
4094.73,0.42126
4071.58,0.39763
4048.44,0.37608
4025.29,0.36189
4002.15,0.35925
3979,0.36537
3955.86,0.37417
3932.71,0.38607
3909.57,0.39762
3886.42,0.40732
3863.28,0.41625
3840.13,0.42696
3816.99,0.43027
3793.84,0.42850
3770.7,0.42571
3747.55,0.41682
3724.41,0.40064
3701.26,0.36843
3678.12,0.30674
3654.97,0.22467
3631.83,0.16658
3608.68,0.12423
3585.54,0.09575
3562.39,0.07666
3539.25,0.06515
3516.1,0.05731
3492.96,0.05255
3469.81,0.04896
3446.67,0.04834
3423.52,0.04870
3400.38,0.04920
3377.23,0.05015
3354.09,0.05192
3330.94,0.05535
3307.8,0.05817
3284.65,0.06167
3261.51,0.06766
3238.36,0.07396
3215.22,0.08146
3192.07,0.08958
3168.93,0.10015
3145.78,0.11098
3122.64,0.12238
3099.49,0.13323
3076.35,0.14226
3053.2,0.15152
3030.06,0.15748
3006.91,0.14987
2983.77,0.13309
2960.62,0.10290
2937.48,0.08768
2914.33,0.08612
2891.19,0.08860
2868.04,0.09520
2844.9,0.11152
2821.75,0.14137
2798.61,0.16478
2775.46,0.17533
2752.32,0.18015
2729.17,0.18352
2706.03,0.19276
2682.88,0.20431
2659.74,0.21229
2636.59,0.22036
2613.45,0.22935
2590.3,0.23650
2567.16,0.24032
2544.02,0.24157
2520.87,0.24811
2497.73,0.25834
2474.58,0.26881
2451.44,0.27849
2428.29,0.28989
2405.15,0.30325
2382,0.31441
2358.86,0.32325
2335.71,0.32973
2312.57,0.33187
2289.42,0.32846
2266.28,0.32327
2243.13,0.31758
2219.99,0.31451
2196.84,0.30930
2173.7,0.29491
2150.55,0.28497
2127.41,0.28269
2104.26,0.28761
2081.12,0.28913
2057.97,0.28445
2034.83,0.29103
2011.68,0.30558
1988.54,0.31595
1965.39,0.32354
1942.25,0.33686
1919.1,0.34463
1895.96,0.34441
1872.81,0.34283
1849.67,0.33818
1826.52,0.32802
1803.38,0.30850
1780.23,0.26237
1757.09,0.14969
1733.94,0.11489
1710.8,0.15241
1687.65,0.15744
1664.51,0.11105
1641.36,0.11274
1618.22,0.11019
1595.07,0.10176
1571.93,0.14932
1548.78,0.17481
1525.64,0.11592
1502.49,0.07588
1479.35,0.08715
1456.2,0.06515
1433.06,0.06127
1409.91,0.06931
1386.77,0.06332
1363.62,0.06083
1340.48,0.06192
1317.33,0.05996
1294.19,0.06088
1271.04,0.05157
1247.9,0.05692
1224.75,0.05659
1201.61,0.05897
1178.46,0.04846
1155.32,0.04995
1132.17,0.04284
1109.03,0.04788
1085.88,0.04952
1062.74,0.07126
1039.59,0.07547
1016.45,0.08797
993.304,0.09464
970.159,0.11335
947.014,0.12893
923.869,0.13744
900.724,0.11668
877.579,0.12685
854.434,0.13570
831.289,0.13528
808.144,0.11942
784.999,0.12319
761.854,0.11461
738.709,0.10572
715.565,0.09723
692.42,0.09119
669.275,0.08165
646.13,0.08219
622.985,0.07544
599.84,0.08189

File: Wood_Stud_IS_T_221031_R3.dpt
7497.03,0.01384
7473.89,0.03121
7450.74,0.02523
7427.6,0.02565
7404.45,0.01740
7381.31,0.02586
7358.16,0.02634
7335.02,0.02388
7311.87,0.01645
7288.73,0.02719
7265.58,0.02238
7242.44,0.02311
7219.29,0.02505
7196.15,0.02178
7173,0.02883
7149.86,0.02599
7126.71,0.01336
7103.57,0.02411
7080.42,0.02259
7057.28,0.02492
7034.13,0.02156
7010.99,0.02804
6987.84,0.02380
6964.7,0.02367
6941.55,0.02062
6918.41,0.02103
6895.26,0.02504
6872.12,0.02053
6848.97,0.01898
6825.83,0.02606
6802.68,0.01865
6779.54,0.02091
6756.39,0.02327
6733.25,0.01454
6710.1,0.02343
6686.96,0.02464
6663.82,0.02141
6640.67,0.02065
6617.53,0.01628
6594.38,0.02049
6571.24,0.02321
6548.09,0.02013
6524.95,0.02547
6501.8,0.01939
6478.66,0.02170
6455.51,0.02135
6432.37,0.02294
6409.22,0.01897
6386.08,0.01981
6362.93,0.02175
6339.79,0.01922
6316.64,0.01888
6293.5,0.02314
6270.35,0.02189
6247.21,0.01665
6224.06,0.02240
6200.92,0.02229
6177.77,0.01774
6154.63,0.02139
6131.48,0.02039
6108.34,0.02026
6085.19,0.02195
6062.05,0.02029
6038.9,0.02294
6015.76,0.02368
5992.61,0.02184
5969.47,0.02180
5946.32,0.02024
5923.18,0.02183
5900.03,0.02113
5876.89,0.02189
5853.74,0.02069
5830.6,0.02292
5807.45,0.01947
5784.31,0.02076
5761.16,0.02175
5738.02,0.02366
5714.87,0.01993
5691.73,0.02169
5668.58,0.02149
5645.44,0.02205
5622.29,0.02333
5599.15,0.02144
5576,0.02251
5552.86,0.02260
5529.71,0.02114
5506.57,0.02035
5483.42,0.02255
5460.28,0.02168
5437.13,0.02016
5413.99,0.02254
5390.84,0.02163
5367.7,0.02176
5344.55,0.02170
5321.41,0.02216
5298.26,0.02166
5275.12,0.01970
5251.97,0.01964
5228.83,0.02238
5205.68,0.02128
5182.54,0.02227
5159.39,0.02017
5136.25,0.02064
5113.1,0.02099
5089.96,0.02074
5066.81,0.02165
5043.67,0.02156
5020.52,0.02128
4997.38,0.02119
4974.23,0.02187
4951.09,0.02097
4927.94,0.02143
4904.8,0.02174
4881.65,0.02150
4858.51,0.02251
4835.36,0.02039
4812.22,0.02204
4789.07,0.02129
4765.93,0.02121
4742.78,0.02104
4719.64,0.02093
4696.49,0.02179
4673.35,0.02235
4650.2,0.02164
4627.06,0.02139
4603.92,0.02162
4580.77,0.02217
4557.63,0.02153
4534.48,0.02163
4511.34,0.02131
4488.19,0.02226
4465.05,0.02167
4441.9,0.02202
4418.76,0.02211
4395.61,0.02118
4372.47,0.02162
4349.32,0.02097
4326.18,0.02214
4303.03,0.02141
4279.89,0.02181
4256.74,0.02104
4233.6,0.02229
4210.45,0.02115
4187.31,0.02192
4164.16,0.02202
4141.02,0.02219
4117.87,0.02233
4094.73,0.02155
4071.58,0.02199
4048.44,0.02223
4025.29,0.02212
4002.15,0.02156
3979,0.02205
3955.86,0.02127
3932.71,0.02219
3909.57,0.02232
3886.42,0.02189
3863.28,0.02245
3840.13,0.02271
3816.99,0.02118
3793.84,0.02181
3770.7,0.02215
3747.55,0.02217
3724.41,0.02228
3701.26,0.02250
3678.12,0.02237
3654.97,0.02209
3631.83,0.02125
3608.68,0.02143
3585.54,0.02044
3562.39,0.02004
3539.25,0.02080
3516.1,0.02109
3492.96,0.02049
3469.81,0.02091
3446.67,0.02048
3423.52,0.02022
3400.38,0.02001
3377.23,0.01984
3354.09,0.02000
3330.94,0.01997
3307.8,0.02015
3284.65,0.01976
3261.51,0.02072
3238.36,0.01995
3215.22,0.02008
3192.07,0.02052
3168.93,0.01989
3145.78,0.02089
3122.64,0.02005
3099.49,0.02027
3076.35,0.02000
3053.2,0.02061
3030.06,0.02061
3006.91,0.02026
2983.77,0.01967
2960.62,0.01914
2937.48,0.01915
2914.33,0.01974
2891.19,0.02014
2868.04,0.02037
2844.9,0.02064
2821.75,0.02083
2798.61,0.02126
2775.46,0.02092
2752.32,0.02126
2729.17,0.02090
2706.03,0.02064
2682.88,0.02070
2659.74,0.02088
2636.59,0.02071
2613.45,0.02100
2590.3,0.02116
2567.16,0.02100
2544.02,0.02115
2520.87,0.02084
2497.73,0.02113
2474.58,0.02081
2451.44,0.02078
2428.29,0.02092
2405.15,0.02106
2382,0.02080
2358.86,0.02116
2335.71,0.02088
2312.57,0.02119
2289.42,0.02096
2266.28,0.02083
2243.13,0.02088
2219.99,0.02052
2196.84,0.02104
2173.7,0.02068
2150.55,0.02109
2127.41,0.02094
2104.26,0.02106
2081.12,0.02090
2057.97,0.02081
2034.83,0.02077
2011.68,0.02054
1988.54,0.02074
1965.39,0.02083
1942.25,0.02075
1919.1,0.02065
1895.96,0.02040
1872.81,0.02031
1849.67,0.02010
1826.52,0.02018
1803.38,0.01960
1780.23,0.01894
1757.09,0.01790
1733.94,0.01914
1710.8,0.01990
1687.65,0.01926
1664.51,0.01792
1641.36,0.01800
1618.22,0.01831
1595.07,0.01873
1571.93,0.01818
1548.78,0.01806
1525.64,0.01839
1502.49,0.01879
1479.35,0.01854
1456.2,0.01889
1433.06,0.01858
1409.91,0.01831
1386.77,0.01814
1363.62,0.01781
1340.48,0.01757
1317.33,0.01687
1294.19,0.01787
1271.04,0.01926
1247.9,0.02012
1224.75,0.01917
1201.61,0.01883
1178.46,0.01842
1155.32,0.01756
1132.17,0.01779
1109.03,0.01801
1085.88,0.01787
1062.74,0.01982
1039.59,0.01977
1016.45,0.01944
993.304,0.02171
970.159,0.02034
947.014,0.01962
923.869,0.01895
900.724,0.01904
877.579,0.01890
854.434,0.01812
831.289,0.01840
808.144,0.01838
784.999,0.01906
761.854,0.01775
738.709,0.01800
715.565,0.01760
692.42,0.01805
669.275,0.01762
646.13,0.01747
622.985,0.01631
599.84,0.01538