Folder: fsri_materials_database/01_Data/Wood_Stud/FTIR/IS

Note: README.md
# Materials and Products Database
### Repository of materials and products properties and fire test data to improve fire modeling and fire investigation.

This project was supported in part by Award No. 2019-DU-BX-0018, awarded by the National Institute of Justice, Office of Justice Programs, U.S. Department of Justice. The opinions, findings, and conclusions or recommendations expressed in this publication / program / exhibition are those of the author(s) and do not necessarily reflect those of the Department of Justice.

***
***

__Cite this database:__ "McKinnon, M., Weinschenk, C., Dow, N., DiDomizio, M., and Madrzykowski, D. Materials and Products Database (Version 1.0.0), Fire Safety Research Institute, UL Research Institutes. Columbia, MD 21045, 2023."

__Cite the Technical Reference Guide:__ "McKinnon, M., Weinschenk, C., and Madrzykowski, D. Materials and Products Database - Technical Reference Guide, Fire Safety Research Institute, UL Research Institutes. Columbia, MD 21045, 2023."

__Cite the User Guide:__ "McKinnon, M., and Weinschenk, C. Materials and Products Database - User Guide, Fire Safety Research Institute, UL Research Institutes. Columbia, MD 21045, 2023."

***
***

## Database Structure

## 01_Data/
Raw data generated from each apparatus are included here in plain-text format. The data is organized first by material, next by the short name of test apparatus used, and where applicable additional filtering by test settings.

### Test Apparatus and Data File Structure
- __Cone Calorimeter__ (Cone)
    + Data file structure includes the material, the short name for the apparatus, heat flux setting and scan/scalar, date of test, and replicate number. Scan is for the raw output data and scalar is for the initial conditions and high-level test parameters. 
        * Example: __MDF_Cone_HF25scalar_210323_R1__ stands for the first replicate of scalar data generated from a medium density fiber board test in cone calorimeter exposed to 25 kW/m<sup>2</sup> on March 23, 2021.
    + A _Cone_Notes.csv_ is generated for each material from the __plot_Cone_data.py__ script. For materials whose experiments deviated from typical behavior relevant pictures are included in the respective material directory.
- __Fourier Transform Infrared Spectrometer__ (FTIR)
    + The FTIR directory contains subdirectories for the Attenuated Total Reflectance method (ATR) and the Integrating Sphere (IS)
    + Data file structure for the ATR experiment files includes the material, the abbreviated name for the apparatus, date of test, and replicate number. 
        * Example: __MDF_ATR_210323_R5__ stands for the fifth replicate of data collected with the ATR accessory conducted on June 8, 2021.
    + Data file structure for the IS experiment files includes the material, the abbreviated name for the apparatus, the measurand, whether the test is a sample measurement or standard reference, date of test, and replicate number.
        * Example: __OSB_IS_REFLECT_MEAS_2

File: Wood_Stud_IS_S_221031_R1.dpt
7497.03,0.84849
7473.89,0.84411
7450.74,0.83097
7427.6,0.82761
7404.45,0.80828
7381.31,0.80802
7358.16,0.79719
7335.02,0.79748
7311.87,0.78404
7288.73,0.78117
7265.58,0.77020
7242.44,0.77778
7219.29,0.77957
7196.15,0.75849
7173,0.75959
7149.86,0.73549
7126.71,0.73375
7103.57,0.70961
7080.42,0.69549
7057.28,0.67565
7034.13,0.65879
7010.99,0.64150
6987.84,0.63292
6964.7,0.62908
6941.55,0.62205
6918.41,0.61834
6895.26,0.61830
6872.12,0.61677
6848.97,0.61868
6825.83,0.62039
6802.68,0.62088
6779.54,0.61681
6756.39,0.61527
6733.25,0.61654
6710.1,0.62988
6686.96,0.62861
6663.82,0.63256
6640.67,0.63563
6617.53,0.63629
6594.38,0.64304
6571.24,0.64133
6548.09,0.64935
6524.95,0.64637
6501.8,0.64670
6478.66,0.64932
6455.51,0.65176
6432.37,0.65809
6409.22,0.65463
6386.08,0.65910
6362.93,0.65898
6339.79,0.66585
6316.64,0.66636
6293.5,0.66285
6270.35,0.67178
6247.21,0.67495
6224.06,0.68281
6200.92,0.69375
6177.77,0.69307
6154.63,0.70127
6131.48,0.70381
6108.34,0.70963
6085.19,0.70783
6062.05,0.70782
6038.9,0.70660
6015.76,0.69999
5992.61,0.69756
5969.47,0.69259
5946.32,0.69876
5923.18,0.69530
5900.03,0.68958
5876.89,0.69062
5853.74,0.69013
5830.6,0.68493
5807.45,0.68011
5784.31,0.68489
5761.16,0.68544
5738.02,0.68511
5714.87,0.68450
5691.73,0.68244
5668.58,0.68049
5645.44,0.67875
5622.29,0.67920
5599.15,0.67866
5576,0.68152
5552.86,0.68376
5529.71,0.68359
5506.57,0.68652
5483.42,0.68612
5460.28,0.69052
5437.13,0.69443
5413.99,0.69538
5390.84,0.69868
5367.7,0.69787
5344.55,0.69177
5321.41,0.67897
5298.26,0.65271
5275.12,0.60862
5251.97,0.56267
5228.83,0.52938
5205.68,0.51324
5182.54,0.50939
5159.39,0.51706
5136.25,0.53014
5113.1,0.54449
5089.96,0.55799
5066.81,0.57004
5043.67,0.58235
5020.52,0.59052
4997.38,0.59797
4974.23,0.59632
4951.09,0.58875
4927.94,0.57529
4904.8,0.55910
4881.65,0.53982
4858.51,0.52325
4835.36,0.50990
4812.22,0.50024
4789.07,0.49196
4765.93,0.48920
4742.78,0.49025
4719.64,0.49229
4696.49,0.49685
4673.35,0.50250
4650.2,0.51104
4627.06,0.52082
4603.92,0.53330
4580.77,0.54266
4557.63,0.55012
4534.48,0.55468
4511.34,0.55501
4488.19,0.54715
4465.05,0.52686
4441.9,0.50062
4418.76,0.47097
4395.61,0.45698
4372.47,0.46333
4349.32,0.46861
4326.18,0.46145
4303.03,0.45085
4279.89,0.44455
4256.74,0.44776
4233.6,0.44892
4210.45,0.44859
4187.31,0.45019
4164.16,0.45457
4141.02,0.44847
4117.87,0.43266
4094.73,0.41340
4071.58,0.39079
4048.44,0.36917
4025.29,0.35510
4002.15,0.35292
3979,0.35790
3955.86,0.36689
3932.71,0.37695
3909.57,0.38805
3886.42,0.39788
3863.28,0.40613
3840.13,0.41522
3816.99,0.41690
3793.84,0.41385
3770.7,0.40808
3747.55,0.39770
3724.41,0.37763
3701.26,0.34120
3678.12,0.27481
3654.97,0.19146
3631.83,0.13924
3608.68,0.10578
3585.54,0.08380
3562.39,0.07038
3539.25,0.06112
3516.1,0.05546
3492.96,0.05041
3469.81,0.04716
3446.67,0.04726
3423.52,0.04776
3400.38,0.04837
3377.23,0.04949
3354.09,0.05105
3330.94,0.05430
3307.8,0.05679
3284.65,0.05982
3261.51,0.06475
3238.36,0.06981
3215.22,0.07626
3192.07,0.08327
3168.93,0.09220
3145.78,0.10054
3122.64,0.11108
3099.49,0.12084
3076.35,0.12972
3053.2,0.13950
3030.06,0.14572
3006.91,0.14088
2983.77,0.12832
2960.62,0.10126
2937.48,0.08734
2914.33,0.08536
2891.19,0.08765
2868.04,0.09479
2844.9,0.11019
2821.75,0.13895
2798.61,0.16054
2775.46,0.17055
2752.32,0.17514
2729.17,0.17877
2706.03,0.18823
2682.88,0.19912
2659.74,0.20765
2636.59,0.21633
2613.45,0.22483
2590.3,0.23155
2567.16,0.23571
2544.02,0.23678
2520.87,0.24344
2497.73,0.25377
2474.58,0.26426
2451.44,0.27335
2428.29,0.28432
2405.15,0.29630
2382,0.30679
2358.86,0.31454
2335.71,0.31944
2312.57,0.32066
2289.42,0.31650
2266.28,0.31030
2243.13,0.30425
2219.99,0.29983
2196.84,0.29400
2173.7,0.27995
2150.55,0.27036
2127.41,0.26771
2104.26,0.27218
2081.12,0.27367
2057.97,0.27009
2034.83,0.27639
2011.68,0.29127
1988.54,0.30025
1965.39,0.30856
1942.25,0.32173
1919.1,0.32924
1895.96,0.32965
1872.81,0.32825
1849.67,0.32386
1826.52,0.31445
1803.38,0.29620
1780.23,0.25612
1757.09,0.15090
1733.94,0.11287
1710.8,0.14462
1687.65,0.14438
1664.51,0.10130
1641.36,0.10055
1618.22,0.10226
1595.07,0.09783
1571.93,0.14381
1548.78,0.16665
1525.64,0.11282
1502.49,0.07634
1479.35,0.08630
1456.2,0.06516
1433.06,0.06143
1409.91,0.06936
1386.77,0.06309
1363.62,0.06096
1340.48,0.06220
1317.33,0.06051
1294.19,0.06158
1271.04,0.05181
1247.9,0.05690
1224.75,0.05678
1201.61,0.05909
1178.46,0.04857
1155.32,0.05005
1132.17,0.04260
1109.03,0.04744
1085.88,0.04919
1062.74,0.06947
1039.59,0.07457
1016.45,0.08687
993.304,0.09337
970.159,0.11266
947.014,0.12737
923.869,0.13476
900.724,0.11250
877.579,0.12259
854.434,0.12844
831.289,0.12636
808.144,0.11081
784.999,0.11247
761.854,0.10474
738.709,0.09789
715.565,0.08933
692.42,0.08432
669.275,0.07879
646.13,0.07960
622.985,0.07419
599.84,0.07799

File: Wood_Stud_IS_S_221031_R2.dpt
7497.03,0.84898
7473.89,0.83425
7450.74,0.84071
7427.6,0.81363
7404.45,0.80829
7381.31,0.81149
7358.16,0.79796
7335.02,0.79551
7311.87,0.78556
7288.73,0.77881
7265.58,0.77376
7242.44,0.77609
7219.29,0.77667
7196.15,0.77131
7173,0.74836
7149.86,0.74740
7126.71,0.73207
7103.57,0.71402
7080.42,0.69896
7057.28,0.67696
7034.13,0.66507
7010.99,0.65221
6987.84,0.64237
6964.7,0.63446
6941.55,0.62613
6918.41,0.63215
6895.26,0.62646
6872.12,0.62562
6848.97,0.62676
6825.83,0.61878
6802.68,0.61970
6779.54,0.62434
6756.39,0.62487
6733.25,0.62533
6710.1,0.62307
6686.96,0.62561
6663.82,0.63361
6640.67,0.63848
6617.53,0.64063
6594.38,0.64110
6571.24,0.64512
6548.09,0.64864
6524.95,0.65006
6501.8,0.65417
6478.66,0.64939
6455.51,0.66022
6432.37,0.66320
6409.22,0.65938
6386.08,0.65946
6362.93,0.65875
6339.79,0.66382
6316.64,0.66747
6293.5,0.66828
6270.35,0.67227
6247.21,0.67851
6224.06,0.68664
6200.92,0.69265
6177.77,0.69572
6154.63,0.70222
6131.48,0.70974
6108.34,0.71312
6085.19,0.71364
6062.05,0.70978
6038.9,0.71026
6015.76,0.70307
5992.61,0.69576
5969.47,0.69485
5946.32,0.69727
5923.18,0.69883
5900.03,0.69294
5876.89,0.68921
5853.74,0.69006
5830.6,0.68840
5807.45,0.68320
5784.31,0.68408
5761.16,0.68802
5738.02,0.68916
5714.87,0.68398
5691.73,0.68344
5668.58,0.68326
5645.44,0.68092
5622.29,0.67866
5599.15,0.68050
5576,0.68142
5552.86,0.68381
5529.71,0.68783
5506.57,0.68673
5483.42,0.68852
5460.28,0.69086
5437.13,0.69562
5413.99,0.69787
5390.84,0.70042
5367.7,0.69813
5344.55,0.69693
5321.41,0.68251
5298.26,0.65741
5275.12,0.61657
5251.97,0.57275
5228.83,0.54036
5205.68,0.52317
5182.54,0.52255
5159.39,0.53221
5136.25,0.54376
5113.1,0.55811
5089.96,0.56832
5066.81,0.58227
5043.67,0.59158
5020.52,0.60100
4997.38,0.60456
4974.23,0.60467
4951.09,0.59405
4927.94,0.57937
4904.8,0.55973
4881.65,0.54240
4858.51,0.52552
4835.36,0.51157
4812.22,0.49999
4789.07,0.49403
4765.93,0.49113
4742.78,0.49150
4719.64,0.49498
4696.49,0.49859
4673.35,0.50431
4650.2,0.51277
4627.06,0.52238
4603.92,0.53496
4580.77,0.54482
4557.63,0.55129
4534.48,0.55671
4511.34,0.55767
4488.19,0.54976
4465.05,0.52763
4441.9,0.50152
4418.76,0.47119
4395.61,0.45785
4372.47,0.46459
4349.32,0.46902
4326.18,0.46224
4303.03,0.45124
4279.89,0.44569
4256.74,0.44977
4233.6,0.45162
4210.45,0.45093
4187.31,0.45217
4164.16,0.45694
4141.02,0.45114
4117.87,0.43703
4094.73,0.41627
4071.58,0.39403
4048.44,0.37165
4025.29,0.35727
4002.15,0.35559
3979,0.36044
3955.86,0.36924
3932.71,0.38074
3909.57,0.39145
3886.42,0.40029
3863.28,0.40981
3840.13,0.41940
3816.99,0.42086
3793.84,0.41898
3770.7,0.41424
3747.55,0.40334
3724.41,0.38557
3701.26,0.35090
3678.12,0.28676
3654.97,0.20299
3631.83,0.14886
3608.68,0.11311
3585.54,0.08839
3562.39,0.07295
3539.25,0.06291
3516.1,0.05649
3492.96,0.05143
3469.81,0.04908
3446.67,0.04789
3423.52,0.04766
3400.38,0.04907
3377.23,0.04960
3354.09,0.05091
3330.94,0.05406
3307.8,0.05771
3284.65,0.06024
3261.51,0.06622
3238.36,0.07104
3215.22,0.07845
3192.07,0.08628
3168.93,0.09455
3145.78,0.10453
3122.64,0.11493
3099.49,0.12570
3076.35,0.13431
3053.2,0.14413
3030.06,0.15021
3006.91,0.14449
2983.77,0.13012
2960.62,0.10172
2937.48,0.08720
2914.33,0.08585
2891.19,0.08769
2868.04,0.09510
2844.9,0.11122
2821.75,0.13995
2798.61,0.16187
2775.46,0.17265
2752.32,0.17713
2729.17,0.18059
2706.03,0.18972
2682.88,0.20107
2659.74,0.20967
2636.59,0.21746
2613.45,0.22674
2590.3,0.23348
2567.16,0.23792
2544.02,0.23885
2520.87,0.24545
2497.73,0.25548
2474.58,0.26562
2451.44,0.27510
2428.29,0.28650
2405.15,0.29918
2382,0.30917
2358.86,0.31781
2335.71,0.32296
2312.57,0.32458
2289.42,0.32120
2266.28,0.31523
2243.13,0.30929
2219.99,0.30542
2196.84,0.29963
2173.7,0.28582
2150.55,0.27626
2127.41,0.27350
2104.26,0.27770
2081.12,0.27959
2057.97,0.27552
2034.83,0.28240
2011.68,0.29600
1988.54,0.30609
1965.39,0.31425
1942.25,0.32720
1919.1,0.33543
1895.96,0.33502
1872.81,0.33360
1849.67,0.32905
1826.52,0.31955
1803.38,0.30100
1780.23,0.25867
1757.09,0.15008
1733.94,0.11319
1710.8,0.14773
1687.65,0.14911
1664.51,0.10478
1641.36,0.10531
1618.22,0.10531
1595.07,0.09947
1571.93,0.14589
1548.78,0.16971
1525.64,0.11397
1502.49,0.07598
1479.35,0.08627
1456.2,0.06522
1433.06,0.06134
1409.91,0.06922
1386.77,0.06281
1363.62,0.06089
1340.48,0.06223
1317.33,0.05990
1294.19,0.06103
1271.04,0.05174
1247.9,0.05711
1224.75,0.05677
1201.61,0.05891
1178.46,0.04884
1155.32,0.05048
1132.17,0.04313
1109.03,0.04828
1085.88,0.04997
1062.74,0.07057
1039.59,0.07501
1016.45,0.08688
993.304,0.09383
970.159,0.11259
947.014,0.12806
923.869,0.13612
900.724,0.11423
877.579,0.12446
854.434,0.13206
831.289,0.12995
808.144,0.11391
784.999,0.11718
761.854,0.10866
738.709,0.10131
715.565,0.09286
692.42,0.08717
669.275,0.07998
646.13,0.07980
622.985,0.07367
599.84,0.07952

File: Wood_Stud_IS_S_221031_R3.dpt
7497.03,0.83880
7473.89,0.83762
7450.74,0.83677
7427.6,0.81552
7404.45,0.80695
7381.31,0.81208
7358.16,0.79636
7335.02,0.80277
7311.87,0.79901
7288.73,0.77829
7265.58,0.78532
7242.44,0.77499
7219.29,0.77805
7196.15,0.78076
7173,0.75775
7149.86,0.74734
7126.71,0.73774
7103.57,0.71840
7080.42,0.70161
7057.28,0.67943
7034.13,0.66538
7010.99,0.65309
6987.84,0.64112
6964.7,0.63005
6941.55,0.63638
6918.41,0.62752
6895.26,0.62624
6872.12,0.62814
6848.97,0.62203
6825.83,0.62546
6802.68,0.62458
6779.54,0.62632
6756.39,0.63022
6733.25,0.62670
6710.1,0.62979
6686.96,0.62806
6663.82,0.63622
6640.67,0.64191
6617.53,0.64595
6594.38,0.65395
6571.24,0.65033
6548.09,0.65929
6524.95,0.65637
6501.8,0.65729
6478.66,0.65707
6455.51,0.65937
6432.37,0.66603
6409.22,0.66326
6386.08,0.66509
6362.93,0.66469
6339.79,0.66740
6316.64,0.66704
6293.5,0.67364
6270.35,0.67356
6247.21,0.68407
6224.06,0.68945
6200.92,0.69472
6177.77,0.70258
6154.63,0.70303
6131.48,0.71140
6108.34,0.71355
6085.19,0.71452
6062.05,0.71546
6038.9,0.70904
6015.76,0.70951
5992.61,0.70009
5969.47,0.69707
5946.32,0.70173
5923.18,0.69769
5900.03,0.69565
5876.89,0.69270
5853.74,0.69268
5830.6,0.68944
5807.45,0.68659
5784.31,0.68517
5761.16,0.68762
5738.02,0.68779
5714.87,0.68916
5691.73,0.68747
5668.58,0.68547
5645.44,0.68609
5622.29,0.68358
5599.15,0.68186
5576,0.68406
5552.86,0.68641
5529.71,0.68911
5506.57,0.69034
5483.42,0.69222
5460.28,0.69242
5437.13,0.69769
5413.99,0.69943
5390.84,0.70424
5367.7,0.70216
5344.55,0.69959
5321.41,0.68632
5298.26,0.66405
5275.12,0.62484
5251.97,0.58220
5228.83,0.55289
5205.68,0.53852
5182.54,0.53399
5159.39,0.54210
5136.25,0.55434
5113.1,0.56795
5089.96,0.57822
5066.81,0.59036
5043.67,0.60025
5020.52,0.60900
4997.38,0.61296
4974.23,0.60931
4951.09,0.59910
4927.94,0.58396
4904.8,0.56388
4881.65,0.54393
4858.51,0.52688
4835.36,0.51215
4812.22,0.50106
4789.07,0.49576
4765.93,0.49329
4742.78,0.49404
4719.64,0.49698
4696.49,0.50090
4673.35,0.50572
4650.2,0.51534
4627.06,0.52452
4603.92,0.53658
4580.77,0.54811
4557.63,0.55385
4534.48,0.55853
4511.34,0.55975
4488.19,0.55174
4465.05,0.52996
4441.9,0.50279
4418.76,0.47318
4395.61,0.45827
4372.47,0.46540
4349.32,0.47022
4326.18,0.46393
4303.03,0.45406
4279.89,0.44689
4256.74,0.45065
4233.6,0.45260
4210.45,0.45202
4187.31,0.45485
4164.16,0.45994
4141.02,0.45416
4117.87,0.43917
4094.73,0.41901
4071.58,0.39677
4048.44,0.37420
4025.29,0.35920
4002.15,0.35716
3979,0.36289
3955.86,0.37187
3932.71,0.38355
3909.57,0.39461
3886.42,0.40328
3863.28,0.41281
3840.13,0.42258
3816.99,0.42566
3793.84,0.42443
3770.7,0.41973
3747.55,0.41071
3724.41,0.39277
3701.26,0.35974
3678.12,0.29636
3654.97,0.21309
3631.83,0.15684
3608.68,0.11812
3585.54,0.09102
3562.39,0.07460
3539.25,0.06389
3516.1,0.05672
3492.96,0.05216
3469.81,0.04951
3446.67,0.04761
3423.52,0.04865
3400.38,0.04898
3377.23,0.04987
3354.09,0.05110
3330.94,0.05530
3307.8,0.05801
3284.65,0.06101
3261.51,0.06619
3238.36,0.07180
3215.22,0.08000
3192.07,0.08736
3168.93,0.09744
3145.78,0.10726
3122.64,0.11823
3099.49,0.12898
3076.35,0.13819
3053.2,0.14789
3030.06,0.15379
3006.91,0.14654
2983.77,0.13124
2960.62,0.10232
2937.48,0.08673
2914.33,0.08517
2891.19,0.08720
2868.04,0.09464
2844.9,0.11113
2821.75,0.14105
2798.61,0.16377
2775.46,0.17387
2752.32,0.17842
2729.17,0.18186
2706.03,0.19127
2682.88,0.20200
2659.74,0.21106
2636.59,0.21902
2613.45,0.22767
2590.3,0.23476
2567.16,0.23875
2544.02,0.24046
2520.87,0.24652
2497.73,0.25706
2474.58,0.26727
2451.44,0.27652
2428.29,0.28829
2405.15,0.30155
2382,0.31204
2358.86,0.32084
2335.71,0.32593
2312.57,0.32835
2289.42,0.32485
2266.28,0.31889
2243.13,0.31282
2219.99,0.31021
2196.84,0.30421
2173.7,0.29027
2150.55,0.28046
2127.41,0.27793
2104.26,0.28262
2081.12,0.28416
2057.97,0.27999
2034.83,0.28665
2011.68,0.30040
1988.54,0.31037
1965.39,0.31857
1942.25,0.33190
1919.1,0.33952
1895.96,0.33985
1872.81,0.33797
1849.67,0.33363
1826.52,0.32353
1803.38,0.30422
1780.23,0.26044
1757.09,0.14983
1733.94,0.11440
1710.8,0.15001
1687.65,0.15265
1664.51,0.10763
1641.36,0.10877
1618.22,0.10767
1595.07,0.10053
1571.93,0.14767
1548.78,0.17274
1525.64,0.11504
1502.49,0.07611
1479.35,0.08664
1456.2,0.06557
1433.06,0.06147
1409.91,0.06906
1386.77,0.06302
1363.62,0.06092
1340.48,0.06221
1317.33,0.05990
1294.19,0.06100
1271.04,0.05162
1247.9,0.05692
1224.75,0.05679
1201.61,0.05861
1178.46,0.04848
1155.32,0.04959
1132.17,0.04220
1109.03,0.04802
1085.88,0.04915
1062.74,0.07111
1039.59,0.07547
1016.45,0.08787
993.304,0.09400
970.159,0.11308
947.014,0.12816
923.869,0.13658
900.724,0.11511
877.579,0.12591
854.434,0.13348
831.289,0.13314
808.144,0.11718
784.999,0.12035
761.854,0.11188
738.709,0.10397
715.565,0.09463
692.42,0.08786
669.275,0.08087
646.13,0.08067
622.985,0.07514
599.84,0.07941

File: Wood_Stud_IS_S_221031_R4.dpt
7497.03,0.84533
7473.89,0.84725
7450.74,0.82587
7427.6,0.82904
7404.45,0.82588
7381.31,0.81087
7358.16,0.81208
7335.02,0.78929
7311.87,0.78539
7288.73,0.79283
7265.58,0.78584
7242.44,0.77271
7219.29,0.78307
7196.15,0.77353
7173,0.76847
7149.86,0.75332
7126.71,0.74170
7103.57,0.72161
7080.42,0.69504
7057.28,0.68976
7034.13,0.66802
7010.99,0.65239
6987.84,0.64533
6964.7,0.64140
6941.55,0.63356
6918.41,0.62952
6895.26,0.62715
6872.12,0.62541
6848.97,0.62692
6825.83,0.62333
6802.68,0.62353
6779.54,0.62118
6756.39,0.62647
6733.25,0.62489
6710.1,0.63715
6686.96,0.63749
6663.82,0.63669
6640.67,0.64011
6617.53,0.64373
6594.38,0.64805
6571.24,0.64846
6548.09,0.65256
6524.95,0.65359
6501.8,0.65360
6478.66,0.65762
6455.51,0.65727
6432.37,0.66415
6409.22,0.66102
6386.08,0.65947
6362.93,0.66314
6339.79,0.66806
6316.64,0.67169
6293.5,0.67335
6270.35,0.67809
6247.21,0.68224
6224.06,0.69029
6200.92,0.69341
6177.77,0.70054
6154.63,0.70081
6131.48,0.71089
6108.34,0.71147
6085.19,0.71856
6062.05,0.71441
6038.9,0.71244
6015.76,0.70409
5992.61,0.70040
5969.47,0.70053
5946.32,0.70077
5923.18,0.69725
5900.03,0.69692
5876.89,0.69142
5853.74,0.69178
5830.6,0.68926
5807.45,0.68700
5784.31,0.68354
5761.16,0.68956
5738.02,0.68898
5714.87,0.68666
5691.73,0.68633
5668.58,0.68210
5645.44,0.68401
5622.29,0.68623
5599.15,0.68374
5576,0.68369
5552.86,0.68822
5529.71,0.69030
5506.57,0.69054
5483.42,0.69223
5460.28,0.69328
5437.13,0.69827
5413.99,0.70070
5390.84,0.70565
5367.7,0.70331
5344.55,0.69946
5321.41,0.69030
5298.26,0.66510
5275.12,0.62861
5251.97,0.58467
5228.83,0.55529
5205.68,0.54137
5182.54,0.54003
5159.39,0.54626
5136.25,0.55762
5113.1,0.57150
5089.96,0.58252
5066.81,0.59353
5043.67,0.60522
5020.52,0.61250
4997.38,0.61477
4974.23,0.61152
4951.09,0.60059
4927.94,0.58318
4904.8,0.56381
4881.65,0.54488
4858.51,0.52711
4835.36,0.51198
4812.22,0.50219
4789.07,0.49572
4765.93,0.49311
4742.78,0.49338
4719.64,0.49600
4696.49,0.50068
4673.35,0.50633
4650.2,0.51531
4627.06,0.52467
4603.92,0.53848
4580.77,0.54702
4557.63,0.55510
4534.48,0.55945
4511.34,0.56002
4488.19,0.55223
4465.05,0.53114
4441.9,0.50317
4418.76,0.47354
4395.61,0.45825
4372.47,0.46569
4349.32,0.47084
4326.18,0.46409
4303.03,0.45376
4279.89,0.44738
4256.74,0.45121
4233.6,0.45357
4210.45,0.45328
4187.31,0.45577
4164.16,0.45988
4141.02,0.45503
4117.87,0.44001
4094.73,0.41966
4071.58,0.39738
4048.44,0.37378
4025.29,0.36025
4002.15,0.35773
3979,0.36322
3955.86,0.37265
3932.71,0.38459
3909.57,0.39483
3886.42,0.40467
3863.28,0.41385
3840.13,0.42412
3816.99,0.42592
3793.84,0.42514
3770.7,0.42170
3747.55,0.41222
3724.41,0.39469
3701.26,0.36288
3678.12,0.29972
3654.97,0.21765
3631.83,0.15941
3608.68,0.12122
3585.54,0.09148
3562.39,0.07537
3539.25,0.06478
3516.1,0.05731
3492.96,0.05185
3469.81,0.04948
3446.67,0.04870
3423.52,0.04848
3400.38,0.04899
3377.23,0.04996
3354.09,0.05165
3330.94,0.05502
3307.8,0.05840
3284.65,0.06240
3261.51,0.06634
3238.36,0.07359
3215.22,0.08085
3192.07,0.08882
3168.93,0.09861
3145.78,0.10883
3122.64,0.11958
3099.49,0.13059
3076.35,0.13943
3053.2,0.14938
3030.06,0.15531
3006.91,0.14759
2983.77,0.13216
2960.62,0.10292
2937.48,0.08765
2914.33,0.08552
2891.19,0.08849
2868.04,0.09504
2844.9,0.11132
2821.75,0.14132
2798.61,0.16412
2775.46,0.17428
2752.32,0.17913
2729.17,0.18262
2706.03,0.19203
2682.88,0.20296
2659.74,0.21156
2636.59,0.21939
2613.45,0.22838
2590.3,0.23549
2567.16,0.23959
2544.02,0.24073
2520.87,0.24737
2497.73,0.25703
2474.58,0.26776
2451.44,0.27707
2428.29,0.28885
2405.15,0.30188
2382,0.31277
2358.86,0.32144
2335.71,0.32761
2312.57,0.32901
2289.42,0.32656
2266.28,0.32038
2243.13,0.31489
2219.99,0.31192
2196.84,0.30630
2173.7,0.29209
2150.55,0.28196
2127.41,0.27971
2104.26,0.28410
2081.12,0.28604
2057.97,0.28158
2034.83,0.28826
2011.68,0.30218
1988.54,0.31227
1965.39,0.32069
1942.25,0.33392
1919.1,0.34132
1895.96,0.34133
1872.81,0.33939
1849.67,0.33480
1826.52,0.32490
1803.38,0.30596
1780.23,0.26115
1757.09,0.14984
1733.94,0.11456
1710.8,0.15109
1687.65,0.15490
1664.51,0.10914
1641.36,0.11042
1618.22,0.10879
1595.07,0.10095
1571.93,0.14842
1548.78,0.17373
1525.64,0.11513
1502.49,0.07604
1479.35,0.08686
1456.2,0.06562
1433.06,0.06149
1409.91,0.06949
1386.77,0.06303
1363.62,0.06105
1340.48,0.06172
1317.33,0.06017
1294.19,0.06092
1271.04,0.05164
1247.9,0.05706
1224.75,0.05746
1201.61,0.05887
1178.46,0.04869
1155.32,0.04994
1132.17,0.04191
1109.03,0.04841
1085.88,0.04919
1062.74,0.07086
1039.59,0.07557
1016.45,0.08733
993.304,0.09409
970.159,0.11320
947.014,0.12847
923.869,0.13719
900.724,0.11563
877.579,0.12636
854.434,0.13425
831.289,0.13417
808.144,0.11806
784.999,0.12138
761.854,0.11279
738.709,0.10587
715.565,0.09585
692.42,0.08991
669.275,0.08000
646.13,0.08008
622.985,0.07499
599.84,0.08099