Folder: fsri_materials_database/01_Data/Masonite_Board/FTIR/IS

Note: README.md
# Materials and Products Database
### Repository of materials and products properties and fire test data to improve fire modeling and fire investigation.

This project was supported in part by Award No. 2019-DU-BX-0018, awarded by the National Institute of Justice, Office of Justice Programs, U.S. Department of Justice. The opinions, findings, and conclusions or recommendations expressed in this publication / program / exhibition are those of the author(s) and do not necessarily reflect those of the Department of Justice.

***
***

__Cite this database:__ "McKinnon, M., Weinschenk, C., Dow, N., DiDomizio, M., and Madrzykowski, D. Materials and Products Database (Version 1.0.0), Fire Safety Research Institute, UL Research Institutes. Columbia, MD 21045, 2023."

__Cite the Technical Reference Guide:__ "McKinnon, M., Weinschenk, C., and Madrzykowski, D. Materials and Products Database - Technical Reference Guide, Fire Safety Research Institute, UL Research Institutes. Columbia, MD 21045, 2023."

__Cite the User Guide:__ "McKinnon, M., and Weinschenk, C. Materials and Products Database - User Guide, Fire Safety Research Institute, UL Research Institutes. Columbia, MD 21045, 2023."

***
***

## Database Structure

## 01_Data/
Raw data generated from each apparatus are included here in plain-text format. The data is organized first by material, next by the short name of test apparatus used, and where applicable additional filtering by test settings.

### Test Apparatus and Data File Structure
- __Cone Calorimeter__ (Cone)
    + Data file structure includes the material, the short name for the apparatus, heat flux setting and scan/scalar, date of test, and replicate number. Scan is for the raw output data and scalar is for the initial conditions and high-level test parameters. 
        * Example: __MDF_Cone_HF25scalar_210323_R1__ stands for the first replicate of scalar data generated from a medium density fiber board test in cone calorimeter exposed to 25 kW/m<sup>2</sup> on March 23, 2021.
    + A _Cone_Notes.csv_ is generated for each material from the __plot_Cone_data.py__ script. For materials whose experiments deviated from typical behavior relevant pictures are included in the respective material directory.
- __Fourier Transform Infrared Spectrometer__ (FTIR)
    + The FTIR directory contains subdirectories for the Attenuated Total Reflectance method (ATR) and the Integrating Sphere (IS)
    + Data file structure for the ATR experiment files includes the material, the abbreviated name for the apparatus, date of test, and replicate number. 
        * Example: __MDF_ATR_210323_R5__ stands for the fifth replicate of data collected with the ATR accessory conducted on June 8, 2021.
    + Data file structure for the IS experiment files includes the material, the abbreviated name for the apparatus, the measurand, whether the test is a sample measurement or standard reference, date of test, and replicate number.
        * Example: __OSB_IS_REFLECT_MEAS_2

File: Masonite_Board_IS_T_220818_R3.dpt
7497.03,0.01692
7473.89,0.02133
7450.74,0.02474
7427.6,0.01351
7404.45,0.01409
7381.31,0.02514
7358.16,0.02766
7335.02,0.01437
7311.87,0.02161
7288.73,0.02361
7265.58,0.02172
7242.44,0.01994
7219.29,0.02501
7196.15,0.02089
7173,0.01951
7149.86,0.01645
7126.71,0.02078
7103.57,0.02047
7080.42,0.02158
7057.28,0.02665
7034.13,0.02436
7010.99,0.02769
6987.84,0.02032
6964.7,0.01901
6941.55,0.01929
6918.41,0.01521
6895.26,0.02053
6872.12,0.02042
6848.97,0.02292
6825.83,0.02239
6802.68,0.01785
6779.54,0.01671
6756.39,0.01529
6733.25,0.01758
6710.1,0.01473
6686.96,0.01713
6663.82,0.01874
6640.67,0.02044
6617.53,0.01951
6594.38,0.01898
6571.24,0.02131
6548.09,0.01881
6524.95,0.01759
6501.8,0.02004
6478.66,0.01963
6455.51,0.01655
6432.37,0.01820
6409.22,0.02012
6386.08,0.01580
6362.93,0.01988
6339.79,0.01889
6316.64,0.01837
6293.5,0.02185
6270.35,0.02137
6247.21,0.01868
6224.06,0.02108
6200.92,0.01896
6177.77,0.01863
6154.63,0.01941
6131.48,0.01822
6108.34,0.02160
6085.19,0.01856
6062.05,0.01909
6038.9,0.01556
6015.76,0.02071
5992.61,0.01894
5969.47,0.01961
5946.32,0.02090
5923.18,0.01772
5900.03,0.02137
5876.89,0.01939
5853.74,0.01830
5830.6,0.01608
5807.45,0.02006
5784.31,0.01680
5761.16,0.01970
5738.02,0.02103
5714.87,0.01984
5691.73,0.01783
5668.58,0.01858
5645.44,0.01833
5622.29,0.01852
5599.15,0.02086
5576,0.01877
5552.86,0.01817
5529.71,0.01885
5506.57,0.01936
5483.42,0.01907
5460.28,0.01881
5437.13,0.01887
5413.99,0.01870
5390.84,0.01845
5367.7,0.01952
5344.55,0.01862
5321.41,0.01838
5298.26,0.01755
5275.12,0.01908
5251.97,0.01854
5228.83,0.01846
5205.68,0.02020
5182.54,0.01868
5159.39,0.01848
5136.25,0.01977
5113.1,0.01991
5089.96,0.01791
5066.81,0.01898
5043.67,0.01958
5020.52,0.02044
4997.38,0.01889
4974.23,0.01796
4951.09,0.01846
4927.94,0.01887
4904.8,0.01948
4881.65,0.01776
4858.51,0.01926
4835.36,0.02027
4812.22,0.01911
4789.07,0.01834
4765.93,0.01946
4742.78,0.01926
4719.64,0.01931
4696.49,0.01927
4673.35,0.01949
4650.2,0.01900
4627.06,0.01956
4603.92,0.01940
4580.77,0.01834
4557.63,0.01964
4534.48,0.01897
4511.34,0.02000
4488.19,0.01931
4465.05,0.01957
4441.9,0.02028
4418.76,0.01955
4395.61,0.01957
4372.47,0.01981
4349.32,0.01942
4326.18,0.01910
4303.03,0.02024
4279.89,0.01929
4256.74,0.01934
4233.6,0.01936
4210.45,0.01940
4187.31,0.01974
4164.16,0.01962
4141.02,0.01946
4117.87,0.01888
4094.73,0.01925
4071.58,0.01896
4048.44,0.01929
4025.29,0.01998
4002.15,0.01987
3979,0.01971
3955.86,0.01994
3932.71,0.01946
3909.57,0.01883
3886.42,0.01979
3863.28,0.01957
3840.13,0.01974
3816.99,0.01993
3793.84,0.01977
3770.7,0.01962
3747.55,0.01973
3724.41,0.01969
3701.26,0.01879
3678.12,0.01928
3654.97,0.01946
3631.83,0.01876
3608.68,0.01893
3585.54,0.01811
3562.39,0.01892
3539.25,0.01801
3516.1,0.01770
3492.96,0.01778
3469.81,0.01781
3446.67,0.01747
3423.52,0.01847
3400.38,0.01723
3377.23,0.01729
3354.09,0.01660
3330.94,0.01659
3307.8,0.01736
3284.65,0.01728
3261.51,0.01760
3238.36,0.01847
3215.22,0.01786
3192.07,0.01811
3168.93,0.01741
3145.78,0.01751
3122.64,0.01778
3099.49,0.01775
3076.35,0.01788
3053.2,0.01795
3030.06,0.01745
3006.91,0.01717
2983.77,0.01716
2960.62,0.01709
2937.48,0.01641
2914.33,0.01747
2891.19,0.01734
2868.04,0.01767
2844.9,0.01812
2821.75,0.01813
2798.61,0.01858
2775.46,0.01842
2752.32,0.01805
2729.17,0.01832
2706.03,0.01822
2682.88,0.01852
2659.74,0.01825
2636.59,0.01835
2613.45,0.01803
2590.3,0.01828
2567.16,0.01846
2544.02,0.01806
2520.87,0.01779
2497.73,0.01799
2474.58,0.01805
2451.44,0.01804
2428.29,0.01851
2405.15,0.01835
2382,0.01828
2358.86,0.01852
2335.71,0.01813
2312.57,0.01829
2289.42,0.01838
2266.28,0.01805
2243.13,0.01814
2219.99,0.01785
2196.84,0.01812
2173.7,0.01772
2150.55,0.01796
2127.41,0.01780
2104.26,0.01818
2081.12,0.01786
2057.97,0.01762
2034.83,0.01789
2011.68,0.01811
1988.54,0.01778
1965.39,0.01797
1942.25,0.01788
1919.1,0.01759
1895.96,0.01781
1872.81,0.01766
1849.67,0.01734
1826.52,0.01721
1803.38,0.01686
1780.23,0.01613
1757.09,0.01457
1733.94,0.01654
1710.8,0.01733
1687.65,0.01642
1664.51,0.01554
1641.36,0.01575
1618.22,0.01624
1595.07,0.01568
1571.93,0.01529
1548.78,0.01526
1525.64,0.01543
1502.49,0.01598
1479.35,0.01553
1456.2,0.01558
1433.06,0.01581
1409.91,0.01542
1386.77,0.01544
1363.62,0.01518
1340.48,0.01477
1317.33,0.01413
1294.19,0.01510
1271.04,0.01641
1247.9,0.01695
1224.75,0.01632
1201.61,0.01568
1178.46,0.01514
1155.32,0.01436
1132.17,0.01498
1109.03,0.01556
1085.88,0.01567
1062.74,0.01714
1039.59,0.01632
1016.45,0.01652
993.304,0.01797
970.159,0.01770
947.014,0.01744
923.869,0.01650
900.724,0.01625
877.579,0.01615
854.434,0.01535
831.289,0.01684
808.144,0.01601
784.999,0.01549
761.854,0.01574
738.709,0.01528
715.565,0.01542
692.42,0.01513
669.275,0.01367
646.13,0.01355
622.985,0.01273
599.84,0.01245