Folder: fsri_materials_database/01_Data/Feather_Pillow_Feathers/Cone (part 5)

File: Feather_Pillow_Feathers_Cone_HF75Scan_230710_R2.csv
Names,Time,Stack TC,Smoke TC,Exh Press,Smoke Comp,Smoke Meas,CO Meter,CO2 Meter,O2 Meter,Sample Mass,Ext Coeff,Start Test,Flame Verif
Chan Gain,,500,500,1,1,1,1,1,1,1,1,1.0,1.0
Offset,,0,0,0.18266,0,0,0,0,0,0,0,0.0,0.0
Gain,,1,1,25.011,12.871,48.7072,1,1,1,1.00092,0.871134,1.0,1.0
Units,sec,C,C,Pa,%,%,%,%,%,g,/m,,
Baseline,,65.1614,68.4462,168.199,99.7375,100.364,-3.30466e-05,0.0438606,20.9506,-448.382,-0.0477792,,
6,1.25,64.6433,66.9198,178.902,99.9768,57.3909,-0.000301047,0.0442143,20.9515,46.3927,4.24145,0.0,0.0
12,2.75,65.0241,68.7971,140.181,99.9784,68.0277,-0.000219651,0.0443261,20.951,46.0024,2.94228,0.0,1.0
18,4.25,66.9229,73.272,140.101,99.9925,66.8356,-9.71675e-05,0.0444818,20.9502,45.6521,3.07846,0.0,1.0
24,5.75,68.8699,76.8765,141.854,99.9851,65.4503,3.69093e-05,0.0446721,20.9492,45.2417,3.23794,0.0,1.0
30,7.25,70.3025,81.1449,152.9,99.9705,63.8494,9.24673e-05,0.0448014,20.949,44.9314,3.42607,0.0,1.0
36,8.75,71.8445,84.1748,138.598,99.9678,59.7692,8.84074e-05,0.0455962,20.9501,44.6411,3.93048,0.0,0.0
42,10.25,73.5604,87.4906,138.2,99.9858,56.2567,0.00024493,0.073375,20.9494,44.4509,4.39466,0.0,0.0
48,11.75,74.757,89.3401,132.704,99.9823,51.9208,0.000788822,0.149988,20.9398,44.2107,5.00729,0.0,0.0
54,13.25,76.3498,92.0466,153.318,99.9788,54.5221,0.00157944,0.272693,20.8907,44.1106,4.63346,0.0,0.0
60,14.75,77.4872,93.2116,149.224,99.9717,55.3976,0.00249325,0.395752,20.7703,44.0005,4.51118,0.0,0.0
66,16.25,78.0987,93.9061,158.985,99.9603,62.1727,0.00354303,0.481723,20.5944,43.9004,3.62863,0.0,0.0
72,17.75,78.6583,93.4583,160.929,99.9646,64.9226,0.00469336,0.530237,20.4316,44.0005,3.29824,0.0,0.0
78,19.25,78.9726,92.3956,160.381,99.9517,66.4908,0.00610368,0.553655,20.3156,44.0306,3.11487,0.0,0.0
84,20.75,78.2987,91.3266,164.16,99.9568,66.6186,0.00787525,0.566241,20.2468,44.0005,3.10058,0.0,0.0
90,22.25,78.2256,89.9514,159.681,99.9477,66.8445,0.00967928,0.559389,20.2088,44.0005,3.07402,0.0,0.0
96,23.75,77.5323,88.4161,165.966,99.9689,66.7063,0.0108577,0.525229,20.1891,44.0105,3.09146,0.0,0.0
102,25.25,76.7902,87.3549,165.443,99.9442,66.516,0.0110177,0.468734,20.1987,43.9605,3.11139,0.0,0.0
108,26.75,76.5155,86.0631,168.189,99.9477,67.0333,0.0103695,0.395479,20.2358,43.9605,3.05247,0.0,0.0
114,28.25,76.4441,85.5562,160.021,99.9375,67.6636,0.00889806,0.307387,20.2977,44.0105,2.98018,0.0,0.0
120,29.75,76.1706,84.5211,161.698,99.9297,67.8181,0.00721372,0.237433,20.3758,43.9705,2.96214,0.0,0.0
126,31.25,76.21,83.7966,169.686,99.9116,67.176,0.00554897,0.179767,20.5118,43.9705,3.03345,0.0,0.0
132,32.75,75.589,83.5355,163.817,99.912,66.9471,0.00434823,0.143018,20.6301,43.9805,3.05957,0.0,0.0
138,34.25,75.7981,83.0446,160.472,99.8979,67.1284,0.00360301,0.119195,20.7187,43.9705,3.03781,0.0,0.0
144,35.75,75.4351,82.136,167.619,99.8872,66.904,0.00320631,0.104152,20.7823,43.9505,3.0626,0.0,0.0
150,37.25,74.4493,82.0477,162.749,99.8821,67.4213,0.00303481,0.0952199,20.8278,43.9605,3.00335,0.0,0.0
156,38.75,75.1052,81.3795,172.032,99.8656,66.8758,0.00295884,0.0892145,20.8563,43.9405,3.06417,0.0,0.0
162,40.25,74.2093,80.7887,165.674,99.8472,66.9664,0.00292238,0.0853271,20.8743,43.9205,3.0524,0.0,0.0
168,41.75,74.9699,80.2817,162.406,99.8503,66.7167,0.00290669,0.0827648,20.886,43.8904,3.08119,0.0,0.0
174,43.25,74.4734,79.7384,169.374,99.8378,66.8743,0.00289825,0.0812826,20.8934,43.9305,3.06221,0.0,0.0
180,44.75,74.6594,79.9636,169.302,99.8146,66.8445,0.0029045,0.0800022,20.8995,43.9104,3.06383,0.0,0.0
186,46.25,74.3817,79.5747,163.998,99.8189,67.1775,0.00291079,0.0788282,20.9035,43.9305,3.02619,0.0,0.0
192,47.75,73.935,79.6261,166.755,99.8004,67.1894,0.00288498,0.0774653,20.9062,43.9104,3.02343,0.0,0.0
198,49.25,73.9188,79.0173,163.274,99.813,67.3336,0.00273143,0.0760307,20.9085,43.8604,3.00801,0.0,0.0
204,50.75,74.5849,78.7628,164.51,99.7674,66.9501,0.0024711,0.074467,20.91,43.8704,3.04817,0.0,0.0
210,52.25,73.3767,78.958,164.26,99.7584,67.0036,0.00217788,0.0734578,20.9113,43.8604,3.04137,0.0,0.0
216,53.75,73.4624,78.5139,167.651,99.7517,66.7108,0.00189744,0.072705,20.9137,43.8504,3.07433,0.0,0.0
222,55.25,73.7132,77.8703,166.062,99.7431,66.6364,0.00173324,0.0714738,20.9149,43.8504,3.08218,0.0,0.0
228,56.75,73.6431,77.8536,166.865,99.7356,67.9177,0.00167639,0.0703172,20.9168,43.8404,2.93607,0.0,0.0
234,58.25,73.5655,77.865,161.777,99.7191,67.6145,0.00171657,0.0692631,20.9195,43.8604,2.969,0.0,0.0
240,59.75,72.9593,77.6071,159.879,99.7164,66.0523,0.00174958,0.0684014,20.9213,43.8304,3.14742,0.0,0.0
246,61.25,72.9146,77.7357,161.204,99.703,66.9798,0.00170926,0.0677867,20.9226,43.7703,3.03984,0.0,0.0
252,62.75,72.5718,77.7671,166.714,99.7238,67.2964,0.00159875,0.066931,20.9241,43.8104,3.0054,0.0,0.0
258,64.25,73.0908,77.42,166.91,99.6857,66.8921,0.0014627,0.0658734,20.9249,43.8704,3.04852,0.0,0.0
264,65.75,72.717,77.3064,166.596,99.6975,67.2444,0.00134186,0.0649154,20.9258,43.8604,3.00929,0.0,0.0
270,67.25,72.9053,77.1063,165.001,99.6755,66.5205,0.00126191,0.0643775,20.9269,43.8104,3.09031,0.0,0.0
276,68.75,72.8993,76.6885,165.796,99.6822,66.6245,0.00119987,0.0642036,20.9275,43.8003,3.07888,0.0,0.0
282,70.25,72.6048,76.9134,168.029,99.6386,66.3302,0.00117177,0.0639285,20.9278,43.7903,3.10937,0.0,0.0
288,71.75,72.7513,76.8106,165.175,99.6382,66.9174,0.00120474,0.0633441,20.928,43.8204,3.04199,0.0,0.0
294,73.25,72.6549,76.7101,168.497,99.6339,66.4165,0.00125019,0.0624906,20.9281,43.8304,3.09908,0.0,0.0
300,74.75,72.5849,77.0652,164.562,99.6056,66.8431,0.00128087,0.0618279,20.9291,43.8704,3.04798,0.0,0.0
306,76.25,71.944,76.3999,166.824,99.597,67.0571,0.00130279,0.0611473,20.9307,43.8704,3.02289,0.0,0.0
312,77.75,72.0503,76.4272,171.698,99.593,66.9367,0.00126787,0.0606035,20.9323,43.8504,3.03632,0.0,0.0
318,79.25,72.1528,75.8539,159.64,99.5675,67.2087,0.00118161,0.0602103,20.9338,43.8404,3.00337,0.0,0.0
324,80.75,72.2889,76.1852,164.621,99.5546,67.564,0.00107936,0.0596009,20.9354,43.7903,2.96209,0.0,0.0
330,82.25,72.0875,76.3489,167.321,99.5483,66.3763,0.000970642,0.0591772,20.9362,43.7803,3.09713,0.0,0.0
336,83.75,72.3199,76.3302,165.964,99.5192,66.4997,0.000861648,0.0587163,20.9367,43.8404,3.08071,0.0,0.0
342,85.25,71.9736,76.2219,165.825,99.518,67.1195,0.000773041,0.0585014,20.9369,43.8304,3.00972,0.0,0.0
348,86.75,72.1723,76.226,162.908,99.4866,66.7509,0.0007146,0.0584108,20.9371,43.7903,3.04939,0.0,0.0
354,88.25,72.1262,76.0186,164.282,99.4878,66.5725,0.000700788,0.0582547,20.9371,43.8104,3.06993,0.0,0.0
360,89.75,71.511,76.1283,162.631,99.4536,66.5859,0.000734275,0.0578953,20.9372,43.7503,3.06577,0.0,0.0
366,91.25,71.6614,75.5595,164.515,99.4567,66.8564,0.00073475,0.0573838,20.9372,43.8304,3.03503,0.0,0.0
372,92.75,71.6937,76.0691,163.362,99.4332,65.8724,0.000668407,0.0568765,20.9374,43.8304,3.14652,0.0,0.0
378,94.25,71.9894,76.3518,165.955,99.4053,66.571,0.000569913,0.0566178,20.9384,43.8204,3.06376,0.0,0.0
384,95.75,71.6332,75.5048,162.264,99.4065,66.9174,0.000488828,0.0565353,20.939,43.8104,3.0242,0.0,0.0
390,97.25,71.4131,75.773,164.762,99.3601,66.2411,0.00046757,0.0564039,20.9392,43.8204,3.09826,0.0,0.0
396,98.75,71.4348,75.4922,166.185,99.3884,66.5354,0.00046851,0.0561052,20.9394,43.8404,3.06656,0.0,0.0
402,100.25,71.4421,75.4981,171.681,99.3754,66.3882,0.00047078,0.0557157,20.9395,43.7103,3.08248,0.0,0.0
408,101.75,71.1061,75.894,165.411,99.3692,66.6899,0.000502479,0.0553656,20.9395,43.7403,3.04735,0.0,0.0
414,103.25,71.75,75.4137,168.361,99.3483,66.3897,0.000581292,0.0548974,20.9403,43.7303,3.08023,0.0,0.0
420,104.75,71.2139,75.1668,164.64,99.3633,66.2856,0.000651424,0.054428,20.9411,43.7703,3.09336,0.0,0.0
426,106.25,71.3917,75.4004,166.588,99.3448,66.629,0.000660982,0.0541058,20.9415,43.7503,3.05246,0.0,0.0
432,107.75,71.3733,76.0076,162.715,99.3444,65.7282,0.000608208,0.0537274,20.9417,43.7503,3.15644,0.0,0.0
438,109.25,71.2055,75.4804,160.294,99.3417,66.3451,0.000551548,0.0533774,20.9418,43.7803,3.08485,0.0,0.0
444,110.75,71.3897,75.1939,164.124,99.3338,66.0686,0.000477971,0.0532185,20.9418,43.7603,3.11615,0.0,0.0
450,112.25,71.3056,75.531,170.626,99.3271,66.8653,0.000446588,0.0529485,20.9428,43.7403,3.02404,0.0,0.0
456,113.75,70.9017,75.3391,166.841,99.3138,65.8382,0.00044574,0.0527157,20.9435,43.7503,3.14131,0.0,0.0
462,115.25,71.1847,75.7975,162.496,99.3102,66.8609,0.000441611,0.0526045,20.9439,43.6902,3.02325,0.0,0.0
468,116.75,71.8371,75.5406,165.014,99.324,66.4997,0.00044008,0.052339,20.944,43.7403,3.0657,0.0,0.0
474,118.25,71.0926,75.4878,165.696,99.3181,67.0928,0.000455951,0.052079,20.9441,43.7203,2.9974,0.0,0.0
480,119.75,71.1169,75.4645,161.107,99.3087,66.6275,0.00048988,0.0518972,20.9442,43.7403,3.04985,0.0,0.0
486,121.25,71.2576,75.4179,161.619,99.3208,66.6766,0.000509907,0.0516351,20.944,43.6802,3.04516,0.0,0.0
492,122.75,71.1507,75.8096,164.065,99.3028,66.0909,0.000465543,0.0513323,20.9438,43.7003,3.11119,0.0,0.0
498,124.25,71.1171,75.7108,160.732,99.3279,66.5101,0.000320607,0.0509265,20.9443,43.6802,3.06481,0.0,0.0
504,125.75,71.351,75.188,164.711,99.3063,66.25,0.000179281,0.0506498,20.9451,43.6902,3.09309,0.0,0.0
510,127.25,70.9162,75.4616,163.908,99.3075,66.1712,8.83445e-05,0.05038,20.9455,43.7003,3.10228,0.0,0.0
516,128.75,71.0085,75.4232,164.296,99.302,66.7033,4.99859e-05,0.0501102,20.9457,43.7203,3.04065,0.0,0.0
522,130.25,71.3112,75.7099,163.076,99.3138,66.4447,9.20807e-05,0.04976,20.9458,43.7003,3.07124,0.0,0.0
528,131.75,71.0673,75.6226,166.028,99.3091,66.739,0.000159099,0.0492763,20.9463,43.7503,3.0371,0.0,0.0
534,133.25,71.181,75.4143,163.91,99.3079,66.0984,0.000238922,0.0489234,20.9473,43.7403,3.11072,0.0,0.0
540,134.75,71.092,75.6132,161.751,99.3326,67.2028,0.00030723,0.0487569,20.9477,43.7403,2.986,0.0,0.0
546,136.25,71.1018,75.5962,162.464,99.3087,67.1299,0.000326172,0.0485139,20.948,43.7403,2.99244,0.0,0.0
552,137.75,71.1772,75.2311,163.608,99.3346,66.9085,0.000299571,0.0482631,20.9481,43.7003,3.01969,0.0,0.0
558,139.25,70.7252,75.4523,161.289,99.3083,67.1894,0.000251962,0.0480618,20.9482,43.7403,2.98565,0.0,0.0
564,140.75,70.8066,75.7409,169.291,99.3036,66.2084,0.000199216,0.0479455,20.9483,43.7103,3.09768,0.0,0.0
570,142.25,71.4484,75.2124,166.243,99.3055,67.1641,0.000118066,0.0478761,20.9483,43.6702,2.98831,0.0,0.0
571,142.5,71.2759,75.8971,165.121,99.3122,66.7301,0.000100579,0.0478499,20.9483,43.6702,3.03837,0.0,0.0

File: Feather_Pillow_Feathers_Cone_HF75Scan_230710_R3.csv
Names,Time,Stack TC,Smoke TC,Exh Press,Smoke Comp,Smoke Meas,CO Meter,CO2 Meter,O2 Meter,Sample Mass,Ext Coeff,Start Test,Flame Verif
Chan Gain,,500,500,1,1,1,1,1,1,1,1,1.0,1.0
Offset,,0,0,0.18266,0,0,0,0,0,0,0,0.0,0.0
Gain,,1,1,25.011,12.9494,73.1405,1,1,1,1.00092,0.871134,1.0,1.0
Units,sec,C,C,Pa,%,%,%,%,%,g,/m,,
Baseline,,67.8388,71.1797,167.304,99.8215,100.175,0.000226445,0.0440013,20.9515,-448.532,-0.0269346,,
6,1.25,65.962,67.2071,173.66,99.8671,90.5574,-0.000191061,0.047583,20.9462,47.6039,0.747772,0.0,0.0
12,2.75,65.9016,68.7338,144.965,99.8686,102.153,-9.81413e-05,0.0477975,20.9447,47.2735,-0.172819,0.0,1.0
18,4.25,67.6406,71.2071,138.737,99.9121,100.421,-5.7269e-05,0.0473216,20.9446,46.8131,-0.0388148,0.0,1.0
24,5.75,69.3919,76.5913,141.186,99.9117,98.2915,-2.84673e-05,0.0465908,20.945,46.4728,0.124934,0.0,1.0
30,7.25,71.1787,81.5382,144.356,99.9493,98.4946,3.49663e-05,0.0460676,20.9452,46.1926,0.11203,0.0,0.0
36,8.75,72.4706,84.953,148.374,99.9536,95.2626,0.000177773,0.0465965,20.9453,45.8422,0.367321,0.0,0.0
42,10.25,74.8503,87.4146,148.386,99.9935,88.5552,0.000363284,0.0602477,20.9449,45.642,0.928287,0.0,0.0
48,11.75,75.5687,89.818,149.396,100.006,84.7227,0.000708898,0.119491,20.9436,45.4519,1.26733,0.0,0.0
54,13.25,76.9351,91.889,149.312,100.017,82.8255,0.00116571,0.24453,20.9325,45.2317,1.44124,0.0,0.0
60,14.75,78.4346,92.7013,148.44,100.034,81.6269,0.0018341,0.362228,20.85,45.1015,1.55394,0.0,0.0
66,16.25,78.9243,93.6306,154.371,100.05,83.7585,0.00250768,0.444643,20.6666,44.9814,1.35818,0.0,0.0
72,17.75,79.5473,94.3316,153.245,100.077,91.5931,0.00320395,0.493775,20.509,44.9114,0.676943,0.0,0.0
78,19.25,79.922,93.9959,158.386,100.072,99.1643,0.00414042,0.513471,20.3893,44.9714,0.0696149,0.0,0.0
84,20.75,79.2114,93.089,158.508,100.084,100.416,0.00528073,0.516359,20.3258,45.0014,-0.0253388,0.0,0.0
90,22.25,79.6171,91.51,161.148,100.118,100.394,0.00677258,0.513947,20.2829,45.0115,-0.0210754,0.0,0.0
96,23.75,79.1877,90.3301,160.782,100.129,100.669,0.00820749,0.501621,20.2605,45.0415,-0.041039,0.0,0.0
102,25.25,78.5648,88.812,159.508,100.131,99.5928,0.00945206,0.472209,20.2533,45.0315,0.0412171,0.0,0.0
108,26.75,78.278,88.1016,165.729,100.163,100.454,0.00990118,0.426138,20.2668,45.0215,-0.0222233,0.0,0.0
114,28.25,77.9786,87.8569,164.143,100.165,100.99,0.00927874,0.35545,20.3065,45.0215,-0.0627144,0.0,0.0
120,29.75,78.0545,87.11,163.975,100.168,100.097,0.00811385,0.27496,20.3811,45.0515,0.00541363,0.0,0.0
126,31.25,77.6236,86.406,163.557,100.16,100.941,0.00678894,0.210873,20.4994,45.0014,-0.0593899,0.0,0.0
132,32.75,77.548,85.3025,161.415,100.184,100.472,0.00551557,0.161846,20.6017,45.0014,-0.0219839,0.0,0.0
138,34.25,76.6817,84.5332,160.061,100.155,101.039,0.00459882,0.131016,20.6893,45.0115,-0.0671532,0.0,0.0
144,35.75,77.0012,84.3326,162.443,100.184,101.399,0.00400188,0.111859,20.7533,44.9714,-0.0920826,0.0,0.0
150,37.25,76.8422,83.7733,161.224,100.175,100.274,0.00362584,0.100265,20.8009,44.9714,-0.00749343,0.0,0.0
156,38.75,76.702,82.7947,162.296,100.18,101.2,0.00339897,0.0932186,20.8352,44.9514,-0.0773681,0.0,0.0
162,40.25,76.4659,82.5312,166.23,100.181,101.314,0.00324339,0.0879985,20.8599,44.9414,-0.085899,0.0,0.0
168,41.75,76.3154,82.5216,163.372,100.174,101.086,0.00311848,0.0844412,20.8769,44.9714,-0.0692506,0.0,0.0
174,43.25,75.8274,81.7418,162.636,100.182,99.2156,0.00302427,0.0827956,20.8888,44.9114,0.0740746,0.0,0.0
180,44.75,75.8897,81.7905,165.691,100.168,101.01,0.00297574,0.0818292,20.8958,44.9214,-0.0639631,0.0,0.0
186,46.25,75.6005,81.5691,163.293,100.19,101.113,0.00286224,0.0806241,20.9005,44.9214,-0.0700384,0.0,0.0
192,47.75,75.8789,81.4433,163.057,100.172,101.088,0.00268923,0.0794036,20.9037,44.9214,-0.0695999,0.0,0.0
198,49.25,75.5353,80.6548,164.676,100.186,100.693,0.00248859,0.078589,20.9068,44.8913,-0.0385914,0.0,0.0
204,50.75,75.5331,80.9201,165.24,100.177,101.434,0.00232267,0.0782314,20.9086,44.9014,-0.0953157,0.0,0.0
210,52.25,75.2943,80.1149,162.322,100.173,101.242,0.0022446,0.0779012,20.9096,44.8913,-0.0811423,0.0,0.0
216,53.75,75.3005,80.3146,163.412,100.171,100.287,0.00219544,0.0771278,20.9111,44.8713,-0.00881525,0.0,0.0
222,55.25,75.3668,80.5461,160.201,100.169,100.582,0.00210493,0.0758267,20.9121,44.8413,-0.031383,0.0,0.0
228,56.75,74.6278,79.9398,163.881,100.175,100.622,0.00199916,0.0747609,20.9135,44.8813,-0.033983,0.0,0.0
234,58.25,74.8956,79.6969,164.68,100.184,100.702,0.00192114,0.0739671,20.9144,44.8513,-0.0394195,0.0,0.0
240,59.75,74.8659,79.7159,162.41,100.194,100.707,0.001812,0.0727941,20.9148,44.8913,-0.0389741,0.0,0.0
246,61.25,74.8495,79.7943,167.262,100.172,100.666,0.00166616,0.0714439,20.9161,44.8713,-0.0376132,0.0,0.0
252,62.75,74.8761,79.0491,162.364,100.172,101.363,0.00151292,0.0701834,20.9177,44.8613,-0.090325,0.0,0.0
258,64.25,74.5118,79.1991,167.713,100.165,100.606,0.00147413,0.0697901,20.9187,44.8413,-0.0336101,0.0,0.0
264,65.75,74.7104,79.2639,160.958,100.166,101.615,0.0014943,0.0693011,20.9204,44.9014,-0.109738,0.0,0.0
270,67.25,74.2956,78.9776,166.084,100.164,100.885,0.00155923,0.0686757,20.9214,44.9314,-0.0548029,0.0,0.0
276,68.75,74.2922,78.8013,161.683,100.163,101.178,0.0016099,0.0679314,20.9219,44.8413,-0.0770395,0.0,0.0
282,70.25,74.568,78.6739,164.189,100.163,100.829,0.00161865,0.0671737,20.9221,44.7913,-0.0506358,0.0,0.0
288,71.75,74.6166,78.4679,161.751,100.156,101.2,0.00159615,0.0664722,20.9229,44.8313,-0.0792671,0.0,0.0
294,73.25,74.6883,78.3944,163.008,100.175,101.059,0.0015354,0.0661612,20.9238,44.8213,-0.067195,0.0,0.0
300,74.75,74.063,78.7768,162.236,100.165,101.521,0.0014658,0.0659476,20.9243,44.7712,-0.102745,0.0,0.0
306,76.25,74.1451,78.1441,160.755,100.165,100.055,0.00136875,0.0652494,20.9253,44.8013,0.00844067,0.0,0.0
312,77.75,73.9916,78.3892,167.384,100.162,100.419,0.00128531,0.0642755,20.9262,44.8513,-0.0195665,0.0,0.0
318,79.25,73.957,78.405,162.928,100.156,99.9745,0.00125516,0.0631812,20.9266,44.8613,0.0138565,0.0,0.0
324,80.75,73.139,78.6388,162.783,100.154,100.836,0.0012429,0.0624658,20.9271,44.8213,-0.051867,0.0,0.0
330,82.25,73.6359,78.1588,162.201,100.165,100.497,0.00118804,0.0618427,20.9288,44.8013,-0.0252378,0.0,0.0
336,83.75,74.1046,78.0683,160.197,100.161,101.55,0.00105755,0.0612594,20.9303,44.7913,-0.105231,0.0,0.0
342,85.25,73.8097,77.5834,167.439,100.164,99.8919,0.000932292,0.0609472,20.9319,44.7712,0.0207749,0.0,0.0
348,86.75,73.8681,78.4097,167.174,100.151,100.035,0.000846645,0.060678,20.933,44.7712,0.00886014,0.0,0.0
354,88.25,73.67,78.0124,163.756,100.187,100.736,0.000803881,0.0602855,20.9338,44.7712,-0.0417479,0.0,0.0
360,89.75,73.5753,78.2405,163.589,100.165,101.934,0.000798493,0.0598931,20.9342,44.8013,-0.133824,0.0,0.0
366,91.25,73.4461,77.881,161.609,100.163,101.825,0.000786203,0.0595247,20.9344,44.78125,-0.125712,0.0,0.0
372,92.75,73.228,78.2466,163.461,100.169,100.564,0.00075721,0.0590029,20.9355,44.7712,-0.0300266,0.0,0.0
378,94.25,73.5506,77.9318,165.704,100.176,100.365,0.000768973,0.0583383,20.9362,44.7712,-0.0143736,0.0,0.0
384,95.75,73.5854,77.4988,160.755,100.169,101.175,0.000820144,0.0576548,20.9366,44.7913,-0.0764185,0.0,0.0
390,97.25,73.3754,77.245,161.266,100.169,100.894,0.000862181,0.0571031,20.9368,44.7913,-0.0551474,0.0,0.0
396,98.75,73.6579,77.4645,165.346,100.178,100.604,0.000868582,0.0565594,20.9374,44.8113,-0.0324153,0.0,0.0
402,100.25,73.0474,77.2911,167.463,100.164,101.079,0.000844308,0.0560048,20.9383,44.8213,-0.0694979,0.0,0.0
408,101.75,72.9039,77.533,162.6,100.181,101.048,0.000793796,0.0552669,20.9388,44.8313,-0.0658387,0.0,0.0
414,103.25,73.6889,77.6376,164.522,100.165,101.278,0.000785818,0.0545772,20.9391,44.8213,-0.0844109,0.0,0.0
420,104.75,72.9577,77.5142,165.298,100.19,100.466,0.00082702,0.0540951,20.9392,44.8313,-0.0210224,0.0,0.0
426,106.25,72.9224,77.7157,165.025,100.181,100.122,0.000899436,0.0536851,20.9394,44.8013,0.00453423,0.0,0.0
432,107.75,73.586,77.1828,167.821,100.186,100.575,0.00092003,0.0532142,20.9395,44.7712,-0.0296384,0.0,0.0
438,109.25,72.5333,77.1756,163.891,100.19,100.579,0.000847182,0.0527799,20.9401,44.8213,-0.0296763,0.0,0.0
444,110.75,73.016,77.0542,165.763,100.217,100.874,0.000635397,0.0522199,20.941,44.8013,-0.0499486,0.0,0.0
450,112.25,72.8393,77.5028,169.413,100.23,100.495,0.000411265,0.0517779,20.9414,44.78125,-0.0201259,0.0,0.0
456,113.75,72.9374,76.8394,165.559,100.24,100.999,0.000293703,0.051398,20.9426,44.7512,-0.0576646,0.0,0.0
462,115.25,72.8873,77.0486,161.488,100.228,101.184,0.000305681,0.0509546,20.9425,44.7412,-0.072572,0.0,0.0
468,116.75,72.8398,76.6814,165.117,100.252,101.912,0.000397174,0.0504045,20.9433,44.7112,-0.125521,0.0,0.0
474,118.25,72.7741,76.8914,160.539,100.26,100.345,0.00047851,0.0499251,20.9438,44.7512,-0.00648592,0.0,0.0
480,119.75,72.9991,76.7174,163.74,100.237,100.343,0.000482544,0.0495798,20.944,44.7612,-0.00809299,0.0,0.0
486,121.25,72.8895,76.3236,166.608,100.271,101.82,0.000440782,0.0493609,20.9441,44.7712,-0.11715,0.0,0.0
492,122.75,72.3309,76.6584,165.764,100.279,101.017,0.000397196,0.0489779,20.9442,44.7212,-0.0560333,0.0,0.0
498,124.25,72.5482,76.6588,164.924,100.286,101.881,0.000373711,0.0486942,20.9452,44.7512,-0.120588,0.0,0.0
504,125.75,72.2656,76.4689,163.022,100.295,100.716,0.000340068,0.0484848,20.9459,44.78125,-0.03194,0.0,0.0
510,127.25,72.7907,76.5421,164.348,100.299,100.155,0.000312007,0.0483149,20.9462,44.8113,0.0109571,0.0,0.0
516,128.75,73.0199,76.4611,163.296,100.309,100.28,0.000344882,0.0480168,20.9469,44.7913,0.00220871,0.0,0.0
522,130.25,72.6847,76.6334,166.001,100.342,101.149,0.000410749,0.0478657,20.9474,44.7512,-0.0612019,0.0,0.0
528,131.75,72.7967,75.9525,164.266,100.327,101.51,0.000393423,0.0476621,20.9476,44.7612,-0.0896144,0.0,0.0
534,133.25,73.0284,76.2563,160.582,100.346,101.336,0.000323827,0.0476121,20.9479,44.78125,-0.074992,0.0,0.0
540,134.75,72.9101,76.0494,166.05,100.34,101.37,0.000284511,0.0474707,20.9489,44.7312,-0.0780288,0.0,0.0
546,136.25,72.4328,76.7023,169.138,100.355,101.541,0.000267251,0.0471921,20.9495,44.7612,-0.0898296,0.0,0.0
552,137.75,72.5432,76.5488,165.264,100.352,101.133,0.000258731,0.0470293,20.9498,44.7612,-0.0592389,0.0,0.0
558,139.25,72.3106,76.3257,166.687,100.355,100.588,0.000253071,0.0469132,20.9499,44.7412,-0.0177356,0.0,0.0
564,140.75,72.4632,76.0823,160.59,100.354,102.385,0.000240758,0.0467823,20.95,44.7312,-0.153153,0.0,0.0
570,142.25,72.2864,76.2825,165.366,100.341,102.34,0.000211591,0.0465864,20.95,44.7212,-0.150753,0.0,0.0
574,143.25,72.5999,76.7446,162.773,100.344,101.017,0.000194845,0.0464207,20.9501,44.7212,-0.0510356,0.0,0.0

File: Feather_Pillow_Feathers_HRRPUA_25.csv
Time after Ignition,Feather_Pillow_Feathers_R1,Mean,Std. Dev.
0.0,-3.2,-3.2,
0.25,-3.3,-3.3,
0.5,-3.2,-3.2,
0.75,-3.2,-3.2,
1.0,-3.1,-3.1,
1.25,-3.1,-3.1,
1.5,-3.1,-3.1,
1.75,-3.1,-3.1,
2.0,-3.1,-3.1,
2.25,-3.0,-3.0,
2.5,-3.1,-3.1,
2.75,-3.0,-3.0,
3.0,-3.0,-3.0,
3.25,-3.0,-3.0,
3.5,-3.0,-3.0,
3.75,-2.9,-2.9,
4.0,-3.0,-3.0,
4.25,-2.9,-2.9,
4.5,-2.7,-2.7,
4.75,-2.5,-2.5,
5.0,-2.5,-2.5,
5.25,-2.4,-2.4,
5.5,-2.3,-2.3,
5.75,-2.3,-2.3,
6.0,-2.3,-2.3,
6.25,-2.2,-2.2,
6.5,-2.2,-2.2,
6.75,-2.1,-2.1,
7.0,-2.0,-2.0,
7.25,-2.0,-2.0,
7.5,-2.0,-2.0,
7.75,-1.9,-1.9,
8.0,-1.9,-1.9,
8.25,-1.9,-1.9,
8.5,-1.8,-1.8,
8.75,-1.6,-1.6,
9.0,-1.5,-1.5,
9.25,-1.4,-1.4,
9.5,-1.3,-1.3,
9.75,-1.1,-1.1,
10.0,-1.0,-1.0,
10.25,-0.8,-0.8,
10.5,-0.7,-0.7,
10.75,-0.2,-0.2,
11.0,0.2,0.2,
11.25,0.6,0.6,
11.5,0.9,0.9,
11.75,3.6,3.6,
12.0,6.0,6.0,
12.25,8.0,8.0,
12.5,10.0,10.0,
12.75,16.1,16.1,
13.0,21.6,21.6,
13.25,26.2,26.2,
13.5,30.7,30.7,
13.75,34.9,34.9,
14.0,41.1,41.1,
14.25,47.6,47.6,
14.5,52.9,52.9,
14.75,56.8,56.8,
15.0,62.4,62.4,
15.25,67.5,67.5,
15.5,75.1,75.1,
15.75,80.5,80.5,
16.0,86.3,86.3,
16.25,90.2,90.2,
16.5,95.6,95.6,
16.75,102.5,102.5,
17.0,106.9,106.9,
17.25,111.3,111.3,
17.5,117.4,117.4,
17.75,121.9,121.9,
18.0,128.2,128.2,
18.25,132.8,132.8,
18.5,133.8,133.8,
18.75,140.8,140.8,
19.0,143.1,143.1,
19.25,147.3,147.3,
19.5,152.8,152.8,
19.75,154.6,154.6,
20.0,158.3,158.3,
20.25,159.4,159.4,
20.5,160.1,160.1,
20.75,165.4,165.4,
21.0,165.6,165.6,
21.25,167.4,167.4,
21.5,173.4,173.4,
21.75,173.8,173.8,
22.0,177.5,177.5,
22.25,178.0,178.0,
22.5,184.4,184.4,
22.75,184.4,184.4,
23.0,184.9,184.9,
23.25,189.1,189.1,
23.5,193.8,193.8,
23.75,194.3,194.3,
24.0,194.3,194.3,
24.25,196.8,196.8,
24.5,198.4,198.4,
24.75,200.5,200.5,
25.0,198.4,198.4,
25.25,202.6,202.6,
25.5,208.3,208.3,
25.75,207.0,207.0,
26.0,208.5,208.5,
26.25,215.4,215.4,
26.5,214.1,214.1,
26.75,213.2,213.2,
27.0,217.3,217.3,
27.25,217.8,217.8,
27.5,218.4,218.4,
27.75,223.6,223.6,
28.0,220.4,220.4,
28.25,222.5,222.5,
28.5,225.4,225.4,
28.75,226.0,226.0,
29.0,225.3,225.3,
29.25,231.8,231.8,
29.5,227.7,227.7,
29.75,229.9,229.9,
30.0,229.6,229.6,
30.25,233.3,233.3,
30.5,230.9,230.9,
30.75,233.9,233.9,
31.0,232.7,232.7,
31.25,235.0,235.0,
31.5,233.5,233.5,
31.75,233.3,233.3,
32.0,231.3,231.3,
32.25,231.1,231.1,
32.5,230.8,230.8,
32.75,227.4,227.4,
33.0,222.4,222.4,
33.25,223.6,223.6,
33.5,222.2,222.2,
33.75,219.5,219.5,
34.0,217.7,217.7,
34.25,213.0,213.0,
34.5,211.8,211.8,
34.75,206.9,206.9,
35.0,204.6,204.6,
35.25,203.2,203.2,
35.5,197.3,197.3,