Folder: fsri_materials_database/01_Data/Feather_Pillow_Feathers/Cone (part 2)

File: Feather_Pillow_Feathers_Cone_HF25Scan_230710_R3.csv
Names,Time,Stack TC,Smoke TC,Exh Press,Smoke Comp,Smoke Meas,CO Meter,CO2 Meter,O2 Meter,Sample Mass,Ext Coeff,Start Test,Flame Verif
Chan Gain,,500,500,1,1,1,1,1,1,1,1,1.0,1.0
Offset,,0,0,0.18266,0,0,0,0,0,0,0,0.0,0.0
Gain,,1,1,25.011,13.0208,54.2044,1,1,1,1.00092,0.871134,1.0,1.0
Units,sec,C,C,Pa,%,%,%,%,%,g,/m,,
Baseline,,41.521,42.9338,182.245,98.8739,98.686,9.83801e-05,0.0454853,20.9546,-446.065,0.0146474,,
13,3,40.5869,41.4444,180.907,99.8018,99.3803,0.000309198,0.0459307,20.9544,50.2062,0.03234,0.0,0.0
26,6.25,40.9977,42.313,183.116,99.8002,96.0769,0.000400114,0.0461573,20.9527,50.1162,0.290541,0.0,0.0
39,9.5,40.7817,42.5916,179.527,99.8567,94.7073,0.000505156,0.0459702,20.9519,49.986,0.404581,0.0,0.0
52,12.75,41.4884,43.0906,182.187,99.8698,92.092,0.000559306,0.0459623,20.9511,49.906,0.619568,0.0,0.0
65,16,42.0928,43.5757,176.322,99.8487,91.8439,0.00078312,0.0466398,20.9502,49.7859,0.638573,0.0,0.0
78,19.25,41.6991,43.6491,183.57,99.8578,94.8346,0.00113917,0.0480642,20.9495,49.6958,0.394403,0.0,0.0
91,22.5,42.175,44.1426,182.766,99.8292,93.2665,0.00121474,0.0496867,20.9493,49.6357,0.519628,0.0,0.0
104,25.75,42.0161,44.353,182.032,99.8074,93.4534,0.00135893,0.0505531,20.9502,49.5256,0.502655,0.0,0.0
117,29,41.8195,44.3649,178.481,99.7899,92.6064,0.00148562,0.051086,20.95,49.4455,0.570885,0.0,0.0
130,32.25,42.4594,44.1727,184.899,99.7728,91.9282,0.00147834,0.0515113,20.9509,49.3655,0.625747,0.0,0.0
143,35.5,42.6714,44.3572,181.99,99.7569,92.6974,0.00162888,0.0520841,20.9496,49.3154,0.560855,0.0,0.0
156,38.75,42.7154,45.1938,182.171,99.7251,92.6925,0.0018378,0.0524735,20.949,49.2754,0.55883,0.0,0.0
169,42,42.6653,45.0815,184.575,99.6914,95.8917,0.00194642,0.0526069,20.9484,49.2053,0.29695,0.0,0.0
182,45.25,42.7553,45.0256,176.261,99.6687,95.4798,0.00210526,0.0524459,20.9478,49.1653,0.328108,0.0,0.0
195,48.5,42.8118,45.0289,184.091,99.6457,95.2763,0.00197005,0.0521771,20.9485,49.0952,0.342641,0.0,0.0
208,51.75,42.9066,44.7348,180.766,99.6214,95.0116,0.00162057,0.0515303,20.9494,49.0552,0.36204,0.0,0.0
221,55,43.0373,44.9762,182.263,99.6023,96.6592,0.0013154,0.0511021,20.9508,49.0151,0.229202,0.0,0.0
234,58.25,43.2758,44.657,183.838,99.5729,94.5931,0.000949831,0.0508716,20.9517,49.0051,0.392054,0.0,0.0
247,61.5,43.3248,44.8397,177.689,99.5364,95.6882,0.000879233,0.0499297,20.9519,48.9951,0.301293,0.0,0.0
260,64.75,43.0195,44.9265,183.857,99.4911,97.2514,0.00069566,0.0491188,20.952,48.9251,0.173987,0.0,0.0
273,68,43.5051,45.2808,180.601,99.5054,96.7121,0.000732521,0.0492153,20.9515,48.9351,0.217577,0.0,0.0
286,71.25,43.3383,45.6819,182.653,99.466,96.1183,0.000875277,0.0488875,20.9517,48.905,0.261621,0.0,0.0
299,74.5,43.4309,45.2644,177.928,99.4621,97.7477,0.000705756,0.0485521,20.9535,48.9151,0.132865,0.0,0.0
312,77.75,43.0377,45.1496,182.394,99.4442,95.9926,0.000572143,0.0481763,20.9535,48.855,0.269943,0.0,0.0
325,81,43.6101,45.2779,178.693,99.4382,96.1199,0.000442983,0.0479601,20.9523,48.875,0.259353,0.0,0.0
338,84.25,43.5641,45.7996,178.605,99.6,97.2944,0.000436051,0.0478501,20.9526,48.855,0.178967,0.0,0.0
351,87.5,43.2222,45.2367,180.221,99.7184,96.6824,0.000607455,0.0478638,20.9538,48.805,0.236268,0.0,0.0
364,90.75,43.4948,45.5649,180.97,99.8253,96.4375,0.000762818,0.0477128,20.9541,48.7849,0.26383,0.0,0.0
377,94,43.6053,45.4962,178.908,99.9532,96.3929,0.000638912,0.0476965,20.9513,48.805,0.277158,0.0,0.0
390,97.25,43.7734,45.9371,184.75,100.026,97.3705,0.000478678,0.0475516,20.9509,48.7749,0.205604,0.0,0.0
403,100.5,43.528,44.8953,181.455,100.126,97.7956,0.000447954,0.0473729,20.9521,48.7249,0.179929,0.0,0.0
416,103.75,43.5847,45.6138,178.95,100.193,98.1976,0.000577663,0.0473177,20.9524,48.6848,0.153708,0.0,0.0
429,107,43.9601,45.4665,180.694,100.234,98.7071,0.000790474,0.0470701,20.9525,48.7349,0.117284,0.0,0.0
442,110.25,43.9522,45.6484,178.269,100.259,99.157,0.000795086,0.0471044,20.9531,48.7249,0.0844397,0.0,0.0
455,113.5,43.7443,45.8627,178.744,100.268,98.3514,0.00072295,0.0469156,20.9533,48.6448,0.147442,0.0,0.0
468,116.75,43.9889,45.8095,179.571,100.248,98.4242,0.000548375,0.0470236,20.9534,48.6448,0.140274,0.0,0.0
481,120,43.2895,45.873,181.038,100.248,98.1629,0.000391379,0.046882,20.9535,48.6348,0.160654,0.0,0.0
494,123.25,43.7147,45.7527,179.858,100.225,100.016,0.00045988,0.0467373,20.9535,48.6148,0.0160176,0.0,0.0
507,126.5,44.0243,45.7704,175.335,100.181,98.0835,0.000465352,0.0465988,20.9535,48.6048,0.161717,0.0,0.0
520,129.75,43.4684,45.9408,182.811,100.13,100.154,0.000365656,0.046634,20.9535,48.5547,-0.00189681,0.0,0.0
533,133,43.9072,45.5352,183.717,100.068,98.9966,0.000451881,0.0465515,20.9535,48.5247,0.0822942,0.0,0.0
546,136.25,43.9412,45.519,182.38,100.015,99.0875,0.000491347,0.0463491,20.9535,48.5747,0.071207,0.0,0.0
559,139.5,43.9604,45.8205,183.216,99.948,97.8353,0.000631388,0.0462113,20.9535,48.5347,0.16326,0.0,0.0
572,142.75,43.7726,45.8363,183.224,99.8769,98.3283,0.000845791,0.0462302,20.9535,48.5747,0.119415,0.0,0.0
585,146,43.9946,45.7651,181.76,99.8125,98.846,0.0009202,0.0460614,20.9535,48.5547,0.0743561,0.0,0.0
598,149.25,43.4233,45.8336,178.563,99.7263,97.6418,0.000790641,0.0461185,20.9535,48.5147,0.161421,0.0,0.0
611,152.5,43.9711,46.1406,179.638,99.7331,98.2737,0.000521646,0.0460779,20.9553,48.5447,0.112644,0.0,0.0
624,155.75,44.1393,45.9324,177.861,99.7525,97.6716,0.00058356,0.0461737,20.9557,48.5347,0.1611,0.0,0.0
637,159,44.1986,46.4178,179.617,99.7724,97.746,0.00074569,0.046087,20.9558,48.5147,0.1568,0.0,0.0
650,162.25,44.0949,46.1125,178.697,99.8149,99.5259,0.000588699,0.0459439,20.9563,48.5247,0.0221593,0.0,0.0
663,165.5,44.0125,46.0135,180.232,99.8364,99.1736,0.000504756,0.0459347,20.9565,48.4947,0.050902,0.0,0.0
676,168.75,44.0294,45.3932,180.872,99.8634,98.583,0.000362708,0.045865,20.9565,48.5247,0.098609,0.0,0.0
689,172,44.4436,45.7856,183.961,99.9171,99.5838,0.000188866,0.0456977,20.9559,48.4346,0.0255292,0.0,0.0
702,175.25,44.1909,45.6926,179.275,99.9361,99.3423,0.000184152,0.0455954,20.9559,48.4646,0.0455422,0.0,0.0
715,178.5,44.5075,45.9951,180.828,99.9536,98.7683,0.000115802,0.0455516,20.9564,48.4646,0.0911603,0.0,0.0
728,181.75,43.592,45.0558,180.124,99.9862,99.731,-1.69789e-05,0.0455429,20.9561,48.4246,0.0195266,0.0,0.0
741,185,43.4956,45.4011,178.417,100.016,99.4763,2.91868e-05,0.0455338,20.9563,48.4346,0.0413784,0.0,0.0
754,188.25,43.3653,45.5334,177.208,100.051,100.522,0.000194875,0.0457368,20.9561,48.4446,-0.035901,0.0,0.0
767,191.5,43.5546,45.3523,181.131,100.076,98.3878,0.000422098,0.045586,20.9566,48.4246,0.129974,0.0,0.0
780,194.75,43.7015,45.3564,178.074,100.108,99.033,0.000562264,0.0455341,20.9572,48.4546,0.0824889,0.0,0.0
793,198,43.7155,45.2019,180.886,100.12,98.2241,0.000474284,0.0455356,20.9573,48.4246,0.1461,0.0,0.0
806,201.25,43.348,44.9988,179.281,100.196,97.9677,0.000232297,0.0454312,20.9574,48.4246,0.171835,0.0,0.0
819,204.5,43.6642,45.5694,181.905,100.225,100.093,0.000214907,0.0453114,20.9574,48.4146,0.0100183,0.0,0.0
832,207.75,43.8741,45.4604,183.339,100.271,99.5739,0.000403593,0.0454442,20.9578,48.4146,0.0533204,0.0,0.0
845,211,43.9674,45.1865,184.664,100.334,99.2712,0.000418656,0.0453582,20.958,48.3946,0.0813696,0.0,0.0
858,214.25,43.9604,45.6847,179.28,100.385,100.111,0.000468183,0.0454655,20.9575,48.3946,0.0208294,0.0,0.0
871,217.5,43.3576,45.0175,178.836,100.402,99.6003,0.000504406,0.0453831,20.9574,48.4146,0.0612768,0.0,0.0
884,220.75,43.4487,45.3665,181.72,100.439,99.2513,0.000515303,0.0452985,20.9574,48.3846,0.0908831,0.0,0.0
897,224,43.5504,45.3633,176.855,100.494,99.3886,0.0006266,0.0453165,20.9574,48.3946,0.0845514,0.0,0.0
910,227.25,43.0858,44.9723,180.125,100.496,99.5259,0.000393954,0.0452119,20.9574,48.3645,0.074154,0.0,0.0
923,230.5,43.4713,45.2495,182.326,100.522,100.174,0.00030695,0.0451119,20.957,48.3545,0.0264616,0.0,0.0
936,233.75,43.8004,45.8283,180.421,100.559,99.3158,0.000400597,0.0451814,20.9566,48.3846,0.0950425,0.0,0.0
949,237,43.6292,45.1719,177.644,100.56,100.815,0.00028505,0.0450565,20.9566,48.3645,-0.0193172,0.0,0.0
962,240.25,44.2687,45.9289,180.479,100.587,101.051,0.000508146,0.0450748,20.9565,48.3645,-0.0351428,0.0,0.0
975,243.5,43.7064,45.1595,178.65,100.57,100.204,0.00074005,0.0451529,20.957,48.3846,0.027845,0.0,0.0
988,246.75,43.596,45.113,179.307,100.554,99.9792,0.000499614,0.0451469,20.9579,48.3445,0.0437817,0.0,0.0
1001,250,43.3454,44.9916,182.642,100.569,101.375,0.000231748,0.0449209,20.9583,48.3145,-0.06101,0.0,0.0
1014,253.25,43.6664,45.3866,177.743,100.568,100.123,8.26178e-05,0.0450645,20.9561,48.3345,0.0338774,0.0,0.0
1027,256.5,43.7695,45.5108,180.462,100.541,99.8385,0.000120714,0.0450996,20.9555,48.4947,0.0535402,0.0,0.0
1040,259.75,43.8049,45.0864,180.159,100.53,100.685,0.000311974,0.0449385,20.9542,48.3645,-0.0118268,0.0,0.0
1053,263,43.7991,45.6829,180.468,100.516,99.8683,0.000439647,0.0452168,20.9535,48.3145,0.049388,0.0,0.0
1066,266.25,43.7736,45.4208,181.881,100.512,100.31,0.000346301,0.0452973,20.954,48.3145,0.0153967,0.0,0.0
1079,269.5,43.4231,45.5138,183.112,100.473,99.9626,0.000333528,0.0452953,20.9541,48.3145,0.0389444,0.0,0.0
1092,272.75,44.4812,45.7073,187.757,100.455,99.9279,0.000144846,0.0454375,20.9542,48.3445,0.0402104,0.0,0.0
1105,276,43.6317,45.6068,180.414,100.417,99.1653,2.41294e-07,0.0454988,20.9554,48.3045,0.0958765,0.0,0.0
1118,279.25,43.8414,45.7722,180.761,100.398,99.5391,8.5728e-05,0.0454401,20.9562,48.2845,0.0656412,0.0,0.0
1131,282.5,43.5787,45.0031,182.714,100.356,100.811,0.000133874,0.0453075,20.9564,48.3345,-0.0345727,0.0,0.0
1144,285.75,43.9159,45.4765,179.089,100.322,100.011,0.000334485,0.0450649,20.9561,48.3345,0.023725,0.0,0.0
1157,289,43.5512,45.4718,183.091,100.297,100.164,0.000485908,0.0450392,20.9558,48.3445,0.010072,0.0,0.0
1170,292.25,44.1967,45.4156,175.706,100.265,100.313,0.000483181,0.0451918,20.9557,48.3045,-0.00366924,0.0,0.0
1183,295.5,43.4525,45.1108,183.364,100.224,100.227,0.000377119,0.0454862,20.9557,48.3345,-0.000264177,0.0,0.0
1196,298.75,43.8916,45.3126,179.49,100.194,99.157,0.000164814,0.0454617,20.9562,48.3145,0.079501,0.0,0.0
1202,300.25,43.9264,45.6341,180.01,100.172,99.3704,0.000133201,0.0453787,20.9563,48.3445,0.0613762,0.0,0.0

File: Feather_Pillow_Feathers_Cone_HF25Scan_230710_R4.csv
Names,Time,Stack TC,Smoke TC,Exh Press,Smoke Comp,Smoke Meas,CO Meter,CO2 Meter,O2 Meter,Sample Mass,Ext Coeff,Start Test,Flame Verif
Chan Gain,,500,500,1,1,1,1,1,1,1,1,1.0,1.0
Offset,,0,0,0.18266,0,0,0,0,0,0,0,0.0,0.0
Gain,,1,1,25.011,13.1186,54.4142,1,1,1,1.00092,0.871134,1.0,1.0
Units,sec,C,C,Pa,%,%,%,%,%,g,/m,,
Baseline,,42.2008,43.6639,181.824,100.491,100.484,0.00026948,0.044972,20.9523,-446.041,0.000640307,,
14,3.25,41.3039,42.2417,179.283,100.743,101.077,0.000453713,0.0457244,20.9575,50.2563,-0.0252474,0.0,0.0
28,6.75,41.215,42.8438,182.109,100.7,98.1691,0.000340717,0.0454574,20.9567,50.1762,0.194521,0.0,0.0
42,10.25,41.8464,43.631,182.041,100.594,95.8028,0.000296384,0.0454799,20.9569,50.0761,0.37292,0.0,0.0
56,13.75,42.0037,44.1999,178.154,100.55,93.4946,0.000178437,0.0455766,20.9576,49.926,0.555939,0.0,0.0
70,17.25,42.5689,43.8266,178.671,100.491,94.7001,0.000651161,0.0465907,20.9558,49.8559,0.453559,0.0,0.0
84,20.75,42.2761,44.4323,179.287,100.471,97.0233,0.00114576,0.0481678,20.9541,49.7458,0.266809,0.0,0.0
98,24.25,42.6087,44.5076,180.962,100.483,94.0226,0.00143183,0.0494182,20.9527,49.6657,0.507787,0.0,0.0
112,27.75,42.9874,45.2593,182.382,100.485,93.6606,0.00174683,0.0504018,20.9524,49.5857,0.537448,0.0,0.0
126,31.25,43.0155,45.2296,181.531,100.517,95.1385,0.00204031,0.0508313,20.9524,49.5156,0.420244,0.0,0.0
140,34.75,43.1551,45.8243,178.973,100.526,94.1073,0.00213549,0.0511249,20.9501,49.4355,0.504164,0.0,0.0
154,38.25,43.2451,45.4892,179.01,100.572,95.3079,0.0018797,0.0516195,20.9499,49.3555,0.41079,0.0,0.0
168,41.75,43.0335,45.3326,177.186,100.609,96.7012,0.00184495,0.0520024,20.9514,49.2554,0.302752,0.0,0.0
182,45.25,44.0687,45.6467,184.412,100.635,97.7307,0.00193876,0.0517513,20.9523,49.2454,0.223769,0.0,0.0
196,48.75,43.4334,45.6438,182.844,100.66,96.6181,0.00192224,0.0516251,20.9544,49.2053,0.313176,0.0,0.0
210,52.25,43.1685,45.6101,180.063,100.683,99.6852,0.00175836,0.0512166,20.9549,49.1553,0.0760717,0.0,0.0
224,55.75,43.3946,45.7477,181.912,100.738,97.6095,0.0018309,0.0509572,20.955,49.1052,0.241062,0.0,0.0
238,59.25,43.8614,45.1968,178.693,100.783,97.7075,0.00199715,0.0503684,20.955,49.0952,0.236857,0.0,0.0
252,62.75,43.9321,45.568,183.619,100.866,98.0911,0.00183709,0.0489322,20.9537,49.0852,0.213196,0.0,0.0
266,66.25,43.5809,45.4662,181.031,100.92,99.4162,0.00137042,0.0485274,20.9541,49.0652,0.114688,0.0,0.0
280,69.75,43.6073,45.7233,181.053,100.961,97.8652,0.00108114,0.0486801,20.9549,49.0452,0.237965,0.0,0.0
294,73.25,43.3803,46.0293,177.902,101.028,99.7782,0.00101214,0.0485301,20.9538,49.0051,0.0950938,0.0,0.0
308,76.75,43.7936,45.6133,183.672,101.067,98.4863,0.000936348,0.0481619,20.9531,48.9851,0.197649,0.0,0.0
322,80.25,43.902,45.8855,179.64,101.133,100.589,0.00097851,0.0479325,20.9529,48.9551,0.0412108,0.0,0.0
336,83.75,43.8335,45.7958,177.211,101.177,99.026,0.0011648,0.0477558,20.9529,48.9451,0.164209,0.0,0.0
350,87.25,44.0454,45.7191,179.017,101.222,98.9695,0.00112972,0.0472987,20.9538,48.9151,0.171983,0.0,0.0
364,90.75,43.5243,45.9228,180.066,101.267,99.7849,0.000804437,0.0471581,20.9549,48.895,0.112702,0.0,0.0
378,94.25,43.5807,45.9851,183.18,101.275,100.248,0.000630563,0.047017,20.9551,48.895,0.0778781,0.0,0.0
392,97.75,43.8026,46.0079,178.569,101.307,100.637,0.000711993,0.0468683,20.9545,48.885,0.0507319,0.0,0.0
406,101.25,44.1014,46.2348,179.53,101.311,101.228,0.000756258,0.0469796,20.9544,48.865,0.0062465,0.0,0.0
420,104.75,43.6625,45.7466,177.644,101.338,99.8048,0.000812612,0.0468346,20.9543,48.855,0.116491,0.0,0.0
434,108.25,43.9625,45.8321,176.135,101.332,100.364,0.000497083,0.0468572,20.954,48.7649,0.0733114,0.0,0.0
448,111.75,44.0311,45.9112,182.15,101.335,100.228,0.000226124,0.0468612,20.9539,48.7649,0.0838973,0.0,0.0
462,115.25,43.6013,45.945,176.342,101.33,101.015,0.000311327,0.0467554,20.9539,48.7849,0.0237886,0.0,0.0
476,118.75,43.929,46.3024,179.719,101.279,99.4893,0.000344531,0.0465726,20.9545,48.7249,0.136277,0.0,0.0
490,122.25,44.3403,45.8998,180.48,101.269,100.647,0.000310565,0.0465533,20.9547,48.7249,0.0471367,0.0,0.0
504,125.75,44.0285,45.9662,179.115,101.175,100.155,0.000458582,0.0466278,20.9547,48.7149,0.0773839,0.0,0.0
518,129.25,44.1791,45.6933,178.732,101.106,100.222,0.000663389,0.0467484,20.9547,48.6548,0.0671457,0.0,0.0
532,132.75,44.5231,46.1355,180.33,101.028,99.5076,0.000635458,0.0465751,20.9538,48.7049,0.115852,0.0,0.0
546,136.25,44.2737,45.9851,182.767,100.914,99.4727,0.000488065,0.0464601,20.9536,48.6848,0.109925,0.0,0.0
560,139.75,44.7716,45.8329,180.483,100.837,99.3863,0.000624331,0.046553,20.9535,48.6949,0.110738,0.0,0.0
574,143.25,44.3354,45.989,177.042,100.716,100.057,0.000451458,0.0465812,20.9545,48.6848,0.0501319,0.0,0.0
588,146.75,44.5163,45.9299,178.861,100.598,99.5574,0.000392812,0.0466577,20.9555,48.6748,0.0794955,0.0,0.0
602,150.25,44.0278,46.4405,181.74,100.474,99.4461,0.000702658,0.0466965,20.954,48.6348,0.0785769,0.0,0.0
616,153.75,44.6817,46.5108,178.557,100.337,98.5594,0.000618157,0.0466235,20.9541,48.6248,0.136601,0.0,0.0
630,157.25,43.8498,46.0656,179.939,100.216,98.9828,0.000554442,0.0464987,20.9542,48.6548,0.0945963,0.0,0.0
644,160.75,43.9584,45.8553,180.646,100.046,99.1074,0.000359792,0.046227,20.9542,48.5948,0.0720635,0.0,0.0
658,164.25,44.8049,46.0816,178.302,99.9191,98.1392,0.00035791,0.0461513,20.9542,48.5948,0.137346,0.0,0.0
672,167.75,44.0022,45.84,181.972,99.7714,98.9147,0.000440896,0.0460283,20.9556,48.5848,0.065894,0.0,0.0
686,171.25,44.0758,46.2593,181.607,99.6469,97.5447,0.000343526,0.0459758,20.9546,48.5747,0.162928,0.0,0.0
700,174.75,44.4403,45.8556,178.598,99.5396,98.38,0.000446757,0.0459696,20.9543,48.5547,0.089539,0.0,0.0
714,178.25,44.0845,46.3014,178.54,99.4815,97.9018,0.000675706,0.0459171,20.9542,48.5948,0.12232,0.0,0.0
728,181.75,44.3593,46.2146,181.845,99.4223,98.1093,0.000429331,0.0460086,20.9542,48.5647,0.101582,0.0,0.0
742,185.25,44.5783,46.312,179.551,99.3586,99.1837,0.00014268,0.0459441,20.9542,48.5247,0.013461,0.0,0.0
756,188.75,44.1121,46.162,183.947,99.3182,98.7653,0.000110086,0.0460001,20.9542,48.5347,0.0426594,0.0,0.0
770,192.25,44.4572,46.2791,187.078,99.3126,98.835,3.49851e-05,0.0458553,20.9536,48.5447,0.0368333,0.0,0.0
784,195.75,44.211,46.1258,180.497,99.307,98.5162,0.000164908,0.0456666,20.9535,48.5147,0.0610924,0.0,0.0
798,199.25,44.4962,46.0753,181.814,99.3258,98.1807,0.000355543,0.0454905,20.9545,48.4947,0.0886035,0.0,0.0
812,202.75,44.0458,46.0625,179.359,99.3538,98.5344,0.000430428,0.0454455,20.9548,48.4646,0.0632791,0.0,0.0
826,206.25,44.333,46.3386,183.738,99.4215,98.2621,0.000319725,0.045336,20.9548,48.4646,0.0896308,0.0,0.0
840,209.75,43.6937,45.252,181.41,99.5091,98.6839,0.000333801,0.0454619,20.9548,48.4346,0.0636359,0.0,0.0
854,213.25,43.5399,45.2076,179.453,99.6224,98.5527,0.00027422,0.0454532,20.9561,48.4446,0.0824961,0.0,0.0
868,216.75,43.4639,45.4017,181.945,99.7213,98.1276,0.000304746,0.0452272,20.9576,48.4346,0.12311,0.0,0.0
882,220.25,43.2557,45.458,179.528,99.8346,99.6935,0.000208358,0.0451458,20.9566,48.4246,0.0108061,0.0,0.0
896,223.75,43.3722,45.5879,178.762,99.9243,99.5806,0.000180655,0.0453197,20.9551,48.3746,0.0263273,0.0,0.0
910,227.25,44.0306,45.8508,181.937,99.9972,99.7317,8.52118e-05,0.0453987,20.9547,48.3645,0.0203097,0.0,0.0
924,230.75,43.9469,45.3879,178.975,100.126,99.3066,-3.94874e-05,0.0453314,20.9547,48.4246,0.0627668,0.0,0.0
938,234.25,43.924,45.5988,175.767,100.197,100.78,0.000357396,0.045323,20.9553,48.4346,-0.044275,0.0,0.0
952,237.75,43.9371,45.6938,181.299,100.267,100.218,0.000563405,0.0452576,20.9555,48.4246,0.00374396,0.0,0.0
966,241.25,43.8852,45.9014,182.164,100.343,100.969,0.000626013,0.044994,20.9555,48.4246,-0.0475406,0.0,0.0
980,244.75,43.8946,45.4101,177.456,100.385,99.5823,0.000378915,0.0449858,20.955,48.3846,0.0613581,0.0,0.0
994,248.25,44.0762,45.5475,182.508,100.462,101.623,0.000130136,0.0450453,20.9549,48.3846,-0.0878482,0.0,0.0
1008,251.75,43.9175,45.6454,177.705,100.492,100.132,6.70536e-05,0.0449498,20.9559,48.3946,0.0273975,0.0,0.0
1022,255.25,44.2041,45.5522,182.537,100.547,100.783,2.32467e-05,0.0447631,20.9555,48.3746,-0.0179182,0.0,0.0
1036,258.75,43.8685,45.6162,183.231,100.583,100.878,3.16096e-05,0.0448099,20.9554,48.3946,-0.0223539,0.0,0.0
1050,262.25,44.2844,46.2044,181.077,100.607,100.705,0.000194405,0.0452058,20.9568,48.3946,-0.00743598,0.0,0.0
1064,265.75,44.0261,45.6977,179.865,100.648,100.296,0.000326315,0.0450976,20.956,48.3946,0.0267557,0.0,0.0
1078,269.25,44.2782,45.7143,181.343,100.648,100.268,0.000425141,0.0450421,20.9566,48.3946,0.0288769,0.0,0.0
1092,272.75,43.9794,45.3399,185.803,100.649,101.329,0.000327816,0.0449229,20.9566,48.3645,-0.0515056,0.0,0.0
1106,276.25,43.829,45.8345,175.825,100.63,100.238,0.000181878,0.0450137,20.9553,48.3746,0.029787,0.0,0.0
1120,279.75,44.0512,45.4329,182.634,100.589,100.532,0.00014172,0.0451207,20.9549,48.3645,0.00431118,0.0,0.0
1134,283.25,44.1491,45.7477,179.393,100.547,100.758,0.000182927,0.0449961,20.9549,48.3445,-0.0159997,0.0,0.0
1148,286.75,44.0611,45.3958,183.88,100.487,100.987,0.000287456,0.0447649,20.9548,48.3545,-0.0379244,0.0,0.0
1162,290.25,43.7148,45.5568,180.146,100.465,100.564,0.000242661,0.0449313,20.9553,48.3645,-0.00749024,0.0,0.0
1176,293.75,43.6993,45.5261,183.293,100.409,100.18,0.00015333,0.0449499,20.9555,48.3645,0.0174501,0.0,0.0
1190,297.25,43.678,45.608,184.4375,100.398,101.482,0.000287752,0.0450581,20.9549,48.3545,-0.0820704,0.0,0.0
1204,300.75,43.9649,45.7367,181.073,100.333,100.471,0.000197602,0.044959,20.9547,48.3445,-0.0104757,0.0,0.0
1218,304.25,43.8958,45.346,180.847,100.311,100.763,9.93964e-05,0.044753,20.9529,48.3846,-0.0343801,0.0,0.0
1232,307.75,43.8924,45.5976,181.416,100.27,101.029,0.000199258,0.0449529,20.9531,48.3846,-0.0575843,0.0,0.0
1246,311.25,43.6366,45.6456,184.458,100.247,100.359,0.000271632,0.0448007,20.953,48.3645,-0.0085982,0.0,0.0
1260,314.75,43.8465,45.4319,182.116,100.206,100.672,0.000220458,0.0448944,20.9528,48.3545,-0.0354146,0.0,0.0
1274,318.25,43.8098,45.6881,178.212,100.176,100.202,0.000492243,0.0447613,20.9546,48.3545,-0.00198019,0.0,0.0
1288,321.75,44.6364,45.4774,183.437,100.162,100.378,0.000539623,0.0446932,20.955,48.3345,-0.0164616,0.0,0.0
1302,325.25,43.6398,45.6959,177.717,100.129,100.23,0.000561578,0.0443823,20.9551,48.3145,-0.00767671,0.0,0.0
1315,328.5,43.4308,45.601,178.363,100.119,99.6304,0.000668621,0.0444773,20.9551,48.3545,0.0373709,0.0,0.0

File: Feather_Pillow_Feathers_Cone_HF50Scalar_230710_R1.csv
LABORATORY,FSRI
TEST IDENT,Fea_Pill_Fea_HF50_R1
OPERATOR,Marino
MATERIAL,Feather Pillow Feathers
ORIENTATION,Horizontal
HEAT FLUX,50
SURF AREA,0.01
C FACTOR,0.0383364
SPEC HOLDER DIFF,-566
SPECIMEN MASS,5.35
SCAN TIME,0.25
O2 DELAY TIME,11
CO DELAY TIME,11
CO2 DELAY TIME,8
FLOW FACTOR,1
SCAN COUNT,601
TIME TO IGN,3.25
END OF TEST SCAN,121
END OF TEST TIME,30.25
TEST STATUS,1
PRE TEST CMT,5 cm depth tray filled without compression
POST TEST CMT,Sample charred and bubbled. Corners of sample foil lifted after flames were extinguished.

File: Feather_Pillow_Feathers_Cone_HF50Scalar_230710_R2.csv
LABORATORY,FSRI
TEST IDENT,Fea_Pill_Fea_HF50_R2
OPERATOR,Marino
MATERIAL,Feather Pillow Feathers
ORIENTATION,Horizontal
HEAT FLUX,50
SURF AREA,0.01
C FACTOR,0.0383364
SPEC HOLDER DIFF,-566
SPECIMEN MASS,5.39
SCAN TIME,0.25
O2 DELAY TIME,11
CO DELAY TIME,11
CO2 DELAY TIME,8
FLOW FACTOR,1
SCAN COUNT,597
TIME TO IGN,4.75
END OF TEST SCAN,117
END OF TEST TIME,29.25
TEST STATUS,1
PRE TEST CMT,5 cm depth tray filled without compression
POST TEST CMT,Sample charred and bubbled. Corners of sample foil lifted after flames were extinguished.