Folder: fsri_materials_database/01_Data/Feather_Pillow_Feathers/Cone (part 3)

File: Feather_Pillow_Feathers_Cone_HF50Scan_230710_R1.csv
Names,Time,Stack TC,Smoke TC,Exh Press,Smoke Comp,Smoke Meas,CO Meter,CO2 Meter,O2 Meter,Sample Mass,Ext Coeff,Start Test,Flame Verif
Chan Gain,,500,500,1,1,1,1,1,1,1,1,1.0,1.0
Offset,,0,0,0.18266,0,0,0,0,0,0,0,0.0,0.0
Gain,,1,1,25.011,13.1186,54.4142,1,1,1,1.00092,0.871134,1.0,1.0
Units,sec,C,C,Pa,%,%,%,%,%,g,/m,,
Baseline,,55.0673,57.6401,174.398,100.467,103.958,0.00034239,0.0439879,20.9517,-446.51,-0.26082,,
7,1.5,52.7927,54.0648,178.086,100.797,102.164,0.000587976,0.043906,20.9497,49.6457,-0.10294,0.0,0.0
14,3.25,53.5723,54.5435,162.364,100.879,106.288,0.000533286,0.0440177,20.9495,49.3555,-0.399093,0.0,1.0
21,5,53.8475,57.7335,156.905,100.957,108.103,0.00052239,0.0442652,20.9502,49.0452,-0.522571,0.0,1.0
28,6.75,55.3551,61.679,154.068,101.012,108.246,0.000511075,0.044526,20.9501,48.7349,-0.528539,0.0,1.0
35,8.5,57.1548,64.7762,149.933,101.056,106.799,0.000377997,0.0446908,20.9501,48.3245,-0.422384,0.0,1.0
42,10.25,58.5155,68.3506,148.837,101.105,106.338,0.000264436,0.0470574,20.9501,48.1844,-0.385559,0.0,1.0
49,12,60.4146,71.5279,154.951,101.149,105.122,0.000474261,0.0745558,20.9483,47.9141,-0.294408,0.0,0.0
56,13.75,61.573,73.1521,153.266,101.174,101.24,0.0011103,0.150588,20.9238,47.744,-0.00496579,0.0,0.0
63,15.5,62.5109,74.3539,164.369,101.169,99.3415,0.00168717,0.238458,20.8513,47.6139,0.139296,0.0,0.0
70,17.25,63.1413,75.5245,155.764,101.165,97.9283,0.00217256,0.314583,20.7314,47.5038,0.248478,0.0,0.0
77,19,64.0841,76.4352,161.518,101.159,99.6039,0.00252665,0.362627,20.618,47.2936,0.118385,0.0,0.0
84,20.75,64.9857,77.0789,159.013,101.131,98.2355,0.0030219,0.394563,20.5308,47.1935,0.222002,0.0,0.0
91,22.5,65.0654,77.7343,163.876,101.111,98.6706,0.00370023,0.404465,20.4699,47.1434,0.18672,0.0,0.0
98,24.25,65.8176,77.709,168.513,101.059,100.57,0.00430093,0.391367,20.4407,47.0233,0.0370618,0.0,0.0
105,26,66.0128,76.9256,169.569,101.024,104.843,0.0047509,0.375652,20.4363,47.0533,-0.283513,0.0,0.0
112,27.75,66.0449,76.0886,170.299,100.969,105.841,0.00524776,0.368416,20.4544,47.0734,-0.36009,0.0,0.0
119,29.5,65.7249,74.8107,170.199,100.945,105.477,0.00575341,0.362054,20.4669,47.1234,-0.335637,0.0,0.0
126,31.25,64.4795,73.3366,172.512,100.896,106.48,0.00613583,0.340422,20.476,47.1034,-0.411656,0.0,0.0
133,33,63.8872,71.9232,171.768,100.819,105.555,0.00596798,0.303254,20.501,47.0934,-0.350842,0.0,0.0
140,34.75,63.8583,71.2918,173.202,100.769,105.162,0.00539917,0.26196,20.5449,47.0834,-0.326031,0.0,0.0
147,36.5,63.7823,70.215,169.824,100.697,105.58,0.00473159,0.201883,20.5913,47.0934,-0.361906,0.0,0.0
154,38.25,63.3061,69.4406,173.722,100.715,105.388,0.0041094,0.151142,20.6584,47.0634,-0.346523,0.0,0.0
161,40,63.2672,69.0803,173.518,100.727,105.992,0.00367444,0.113854,20.7415,47.0634,-0.389376,0.0,0.0
168,41.75,63.0354,68.3708,174.252,100.745,104.901,0.00341477,0.0928146,20.8093,47.0834,-0.308945,0.0,0.0
175,43.5,62.9353,68.1044,169.635,100.775,104.689,0.00332411,0.0816285,20.8506,47.0734,-0.291138,0.0,0.0
182,45.25,62.5831,67.1213,167.289,100.84,105.376,0.0034184,0.0760234,20.8766,47.0734,-0.336209,0.0,0.0
189,47,62.5424,66.8084,172.539,100.868,105.849,0.00363054,0.0737577,20.8948,47.0634,-0.368359,0.0,0.0
196,48.75,62.1511,66.4766,175.31,100.913,105.401,0.003758,0.0731313,20.9024,47.0533,-0.332496,0.0,0.0
203,50.5,62.0286,66.5139,172.72,100.952,104.245,0.00370288,0.072419,20.9077,47.0634,-0.2453,0.0,0.0
210,52.25,62.2146,66.0635,173.405,100.985,106.505,0.00350505,0.0717798,20.9108,47.0834,-0.406715,0.0,0.0
217,54,61.9043,65.8166,171.898,101.017,105.718,0.00330299,0.0711038,20.9129,47.0734,-0.347609,0.0,0.0
224,55.75,61.7,65.0975,169.289,101.087,104.742,0.00314924,0.0706911,20.9139,47.0533,-0.271404,0.0,0.0
231,57.5,61.6402,64.9737,170.447,101.102,104.971,0.00300606,0.0703379,20.9156,47.0433,-0.286955,0.0,0.0
238,59.25,61.3532,65.3155,169.722,101.135,105.325,0.00293107,0.0699758,20.9163,47.0333,-0.310209,0.0,0.0
245,61,61.6422,64.5892,172.044,101.169,104.121,0.00275596,0.0691618,20.9168,47.0233,-0.219788,0.0,0.0
252,62.75,61.283,64.6115,166.31,101.222,106.233,0.00245669,0.0682224,20.9179,47.0433,-0.369207,0.0,0.0
259,64.5,61.3939,64.3028,167.544,101.251,105.574,0.00218869,0.0676753,20.9187,47.0033,-0.319492,0.0,0.0
266,66.25,61.0099,64.4421,172.116,101.307,105.966,0.00204989,0.0675602,20.9197,46.9933,-0.343577,0.0,0.0
273,68,61.213,64.3195,176.612,101.318,105.338,0.00192288,0.0675996,20.9212,46.9833,-0.297362,0.0,0.0
280,69.75,60.9754,64.0199,168.99,101.362,106.13,0.0017649,0.0673548,20.9227,46.9933,-0.351258,0.0,0.0
287,71.5,60.677,63.8966,172.408,101.384,104.813,0.00165812,0.0667862,20.9234,46.9933,-0.254159,0.0,0.0
294,73.25,60.5846,64.0363,171.995,101.402,103.948,0.00162359,0.0661144,20.9237,47.0033,-0.189493,0.0,0.0
301,75,60.2313,63.6497,169.412,101.422,105.697,0.00165471,0.0655578,20.9239,46.9933,-0.315461,0.0,0.0
308,76.75,60.9095,63.9154,171.04,101.455,105.438,0.00172901,0.0648931,20.9249,46.9833,-0.294206,0.0,0.0
315,78.5,60.2467,63.6979,176.008,101.472,106.489,0.00176256,0.0643446,20.9257,46.9432,-0.368714,0.0,0.0
322,80.25,60.3664,63.2929,172.346,101.51,106.534,0.00172783,0.0636674,20.9261,46.9833,-0.369067,0.0,0.0
329,82,60.3971,63.146,172.958,101.513,105.672,0.00166735,0.0632043,20.9262,46.9633,-0.306815,0.0,0.0
336,83.75,60.1833,63.5958,170.475,101.538,105.667,0.00164395,0.0628379,20.9263,46.9633,-0.304557,0.0,0.0
343,85.5,60.028,63.6053,172.575,101.549,105.368,0.00161469,0.0624521,20.927,46.9733,-0.282097,0.0,0.0
350,87.25,59.7892,63.3031,175.484,101.579,105.436,0.00157844,0.0621766,20.9279,46.9432,-0.284774,0.0,0.0
357,89,59.7999,63.1224,168.61,101.59,106.754,0.00157492,0.0618888,20.9286,46.9432,-0.378928,0.0,0.0
364,90.75,59.851,62.8191,170.974,101.616,105.768,0.00158208,0.0614174,20.9299,46.9432,-0.306036,0.0,0.0
371,92.5,59.9671,62.9813,175.464,101.608,107.201,0.0015542,0.0607616,20.9307,46.9533,-0.40948,0.0,0.0
378,94.25,59.8071,62.668,170,101.6,106.455,0.00152348,0.0603537,20.9321,46.9132,-0.356719,0.0,0.0
385,96,59.8046,63.0824,169.185,101.612,105.866,0.00151547,0.0600972,20.9328,46.9032,-0.313382,0.0,0.0
392,97.75,59.5327,62.7738,170.282,101.631,105.69,0.00153833,0.059795,20.9331,46.9432,-0.299221,0.0,0.0
399,99.5,59.5709,62.4173,170.022,101.594,106.812,0.00154044,0.0594969,20.9333,46.9132,-0.382756,0.0,0.0
406,101.25,59.3759,62.4967,166.986,101.595,105.748,0.00150963,0.0590752,20.9334,46.9132,-0.306192,0.0,0.0
413,103,59.5916,62.3588,172.439,101.571,104.73,0.00147038,0.0587358,20.9334,46.9132,-0.234085,0.0,0.0
420,104.75,59.7784,62.8277,173.172,101.568,106.592,0.00138932,0.058411,20.9345,46.9432,-0.368896,0.0,0.0
427,106.5,59.724,62.3042,172.475,101.555,105.222,0.00127722,0.0581654,20.9352,46.8832,-0.271039,0.0,0.0
434,108.25,59.2245,62.5442,168.635,101.511,106.537,0.00116237,0.0577156,20.9355,46.9032,-0.369275,0.0,0.0
441,110,59.0086,62.054,173.433,101.476,105.31,0.00106422,0.0572443,20.9354,46.9032,-0.283396,0.0,0.0
448,111.75,59.145,61.9703,172.266,101.469,105.876,0.000999691,0.0569157,20.9352,46.9032,-0.324858,0.0,0.0
455,113.5,59.0498,62.1851,171.786,101.429,105.662,0.000965591,0.056353,20.9358,46.9032,-0.312396,0.0,0.0
462,115.25,59.1562,61.6464,169.767,101.392,107.513,0.000871272,0.0558479,20.9363,46.9132,-0.447948,0.0,0.0
469,117,59.6226,62.1448,171.913,101.33,105.497,0.000776476,0.0554829,20.9378,46.9332,-0.307951,0.0,0.0
476,118.75,59.431,62.2375,167.875,101.297,106.462,0.000789013,0.0549975,20.9385,46.9132,-0.380024,0.0,0.0
483,120.5,58.9758,61.7342,173.432,101.263,106.311,0.000909144,0.0544462,20.9392,46.9132,-0.371707,0.0,0.0
490,122.25,58.911,61.8208,175.9,101.218,105.763,0.00108164,0.0541118,20.9404,46.9232,-0.33563,0.0,0.0
497,124,59.0184,61.8843,165.558,101.167,105.907,0.00114966,0.0537219,20.9409,46.9032,-0.349932,0.0,0.0
504,125.75,59.1176,61.5467,176.418,101.115,104.557,0.00112719,0.0532352,20.9424,46.8832,-0.255796,0.0,0.0
511,127.5,59.3135,61.9964,172.392,101.063,104.504,0.00107613,0.052647,20.9431,46.8832,-0.255846,0.0,0.0
518,129.25,58.7761,61.4244,168.899,101.028,105.225,0.000994346,0.051958,20.9435,46.8632,-0.311058,0.0,0.0
525,131,58.851,61.9136,178.301,100.97,105.325,0.000908395,0.0514205,20.9437,46.8932,-0.322622,0.0,0.0
532,132.75,59.0668,61.8697,171.405,100.888,105.934,0.000871198,0.050983,20.9437,46.9032,-0.372924,0.0,0.0
539,134.5,58.6557,62.0775,170.639,100.826,105.406,0.000903541,0.0504566,20.9442,46.8732,-0.339468,0.0,0.0
546,136.25,58.555,61.687,169.277,100.76,105.775,0.000920931,0.0501545,20.9452,46.8832,-0.371126,0.0,0.0
553,138,59.1658,61.7937,169.263,100.705,105.491,0.00090642,0.0499765,20.9457,46.9032,-0.354775,0.0,0.0
560,139.75,58.6141,61.6216,171.102,100.633,104.787,0.000820354,0.0498122,20.946,46.8732,-0.309041,0.0,0.0
567,141.5,59.1225,62.1318,174.078,100.557,104.277,0.000652339,0.049451,20.9474,46.8932,-0.277581,0.0,0.0
574,143.25,58.3318,61.7578,169.083,100.468,105.574,0.000552889,0.0489869,20.9483,46.8832,-0.378792,0.0,0.0
581,145,58.9213,61.5588,176.938,100.428,103.626,0.000559623,0.0484248,20.9489,46.8832,-0.239532,0.0,0.0
588,146.75,58.8842,61.8134,170.673,100.395,106.359,0.000603337,0.0478518,20.9491,46.9232,-0.441008,0.0,0.0
595,148.5,58.3225,61.946,167.587,100.323,104.187,0.000627174,0.0475528,20.9493,46.8932,-0.288765,0.0,0.0
601,150,58.6159,61.534,172,100.294,103.478,0.000600794,0.0472211,20.9493,46.9132,-0.238837,0.0,0.0

File: Feather_Pillow_Feathers_Cone_HF50Scan_230710_R2.csv
Names,Time,Stack TC,Smoke TC,Exh Press,Smoke Comp,Smoke Meas,CO Meter,CO2 Meter,O2 Meter,Sample Mass,Ext Coeff,Start Test,Flame Verif
Chan Gain,,500,500,1,1,1,1,1,1,1,1,1.0,1.0
Offset,,0,0,0.18266,0,0,0,0,0,0,0,0.0,0.0
Gain,,1,1,25.011,12.9861,52.0581,1,1,1,1.00092,0.871134,1.0,1.0
Units,sec,C,C,Pa,%,%,%,%,%,g,/m,,
Baseline,,55.8363,58.0948,174.044,99.6774,99.9784,3.38473e-05,0.0444385,20.952,-446.56,-0.0228256,,
7,1.5,53.7907,55.6102,172.446,100.051,99.1118,0.000200194,0.0453986,20.9533,49.6457,0.0720716,0.0,0.0
14,3.25,54.5251,56.107,171.789,100.033,89.424,0.00017886,0.0453903,20.9529,49.5056,0.856714,0.0,0.0
21,5,54.593,56.3946,157.215,100,102.975,0.00017407,0.0452332,20.9527,49.1052,-0.224035,0.0,1.0
28,6.75,55.7116,60.2516,153.665,99.9785,103.649,0.00025965,0.0450496,20.9526,48.7449,-0.275524,0.0,1.0
35,8.5,56.1038,64.1531,154.344,99.9293,102.211,0.000372361,0.0449946,20.9525,48.4146,-0.172539,0.0,1.0
42,10.25,58.9621,66.0057,161.692,99.8691,103.26,0.000446986,0.0452831,20.9525,48.2044,-0.255138,0.0,0.0
49,12,59.6614,68.1364,150.134,99.8267,101.543,0.000648366,0.0477225,20.9525,47.9842,-0.130225,0.0,0.0
56,13.75,61.0326,70.9962,150.276,99.7696,95.5929,0.00112684,0.0834122,20.9517,47.6939,0.326795,0.0,0.0
63,15.5,62.2601,72.569,154.616,99.7692,89.6861,0.00201753,0.167093,20.9383,47.5138,0.814157,0.0,0.0
70,17.25,63.2313,75.4527,146.194,99.7708,81.1851,0.0027353,0.259341,20.8592,47.3236,1.57526,0.0,0.0
77,19,64.6877,77.5072,156.805,99.7994,87.3619,0.00309598,0.309803,20.7527,47.1234,1.01711,0.0,0.0
84,20.75,65.8236,78.4411,158.25,99.8323,88.6916,0.00318319,0.331401,20.635,46.9833,0.904191,0.0,0.0
91,22.5,66.42,79.0599,160.7,99.8564,88.7282,0.00336968,0.357281,20.5734,46.8732,0.902894,0.0,0.0
98,24.25,66.8838,79.2758,163.328,99.883,98.219,0.00398813,0.394183,20.5289,46.9733,0.128377,0.0,0.0
105,26,67.2075,78.0519,171.208,99.904,101.201,0.0052455,0.437873,20.4751,47.0033,-0.0985636,0.0,0.0
112,27.75,67.0156,76.9217,169.199,99.9282,101.681,0.00675862,0.460061,20.4092,46.9733,-0.132857,0.0,0.0
119,29.5,66.4326,75.3364,169.355,99.9404,100.683,0.00808077,0.444466,20.3685,47.0233,-0.0565683,0.0,0.0
126,31.25,65.2226,73.9354,167.002,99.969,101.52,0.00844655,0.403879,20.3587,46.9833,-0.117668,0.0,0.0
133,33,64.5704,72.9957,167.456,100.007,100.184,0.00792469,0.346574,20.3994,47.0033,-0.0135244,0.0,0.0
140,34.75,65.3265,72.0249,166.538,100.015,101.071,0.00700348,0.276052,20.4558,46.9432,-0.0802079,0.0,0.0
147,36.5,64.6497,71.2185,168.614,100.025,100.481,0.00577853,0.2099,20.542,46.9733,-0.0347877,0.0,0.0
154,38.25,64.1289,70.5666,174.029,100.053,102.056,0.00492099,0.15331,20.6308,46.9432,-0.151412,0.0,0.0
161,40,64.1218,69.5721,173.209,100.073,101.612,0.00453463,0.118962,20.7324,46.9132,-0.116668,0.0,0.0
168,41.75,64.0652,69.1446,175.445,100.109,100.993,0.00443007,0.100458,20.8001,46.9032,-0.0671467,0.0,0.0
175,43.5,64.0118,68.4145,169.152,100.105,101.862,0.00443691,0.0907094,20.8421,46.9032,-0.132921,0.0,0.0
182,45.25,63.4894,67.8258,169.38,100.128,101.747,0.00434273,0.0853042,20.8675,46.8732,-0.122581,0.0,0.0
189,47,63.3425,68.0884,171.727,100.146,101.368,0.00419058,0.0820688,20.8853,46.8732,-0.0926501,0.0,0.0
196,48.75,63.2047,67.9023,167.116,100.196,102.183,0.00401921,0.0804013,20.8961,46.8832,-0.150063,0.0,0.0
203,50.5,63.2822,67.1266,175.133,100.189,101.778,0.00383744,0.0793519,20.9027,46.8732,-0.120191,0.0,0.0
210,52.25,63.0153,67.1287,169.507,100.227,102.119,0.0036507,0.0783016,20.9059,46.8431,-0.142893,0.0,0.0
217,54,62.129,66.4675,168.483,100.238,101.26,0.00347346,0.0775195,20.9082,46.8231,-0.0775199,0.0,0.0
224,55.75,62.8144,66.2433,174.152,100.254,102.58,0.00329712,0.076424,20.911,46.8431,-0.175296,0.0,0.0
231,57.5,62.5297,66.1324,165.811,100.277,102.126,0.00306517,0.075042,20.9131,46.8632,-0.139592,0.0,0.0
238,59.25,62.1552,66.3387,172.053,100.27,102.048,0.00279017,0.0740778,20.915,46.8932,-0.134278,0.0,0.0
245,61,61.9824,65.7956,171.289,100.302,102.008,0.00254028,0.0732772,20.9167,46.8431,-0.128858,0.0,0.0
252,62.75,62.1091,65.5088,170.168,100.294,102.129,0.00229581,0.0723762,20.9179,46.9032,-0.138561,0.0,0.0
259,64.5,61.8853,64.9264,165.543,100.313,102.203,0.0020455,0.0714742,20.9193,46.8932,-0.142667,0.0,0.0
266,66.25,61.8539,65.0189,171.393,100.341,101.577,0.00191073,0.0710606,20.92,46.8532,-0.0935796,0.0,0.0
273,68,61.8683,65.0212,169.336,100.323,101.427,0.00187864,0.0705649,20.9203,46.9332,-0.0836055,0.0,0.0
280,69.75,61.9439,64.9773,166.673,100.35,102.394,0.00186689,0.0704254,20.9207,46.8932,-0.1541,0.0,0.0
287,71.5,61.7086,64.6607,172.642,100.349,101.97,0.00184715,0.0698983,20.9218,46.8532,-0.122409,0.0,0.0
294,73.25,61.6732,64.403,173.691,100.379,100.556,0.00182946,0.0690975,20.9224,46.7831,-0.0134756,0.0,0.0
301,75,61.4523,64.4872,168.448,100.377,101.191,0.00177553,0.0683699,20.9231,46.8131,-0.0617662,0.0,0.0
308,76.75,61.2801,64.4318,170.905,100.383,100.689,0.00169382,0.0674454,20.9242,46.7831,-0.0233082,0.0,0.0
315,78.5,61.0727,64.6878,174.533,100.354,101.075,0.00164791,0.0662413,20.9248,46.7631,-0.0547529,0.0,0.0
322,80.25,61.2678,63.8897,172.24,100.376,101.28,0.00162904,0.0652672,20.9257,46.7831,-0.0685414,0.0,0.0
329,82,61.1159,64.5053,170.08,100.361,101.185,0.00156547,0.0644635,20.9267,46.7531,-0.0624926,0.0,0.0
336,83.75,61.0957,63.9643,171.53,100.372,103.141,0.00155722,0.0636409,20.9272,46.8131,-0.207902,0.0,0.0
343,85.5,60.7173,64.3364,171.666,100.355,101.212,0.00161594,0.06287,20.9278,46.8131,-0.0650146,0.0,0.0
350,87.25,60.9549,64.0853,167.539,100.36,101.074,0.00169129,0.0621275,20.9289,46.7931,-0.0541804,0.0,0.0
357,89,60.9064,64.1369,171.57,100.38,102.645,0.00172601,0.0615142,20.9314,46.7731,-0.170547,0.0,0.0
364,90.75,60.4294,63.8538,172.301,100.384,101.21,0.00170081,0.0609896,20.9331,46.7831,-0.0626625,0.0,0.0
371,92.5,60.5902,63.4527,172.711,100.385,101.417,0.00161863,0.0600196,20.9339,46.733,-0.0781797,0.0,0.0
378,94.25,60.6361,63.4477,170.656,100.397,101.786,0.00145596,0.0595351,20.9351,46.7631,-0.104935,0.0,0.0
385,96,60.5787,63.5071,173.859,100.417,102.224,0.00130223,0.0592044,20.9361,46.7431,-0.136275,0.0,0.0
392,97.75,60.477,63.8445,172.435,100.437,102.96,0.00125508,0.0585703,20.9366,46.7431,-0.189525,0.0,0.0
399,99.5,60.3709,63.2818,170.628,100.45,101.241,0.00133246,0.0579952,20.9374,46.7531,-0.0598746,0.0,0.0
406,101.25,60.7337,63.2642,168.952,100.472,101.099,0.00133657,0.0573664,20.9389,46.7631,-0.0475672,0.0,0.0
413,103,60.5614,63.0953,171.196,100.485,101.786,0.00118875,0.0567088,20.9396,46.7731,-0.0982416,0.0,0.0
420,104.75,59.7033,63.4527,170.718,100.505,102.459,0.000981843,0.0561904,20.9399,46.7831,-0.14717,0.0,0.0
427,106.5,60.7673,63.592,171.16,100.497,100.078,0.000860532,0.0556363,20.9401,46.733,0.0319654,0.0,0.0
434,108.25,60.5978,63.4573,166.502,100.52,101.433,0.000830294,0.0551663,20.9401,46.7531,-0.0690663,0.0,0.0
441,110,60.1743,63.5608,170.359,100.56,101.339,0.000853608,0.0548187,20.941,46.7631,-0.0589892,0.0,0.0
448,111.75,60.0854,63.2763,173.286,100.557,101.047,0.00082865,0.0545416,20.9422,46.7731,-0.0371257,0.0,0.0
455,113.5,60.4166,63.0928,176.361,100.568,101.465,0.000704486,0.0542337,20.9426,46.7731,-0.0678149,0.0,0.0
462,115.25,60.2878,62.9973,169.128,100.564,101.145,0.000473611,0.0538752,20.9428,46.7931,-0.0440294,0.0,0.0
469,117,60.2306,63.2017,174.762,100.591,102,0.00031705,0.0537004,20.9429,46.7731,-0.106284,0.0,0.0
476,118.75,60.3561,62.9054,166.521,100.614,101.314,0.000316147,0.0533567,20.943,46.7431,-0.0529777,0.0,0.0
483,120.5,60.2095,62.8177,167.963,100.611,102.114,0.000393329,0.0528811,20.9441,46.7431,-0.113374,0.0,0.0
490,122.25,60.0472,63.0263,167.629,100.624,102.561,0.000496729,0.0525047,20.9443,46.733,-0.145715,0.0,0.0
497,124,59.8944,62.832,172.232,100.639,101.897,0.000545323,0.0521434,20.9451,46.7531,-0.0949016,0.0,0.0
504,125.75,60.1708,63.0063,173.359,100.649,102.383,0.000493004,0.0514983,20.9459,46.7731,-0.13055,0.0,0.0
511,127.5,60.3437,62.5284,169.304,100.64,101.406,0.000407541,0.0507479,20.9464,46.7431,-0.0579088,0.0,0.0
518,129.25,59.9603,62.7707,170.219,100.672,102.159,0.000372766,0.0500634,20.9469,46.733,-0.112037,0.0,0.0
525,131,59.6514,62.778,171.165,100.651,100.782,0.000347936,0.0495678,20.9481,46.7531,-0.00987141,0.0,0.0
532,132.75,59.7755,62.7598,168.464,100.649,101.822,0.000307688,0.0493054,20.9487,46.7531,-0.0885176,0.0,0.0
539,134.5,59.8973,62.8529,169.958,100.666,101.851,0.000308055,0.0494111,20.9472,46.7631,-0.0893697,0.0,0.0
546,136.25,60.1166,62.2929,168.764,100.671,101.644,0.000406624,0.0494335,20.9462,46.7431,-0.0735276,0.0,0.0
553,138,59.8359,62.7393,167.571,100.674,102.691,0.000490693,0.0491488,20.9458,46.7831,-0.151623,0.0,0.0
560,139.75,60.2176,62.7329,170.572,100.655,102.041,0.00050261,0.0489568,20.9456,46.7531,-0.104563,0.0,0.0
567,141.5,59.8344,62.8111,170.24,100.649,102.728,0.000498213,0.0487848,20.9455,46.7531,-0.156237,0.0,0.0
574,143.25,59.7004,62.7849,171.392,100.645,101.234,0.000527412,0.0485542,20.9454,46.7431,-0.0445769,0.0,0.0
581,145,59.4899,62.6828,172.043,100.651,101.687,0.000518179,0.0484612,20.9454,46.7431,-0.0782566,0.0,0.0
588,146.75,59.5161,62.4952,170.769,100.647,99.9379,0.00041899,0.0482145,20.9465,46.7531,0.0539997,0.0,0.0
595,148.5,59.6814,62.3715,169.858,100.624,102.427,0.000355453,0.0479329,20.9471,46.733,-0.135765,0.0,0.0
597,149,59.3659,62.5396,171.436,100.624,101.203,0.000346825,0.0478502,20.9473,46.7631,-0.0438027,0.0,0.0