Folder: fsri_materials_database/01_Data/Feather_Pillow_Feathers/Cone (part 4)

File: Feather_Pillow_Feathers_Cone_HF50Scan_230710_R3.csv
Names,Time,Stack TC,Smoke TC,Exh Press,Smoke Comp,Smoke Meas,CO Meter,CO2 Meter,O2 Meter,Sample Mass,Ext Coeff,Start Test,Flame Verif
Chan Gain,,500,500,1,1,1,1,1,1,1,1,1.0,1.0
Offset,,0,0,0.18266,0,0,0,0,0,0,0,0.0,0.0
Gain,,1,1,25.011,12.977,51.8855,1,1,1,1.00092,0.871134,1.0,1.0
Units,sec,C,C,Pa,%,%,%,%,%,g,/m,,
Baseline,,54.6524,57.2604,173.87,100.032,100.694,-4.56684e-05,0.0443258,20.9553,-446.635,-0.050157,,
7,1.5,53.3541,54.9502,173.401,100.027,100.444,0.000167964,0.0439995,20.9555,49.6157,-0.0318193,0.0,0.0
14,3.25,53.6061,55.4159,170.723,100.036,90.4924,0.000148585,0.0440325,20.9559,49.4856,0.766196,0.0,0.0
21,5,53.7279,55.6083,169.828,100.008,85.5616,0.000183486,0.0440573,20.9564,49.2854,1.19216,0.0,0.0
28,6.75,54.228,56.5441,170.572,100.019,84.8063,0.000339772,0.0442434,20.957,49.0852,1.2608,0.0,0.0
35,8.5,54.4024,57.1064,155.668,100.01,102.077,0.000483192,0.0443457,20.9572,48.7349,-0.156288,0.0,1.0
42,10.25,55.3544,60.2287,152.859,100.009,103.011,0.000506172,0.0446032,20.9565,48.4346,-0.225967,0.0,1.0
49,12,57.4103,64.7412,153.254,100.001,101.011,0.000581839,0.0462673,20.9559,48.2144,-0.0767906,0.0,1.0
56,13.75,58.3234,66.5499,146.649,99.9848,98.6581,0.0010187,0.0495667,20.956,47.9942,0.102078,0.0,1.0
63,15.5,59.5839,69.9303,148.099,99.9729,93.6212,0.00165758,0.0537894,20.9545,47.6739,0.501608,0.0,1.0
70,17.25,61.3048,72.8254,138.472,99.9927,87.4522,0.00263302,0.0992708,20.9528,47.4837,1.024,0.0,0.0
77,19,62.9431,75.255,148.191,99.9721,81.9039,0.00341101,0.19702,20.9254,47.1935,1.5233,0.0,0.0
84,20.75,64.3171,76.9897,151.078,99.9844,85.028,0.00368992,0.281223,20.8071,47.0333,1.23818,0.0,0.0
91,22.5,65.62,78.6281,157.689,99.9586,92.6331,0.00352262,0.341812,20.6839,46.9332,0.581594,0.0,0.0
98,24.25,66.1862,78.7147,158.982,99.9389,98.0437,0.0032811,0.396589,20.6003,46.9633,0.1463,0.0,0.0
105,26,66.515,77.9384,167.794,99.927,102.384,0.00401636,0.455897,20.5192,46.9332,-0.185607,0.0,0.0
112,27.75,65.9778,76.6489,168.7,99.9218,101.774,0.00556183,0.494739,20.4258,47.0033,-0.140366,0.0,0.0
119,29.5,65.0312,75.3573,167.939,99.9175,102.203,0.00719829,0.501781,20.3454,47.0133,-0.17285,0.0,0.0
126,31.25,64.8801,73.2258,172.865,99.8937,101.803,0.00839387,0.46931,20.3063,46.9933,-0.144656,0.0,0.0
133,33,64.2711,72.9071,169.151,99.8961,102.998,0.00840087,0.391817,20.3076,46.9733,-0.233687,0.0,0.0
140,34.75,63.9303,71.3656,169.715,99.8874,101.176,0.0073903,0.302324,20.3795,46.9633,-0.0979284,0.0,0.0
147,36.5,63.9189,70.7058,167.62,99.8668,101.852,0.00619319,0.21171,20.4752,46.9633,-0.150399,0.0,0.0
154,38.25,63.0835,70.0995,171.814,99.8513,100.761,0.00502478,0.150566,20.6014,46.9332,-0.0692887,0.0,0.0
161,40,63.2472,69.4582,173.977,99.8216,100.002,0.0043888,0.113783,20.7177,46.9232,-0.0138242,0.0,0.0
168,41.75,63.3012,68.1411,168.058,99.8097,101.885,0.00411765,0.0945917,20.797,46.9032,-0.157259,0.0,0.0
175,43.5,62.8461,68.1597,165.614,99.8121,101.158,0.00406586,0.0849172,20.8434,46.9332,-0.102371,0.0,0.0
182,45.25,63.3078,68.1356,171.95,99.7836,102.009,0.00408936,0.0793831,20.8763,46.9633,-0.168518,0.0,0.0
189,47,62.0603,67.0261,171.277,99.765,102.479,0.0040663,0.0772636,20.8907,46.9332,-0.205091,0.0,0.0
196,48.75,62.22,66.5952,170.341,99.7301,101.993,0.00392101,0.0761882,20.9024,46.9332,-0.171427,0.0,0.0
203,50.5,62.3177,66.3186,171.778,99.7321,102.1,0.00369175,0.0761365,20.9082,46.8632,-0.179338,0.0,0.0
210,52.25,62.0303,65.8607,172.092,99.7088,101.641,0.00340655,0.0757745,20.9116,46.8532,-0.146684,0.0,0.0
217,54,61.8526,65.8178,171.62,99.6684,100.856,0.0031404,0.0760288,20.9144,46.8532,-0.0905052,0.0,0.0
224,55.75,61.4503,65.6601,172.84,99.6505,102.482,0.00296944,0.0755131,20.9159,46.8832,-0.214098,0.0,0.0
231,57.5,61.4906,65.6212,168.546,99.6216,101.332,0.00283266,0.0742197,20.9166,46.8231,-0.130115,0.0,0.0
238,59.25,61.3999,65.2936,168.214,99.5832,101.465,0.00270251,0.0730801,20.9178,46.8231,-0.143086,0.0,0.0
245,61,61.2316,64.8887,169.344,99.5927,100.021,0.00254244,0.0720966,20.9187,46.8231,-0.0328192,0.0,0.0
252,62.75,61.2405,64.853,174.191,99.5666,101.097,0.00238948,0.0718024,20.9205,46.7831,-0.116527,0.0,0.0
259,64.5,60.9426,64.8529,170.531,99.5309,100.446,0.0023335,0.0716778,20.9215,46.7931,-0.0699125,0.0,0.0
266,66.25,61.3489,64.34,169.124,99.5179,101.13,0.00222983,0.0711771,20.9222,46.8131,-0.122778,0.0,0.0
273,68,60.77,63.8837,166.42,99.5155,101.019,0.0020849,0.0703295,20.9225,46.8031,-0.114581,0.0,0.0
280,69.75,61.0392,64.0536,174.437,99.5099,101.423,0.00193796,0.0696066,20.9227,46.8131,-0.145489,0.0,0.0
287,71.5,60.6438,63.9729,171.26,99.4981,101.298,0.00174286,0.0690598,20.9226,46.8031,-0.136971,0.0,0.0
294,73.25,60.9777,64.1013,170.979,99.4644,102.406,0.0015447,0.0685137,20.9238,46.8231,-0.222716,0.0,0.0
301,75,60.5352,63.4704,168.081,99.4557,101.621,0.00143565,0.068101,20.9253,46.7531,-0.164555,0.0,0.0
308,76.75,60.6436,63.6817,169.028,99.4074,101.746,0.0013961,0.0678648,20.9263,46.7831,-0.177668,0.0,0.0
315,78.5,60.3513,63.6381,170.825,99.4339,102.468,0.00136714,0.0670703,20.9268,46.7831,-0.229666,0.0,0.0
322,80.25,60.1798,63.3416,167.484,99.3864,99.8298,0.001258,0.0660064,20.9279,46.8031,-0.034015,0.0,0.0
329,82,60.2194,63.8472,175.451,99.3527,100.33,0.00117941,0.0651446,20.9294,46.7731,-0.0748089,0.0,0.0
336,83.75,60.5784,63.3059,172.959,99.3393,100.051,0.0011556,0.0646698,20.9307,46.7631,-0.0545891,0.0,0.0
343,85.5,60.3568,63.2177,171.51,99.306,100.235,0.00111408,0.0644356,20.9313,46.7731,-0.0711642,0.0,0.0
350,87.25,59.8841,63.0183,175.999,99.3266,101.242,0.00105042,0.063907,20.9316,46.7731,-0.145971,0.0,0.0
357,89,59.975,63.2345,170.338,99.2854,101.078,0.000962616,0.0632173,20.9318,46.7831,-0.1367,0.0,0.0
364,90.75,60.0752,63.1447,170.158,99.2597,100.428,0.000856691,0.0624817,20.9323,46.733,-0.0894439,0.0,0.0
371,92.5,60.0248,63.1214,171.453,99.2509,100.938,0.000877454,0.0619054,20.9327,46.723,-0.128812,0.0,0.0
378,94.25,59.4483,63.4119,168.674,99.2367,100.013,0.00100363,0.0612592,20.9339,46.7431,-0.0595804,0.0,0.0
385,96,59.5834,63.2776,169.17,99.2315,101.239,0.00110063,0.0606177,20.9346,46.7531,-0.153047,0.0,0.0
392,97.75,59.8977,63.3278,173.348,99.2256,102.14,0.00113297,0.0602933,20.935,46.7931,-0.221209,0.0,0.0
399,99.5,59.8322,63.3387,170.7,99.188,101.845,0.00110726,0.0597487,20.9361,46.7631,-0.202041,0.0,0.0
406,101.25,60.0221,62.9154,173.549,99.1583,101.565,0.00101453,0.0589949,20.9369,46.7531,-0.183272,0.0,0.0
413,103,59.818,63.595,168.765,99.15,100.929,0.000929789,0.0584803,20.9372,46.7631,-0.135871,0.0,0.0
420,104.75,59.9186,63.301,168.952,99.1492,100.861,0.000871987,0.0577213,20.9374,46.723,-0.130775,0.0,0.0
427,106.5,59.8539,62.9853,170.17,99.1246,100.691,0.000794747,0.0569094,20.9383,46.703,-0.119821,0.0,0.0
434,108.25,59.9695,62.4083,169.211,99.0858,100.664,0.000755719,0.0563744,20.9391,46.713,-0.12077,0.0,0.0
441,110,59.9998,62.8199,170.465,99.0597,98.9937,0.000711209,0.0557022,20.9396,46.703,0.00508773,0.0,0.0
448,111.75,59.4261,62.7845,174.293,99.0557,100.645,0.000608589,0.0553538,20.9398,46.703,-0.121649,0.0,0.0
455,113.5,59.4833,62.6876,172.515,99.0205,100.447,0.000535775,0.0549327,20.9403,46.723,-0.109327,0.0,0.0
462,115.25,59.5723,62.8002,167.944,99.0058,101.453,0.000562912,0.0545423,20.9414,46.683,-0.186568,0.0,0.0
469,117,59.6523,62.7394,169.088,98.9769,101.432,0.000629917,0.0541895,20.9411,46.733,-0.187249,0.0,0.0
476,118.75,59.1513,62.7289,173.253,98.9504,101.7,0.000665632,0.0538502,20.9417,46.723,-0.209431,0.0,0.0
483,120.5,59.3096,62.8836,168.901,98.9488,100.913,0.00069472,0.0536315,20.942,46.693,-0.150193,0.0,0.0
490,122.25,59.519,62.5332,169.276,98.9373,101.125,0.000720043,0.0533906,20.9422,46.693,-0.167131,0.0,0.0
497,124,59.4277,62.7354,169.327,98.9282,100.348,0.000718497,0.0531926,20.9422,46.653,-0.108859,0.0,0.0
504,125.75,59.2886,62.7162,176.172,98.8965,101.182,0.000696547,0.0528898,20.9429,46.653,-0.174587,0.0,0.0
511,127.5,58.9053,62.7005,173.482,98.8779,100.074,0.000702177,0.0523001,20.9434,46.683,-0.0918553,0.0,0.0
518,129.25,59.1616,62.4805,173.03,98.8743,100.085,0.000674207,0.0517196,20.9436,46.673,-0.0929774,0.0,0.0
525,131,59.0558,62.17,176.609,98.8775,101.765,0.000609559,0.0511664,20.9437,46.643,-0.219938,0.0,0.0
532,132.75,59.0614,62.1861,170.92,98.8597,101.157,0.000499887,0.0506037,20.9438,46.633,-0.17552,0.0,0.0
539,134.5,59.3885,62.2761,166.081,98.8478,100.477,0.000310782,0.0502072,20.9438,46.693,-0.124951,0.0,0.0
546,136.25,59.0737,62.3809,172.125,98.8232,99.7411,0.000186952,0.0499986,20.9438,46.723,-0.070647,0.0,0.0
553,138,59.4326,61.958,169.406,98.8434,100.009,7.93256e-05,0.0495277,20.9462,46.683,-0.08956,0.0,0.0
560,139.75,59.3785,62.4873,173.235,98.83,101.868,4.13605e-05,0.049116,20.9473,46.693,-0.231335,0.0,0.0
567,141.5,59.6616,62.2731,167.7,98.8133,100.042,4.55854e-05,0.048858,20.9479,46.683,-0.0944271,0.0,0.0
574,143.25,59.522,61.944,174.615,98.807,101.184,9.26015e-05,0.0485897,20.9492,46.693,-0.181626,0.0,0.0
581,145,59.4589,62.412,166.655,98.803,100.287,0.000201015,0.0482258,20.9501,46.703,-0.113947,0.0,0.0
588,146.75,59.5665,62.5283,170.817,98.8137,100.137,0.000293451,0.0480584,20.9504,46.703,-0.10165,0.0,0.0
595,148.5,59.6202,62.422,174.368,98.8125,98.7214,0.000349713,0.0478417,20.9505,46.693,0.00705289,0.0,0.0

File: Feather_Pillow_Feathers_Cone_HF75Scalar_230710_R1.csv
LABORATORY,FSRI
TEST IDENT,Fea_Pill_Fea_HF75_R1
OPERATOR,Marino
MATERIAL,Feather Pillow Feathers
ORIENTATION,Horizontal
HEAT FLUX,75
SURF AREA,0.01
C FACTOR,0.0383364
SPEC HOLDER DIFF,-566
SPECIMEN MASS,5.38
SCAN TIME,0.25
O2 DELAY TIME,11
CO DELAY TIME,11
CO2 DELAY TIME,8
FLOW FACTOR,1
SCAN COUNT,556
TIME TO IGN,1.75
END OF TEST SCAN,76
END OF TEST TIME,19
TEST STATUS,1
PRE TEST CMT,5 cm depth tray filled without compression
POST TEST CMT,Sample ignited almost instantly after shutter was moved. Sample charred and bubbled. Corners of sample foil lifted after flames were extinguished.

File: Feather_Pillow_Feathers_Cone_HF75Scan_230710_R1.csv
Names,Time,Stack TC,Smoke TC,Exh Press,Smoke Comp,Smoke Meas,CO Meter,CO2 Meter,O2 Meter,Sample Mass,Ext Coeff,Start Test,Flame Verif
Chan Gain,,500,500,1,1,1,1,1,1,1,1,1.0,1.0
Offset,,0,0,0.18266,0,0,0,0,0,0,0,0.0,0.0
Gain,,1,1,25.011,13.044,49.4489,1,1,1,1.00092,0.871134,1.0,1.0
Units,sec,C,C,Pa,%,%,%,%,%,g,/m,,
Baseline,,68.1104,71.7427,167.361,101.173,101.163,0.000241109,0.0441665,20.9485,-448.275,0.000816173,,
6,1.25,63.3642,65.272,168.306,100.878,97.4777,0.000358,0.0448921,20.9499,47.764,0.262,0.0,0.0
12,2.75,64.1484,67.3771,153.507,100.902,101.625,0.000384976,0.0447795,20.9501,47.4837,-0.0545212,0.0,1.0
18,4.25,66.0491,71.896,150.938,100.934,101.353,0.000444967,0.0445689,20.9503,47.1735,-0.0316876,0.0,1.0
24,5.75,67.7125,76.3643,133.242,100.968,97.87,0.00052333,0.0446434,20.9503,46.663,0.238146,0.0,1.0
30,7.25,69.2919,80.5895,142.547,100.988,98.5627,0.000602987,0.0450277,20.9496,46.4328,0.185732,0.0,1.0
36,8.75,71.1207,83.2292,141.419,101.036,91.8911,0.000633068,0.0468578,20.9489,46.0925,0.724986,0.0,0.0
42,10.25,72.5036,85.9413,145.263,101.074,84.7971,0.000752286,0.0650715,20.9476,45.8322,1.34177,0.0,0.0
48,11.75,74.6501,89.2085,143.724,101.107,80.3317,0.00105176,0.150642,20.9424,45.582,1.7577,0.0,0.0
54,13.25,75.7078,92.0577,143.935,101.121,74.1688,0.00151008,0.261706,20.8657,45.3618,2.36865,0.0,0.0
60,14.75,77.362,93.4889,149.822,101.184,77.3302,0.00198168,0.366488,20.7231,45.1916,2.05446,0.0,0.0
66,16.25,78.2252,94.6789,151.53,101.196,91.4037,0.00246196,0.433031,20.6029,45.2317,0.777691,0.0,0.0
72,17.75,78.783,95.119,162.505,101.232,100.106,0.00317576,0.486963,20.4767,45.2917,0.0854739,0.0,0.0
78,19.25,78.6433,93.591,161.325,101.261,101.196,0.00413006,0.519145,20.3966,45.3318,0.00491659,0.0,0.0
84,20.75,77.8307,91.8269,160.943,101.299,100.669,0.00573867,0.559141,20.3154,45.3518,0.0476129,0.0,0.0
90,22.25,77.8133,90.2784,165.315,101.337,102.738,0.00790438,0.578406,20.2384,45.3618,-0.104958,0.0,0.0
96,23.75,77.7617,89.0449,163.337,101.369,103.374,0.009657,0.570166,20.1942,45.3418,-0.149636,0.0,0.0
102,25.25,77.2702,88.1922,163.246,101.371,102.595,0.0107511,0.519168,20.1719,45.3217,-0.0916774,0.0,0.0
108,26.75,76.9793,87.2967,165.578,101.419,102.605,0.0105756,0.421665,20.1764,45.3318,-0.0888637,0.0,0.0
114,28.25,76.8412,86.1292,166.473,101.444,102.065,0.00945699,0.323007,20.2735,45.2917,-0.046664,0.0,0.0
120,29.75,76.2724,85.2439,164.369,101.462,101.585,0.00802427,0.237363,20.4139,45.3017,-0.00930181,0.0,0.0
126,31.25,75.8442,84.8666,160.017,101.475,102.705,0.00673686,0.179236,20.5412,45.3117,-0.0920503,0.0,0.0
132,32.75,76.2127,84.4141,166.675,101.486,102.602,0.0056845,0.141224,20.656,45.2917,-0.0836018,0.0,0.0
138,34.25,76.4315,83.4702,163.788,101.521,101.49,0.00480558,0.117654,20.7425,45.2617,0.00234896,0.0,0.0
144,35.75,75.6648,83.1052,167.002,101.522,101.534,0.00422897,0.103487,20.8007,45.2417,-0.000915095,0.0,0.0
150,37.25,75.3674,82.3933,161.487,101.55,102.664,0.00386452,0.0945398,20.8367,45.2317,-0.0834139,0.0,0.0
156,38.75,75.4443,82.3932,170.276,101.54,102.251,0.0036014,0.0890528,20.8602,45.2517,-0.0532942,0.0,0.0
162,40.25,74.0161,81.4189,160.669,101.556,101.626,0.00337874,0.084311,20.8768,45.2317,-0.00526341,0.0,0.0
168,41.75,75.0606,81.4328,162.604,101.573,102.624,0.00324587,0.081987,20.8861,45.2217,-0.0786141,0.0,0.0
174,43.25,75.0055,80.9468,164.078,101.578,102.512,0.00303519,0.0795368,20.8952,45.2317,-0.0699046,0.0,0.0
180,44.75,74.4483,80.2398,160.782,101.582,103.147,0.0027882,0.0774154,20.9006,45.2116,-0.116817,0.0,0.0
186,46.25,74.5985,79.9431,163.668,101.588,101.833,0.00260521,0.0758111,20.9037,45.1916,-0.0183972,0.0,0.0
192,47.75,74.6934,79.9905,163.363,101.601,102.446,0.00249337,0.0741004,20.9068,45.1015,-0.0632467,0.0,0.0
198,49.25,73.8721,79.4234,167.994,101.609,102.773,0.00237289,0.0728765,20.9092,45.1015,-0.087006,0.0,0.0
204,50.75,73.7458,79.2044,162.677,101.606,102.08,0.00224769,0.0718741,20.9113,45.1816,-0.0355693,0.0,0.0
210,52.25,73.9072,79.1331,164.402,101.617,103.526,0.00214036,0.071134,20.9133,45.2217,-0.142192,0.0,0.0
216,53.75,73.8491,78.4115,167.089,101.636,103.334,0.00210252,0.0703091,20.915,45.2317,-0.126627,0.0,0.0
222,55.25,73.5615,78.4739,160.79,101.638,103.275,0.00212082,0.0692861,20.9159,45.1816,-0.122153,0.0,0.0
228,56.75,73.9859,78.2063,163.853,101.652,100.828,0.00214886,0.0684749,20.9171,45.1516,0.0622437,0.0,0.0
234,58.25,73.3577,78.0919,166.432,101.629,101.552,0.00215007,0.0678324,20.9181,45.1015,0.0057477,0.0,0.0
240,59.75,73.6735,78.1019,163.998,101.628,102.106,0.00210846,0.0672581,20.9198,45.1015,-0.0358425,0.0,0.0
246,61.25,73.6154,77.689,163.427,101.616,101.869,0.00200445,0.0666594,20.9207,45.1216,-0.0189894,0.0,0.0
252,62.75,73.312,77.5907,165.675,101.628,102.574,0.00185696,0.0661624,20.9218,45.1316,-0.0708038,0.0,0.0
258,64.25,72.7897,77.7877,164.037,101.625,102.765,0.00169778,0.0656072,20.9239,45.1516,-0.0852772,0.0,0.0
264,65.75,73.3411,77.8549,161.742,101.639,102.876,0.00153681,0.064864,20.9254,45.1316,-0.0924168,0.0,0.0
270,67.25,73.124,77.6504,163.892,101.646,102.916,0.00142248,0.0639771,20.927,45.1416,-0.0948735,0.0,0.0
276,68.75,73.4201,77.6512,163.948,101.639,102.666,0.00130539,0.0633602,20.9279,45.1116,-0.0767897,0.0,0.0
282,70.25,73.1075,77.2033,163.212,101.653,103.007,0.00120224,0.0627472,20.929,45.1015,-0.101115,0.0,0.0
288,71.75,73.0051,76.7133,166.185,101.643,103.125,0.00114152,0.0623543,20.93,45.1015,-0.11056,0.0,0.0
294,73.25,72.8535,77.3008,159.767,101.664,102.467,0.00112566,0.0620043,20.9306,45.1116,-0.0601239,0.0,0.0
300,74.75,72.9959,77.5168,166.229,101.665,101.699,0.00116352,0.0614991,20.9309,45.1116,-0.0025055,0.0,0.0
306,76.25,72.7311,77.065,162.538,101.687,102.263,0.00116401,0.0609891,20.9311,45.1316,-0.0431806,0.0,0.0
312,77.75,72.9266,77.0541,163.107,101.687,102.691,0.00112192,0.0606765,20.9312,45.1716,-0.0750789,0.0,0.0
318,79.25,72.7916,77.038,165.099,101.689,102.349,0.00106881,0.060365,20.9312,45.1316,-0.0494255,0.0,0.0
324,80.75,72.2043,77.4148,163.38,101.692,102.784,0.00105656,0.0599594,20.9321,45.1416,-0.0815663,0.0,0.0
330,82.25,72.3463,76.9776,164.865,101.695,102.655,0.00108322,0.059565,20.9328,45.0915,-0.0718451,0.0,0.0
336,83.75,72.3073,76.7848,169.196,101.68,103.117,0.00109706,0.0590881,20.9332,45.1516,-0.107278,0.0,0.0
342,85.25,72.4271,76.5799,166.118,101.704,102.643,0.00107918,0.0587416,20.9333,45.0915,-0.0702581,0.0,0.0
348,86.75,72.5219,76.7765,164.543,101.706,103.432,0.00104403,0.058288,20.9341,45.1015,-0.128611,0.0,0.0
354,88.25,72.2235,76.3192,167.669,101.715,102.242,0.00101177,0.0579016,20.9348,45.1116,-0.0394484,0.0,0.0
360,89.75,72.0581,76.3114,167.678,101.724,102.092,0.000921225,0.0574973,20.9352,45.1015,-0.0276163,0.0,0.0
366,91.25,72.3683,76.5256,162.492,101.725,103.096,0.000736911,0.0571145,20.9354,45.0815,-0.102273,0.0,0.0
372,92.75,71.8579,76.6301,163.025,101.726,102.198,0.000557448,0.0568169,20.9355,45.1116,-0.0353991,0.0,0.0
378,94.25,72.3211,76.5157,168.72,101.712,102.091,0.000515439,0.0562822,20.936,45.1116,-0.02843,0.0,0.0
384,95.75,72.1541,76.2381,163.376,101.739,102.053,0.000599454,0.0557364,20.9369,45.0915,-0.0235723,0.0,0.0
390,97.25,71.7304,76.4098,162.522,101.733,102.788,0.000718167,0.0552937,20.9385,45.0415,-0.078853,0.0,0.0
396,98.75,71.8235,76.3025,158.259,101.727,102.005,0.000780958,0.0549596,20.9394,45.0115,-0.0208233,0.0,0.0
402,100.25,71.8876,76.2419,165.056,101.724,101.905,0.00079193,0.0547247,20.9398,45.0315,-0.0135974,0.0,0.0
408,101.75,72.0232,76.0692,165.927,101.722,102.148,0.000772891,0.0544166,20.9401,45.0315,-0.0319437,0.0,0.0
414,103.25,71.9333,75.5513,166.984,101.723,101.961,0.000747316,0.0541159,20.9402,44.9914,-0.0178429,0.0,0.0
420,104.75,72.2364,75.9172,163.212,101.715,102.257,0.00073582,0.0536528,20.9402,45.0014,-0.0406063,0.0,0.0
426,106.25,72.0657,76.0656,165.579,101.709,102.169,0.000763696,0.0532613,20.9403,45.0715,-0.0345109,0.0,0.0
432,107.75,71.7975,75.7731,164.467,101.705,102.75,0.000799773,0.0529659,20.9403,45.0815,-0.0781107,0.0,0.0
438,109.25,71.9697,76.1165,160.184,101.701,102.776,0.000860941,0.052564,20.9411,45.0515,-0.0803174,0.0,0.0
444,110.75,71.946,76.1671,163.109,101.706,102.738,0.000899244,0.0522904,20.9423,45.0715,-0.0771826,0.0,0.0
450,112.25,71.9494,75.5852,167.836,101.698,102.734,0.000912363,0.052025,20.9433,45.0215,-0.0774449,0.0,0.0
456,113.75,71.6911,76.2522,166.515,101.687,102.989,0.000851054,0.0515973,20.9438,45.0215,-0.0972276,0.0,0.0
462,115.25,72.0418,76.0951,162.876,101.704,101.931,0.000771706,0.0512745,20.9441,45.0515,-0.0170162,0.0,0.0
468,116.75,71.7317,76.2498,161.338,101.677,102.501,0.000702256,0.0511246,20.9442,45.0515,-0.0617239,0.0,0.0
474,118.25,72.3944,75.8955,165.76,101.674,103.02,0.000617491,0.0510542,20.9443,45.0515,-0.100566,0.0,0.0
480,119.75,72.0813,75.8767,165.891,101.654,102.657,0.000523067,0.0511071,20.9443,45.0615,-0.0750384,0.0,0.0
486,121.25,72.0137,76.1293,161.805,101.64,102.19,0.000393781,0.0511705,20.9443,45.0715,-0.0412373,0.0,0.0
492,122.75,71.8497,76.3852,166.69,101.652,102.479,0.000276283,0.0510261,20.9443,45.0315,-0.0619218,0.0,0.0
498,124.25,71.5666,76.0808,170.126,101.658,102.338,0.000154277,0.0505651,20.9452,45.0014,-0.050971,0.0,0.0
504,125.75,71.7726,75.6949,164.577,101.623,103.491,6.95588e-05,0.0500748,20.9459,45.0115,-0.139241,0.0,0.0
510,127.25,71.8553,76.0589,165.215,101.59,102.151,1.95929e-05,0.0495504,20.9463,45.0215,-0.042134,0.0,0.0
516,128.75,71.5456,76.0628,164.315,101.6,102.577,1.95298e-05,0.0489974,20.9465,45.0115,-0.0730935,0.0,0.0
522,130.25,71.6973,75.2153,164.589,101.57,101.689,5.92152e-05,0.0486051,20.9466,45.0315,-0.00895023,0.0,0.0
528,131.75,71.6482,75.5605,165.044,101.581,101.794,0.000169749,0.0483496,20.9462,45.0415,-0.0159613,0.0,0.0
534,133.25,71.4825,75.3477,161.49,101.552,102.393,0.00025832,0.0479573,20.946,45.0515,-0.0629895,0.0,0.0
540,134.75,71.6909,75.6713,164.471,101.533,102.436,0.000305501,0.0475203,20.9458,45.0615,-0.0676628,0.0,0.0
546,136.25,71.4479,75.5314,165.453,101.495,102.673,0.000340299,0.0472336,20.9467,45.0515,-0.0882227,0.0,0.0
552,137.75,71.5288,75.695,164.911,101.497,102.02,0.000367222,0.0470578,20.9473,44.9914,-0.0392566,0.0,0.0
556,138.75,71.248,75.4966,163.147,101.486,101.131,0.00036201,0.0470064,20.9476,45.0014,0.0267721,0.0,0.0