Folder: fsri_materials_database/01_Data/Feather_Pillow_Feathers/Cone

Note: README.md
# Materials and Products Database
### Repository of materials and products properties and fire test data to improve fire modeling and fire investigation.

This project was supported in part by Award No. 2019-DU-BX-0018, awarded by the National Institute of Justice, Office of Justice Programs, U.S. Department of Justice. The opinions, findings, and conclusions or recommendations expressed in this publication / program / exhibition are those of the author(s) and do not necessarily reflect those of the Department of Justice.

***
***

__Cite this database:__ "McKinnon, M., Weinschenk, C., Dow, N., DiDomizio, M., and Madrzykowski, D. Materials and Products Database (Version 1.0.0), Fire Safety Research Institute, UL Research Institutes. Columbia, MD 21045, 2023."

__Cite the Technical Reference Guide:__ "McKinnon, M., Weinschenk, C., and Madrzykowski, D. Materials and Products Database - Technical Reference Guide, Fire Safety Research Institute, UL Research Institutes. Columbia, MD 21045, 2023."

__Cite the User Guide:__ "McKinnon, M., and Weinschenk, C. Materials and Products Database - User Guide, Fire Safety Research Institute, UL Research Institutes. Columbia, MD 21045, 2023."

***
***

## Database Structure

## 01_Data/
Raw data generated from each apparatus are included here in plain-text format. The data is organized first by material, next by the short name of test apparatus used, and where applicable additional filtering by test settings.

### Test Apparatus and Data File Structure
- __Cone Calorimeter__ (Cone)
    + Data file structure includes the material, the short name for the apparatus, heat flux setting and scan/scalar, date of test, and replicate number. Scan is for the raw output data and scalar is for the initial conditions and high-level test parameters. 
        * Example: __MDF_Cone_HF25scalar_210323_R1__ stands for the first replicate of scalar data generated from a medium density fiber board test in cone calorimeter exposed to 25 kW/m<sup>2</sup> on March 23, 2021.
    + A _Cone_Notes.csv_ is generated for each material from the __plot_Cone_data.py__ script. For materials whose experiments deviated from typical behavior relevant pictures are included in the respective material directory.
- __Fourier Transform Infrared Spectrometer__ (FTIR)
    + The FTIR directory contains subdirectories for the Attenuated Total Reflectance method (ATR) and the Integrating Sphere (IS)
    + Data file structure for the ATR experiment files includes the material, the abbreviated name for the apparatus, date of test, and replicate number. 
        * Example: __MDF_ATR_210323_R5__ stands for the fifth replicate of data collected with the ATR accessory conducted on June 8, 2021.
    + Data file structure for the IS experiment files includes the material, the abbreviated name for the apparatus, the measurand, whether the test is a sample measurement or standard reference, date of test, and replicate number.
        * Example: __OSB_IS_REFLECT_MEAS_2

File: Feather_Pillow_Feathers_Cone_HF25Scalar_230710_R1.csv
LABORATORY,FSRI
TEST IDENT,Fea_Pill_Fea_HF25_R1
OPERATOR,Marino
MATERIAL,Feather Pillow Feathers
ORIENTATION,Horizontal
HEAT FLUX,25
SURF AREA,0.01
C FACTOR,0.0383364
SPEC HOLDER DIFF,-566
SPECIMEN MASS,5.39
SCAN TIME,0.25
O2 DELAY TIME,11
CO DELAY TIME,11
CO2 DELAY TIME,8
FLOW FACTOR,1
SCAN COUNT,638
TIME TO IGN,4
END OF TEST SCAN,158
END OF TEST TIME,39.5
TEST STATUS,1
PRE TEST CMT,5 cm depth tray filled without compression
POST TEST CMT,Sample may be been ingited directly by spark ingiter contact. Unclear though due to rapid ignition. Sample shrank and charred. Charred mass left bubbled.

File: Feather_Pillow_Feathers_Cone_HF25Scalar_230710_R2.csv
LABORATORY,FSRI
TEST IDENT,Fea_Pill_Fea_HF25_R2
OPERATOR,Marino
MATERIAL,Feather Pillow Feathers
ORIENTATION,Horizontal
HEAT FLUX,25
SURF AREA,0.01
C FACTOR,0.0383364
SPEC HOLDER DIFF,-566
SPECIMEN MASS,5.35
SCAN TIME,0.25
O2 DELAY TIME,11
CO DELAY TIME,11
CO2 DELAY TIME,8
FLOW FACTOR,1
SCAN COUNT,1475
TIME TO IGN,0
END OF TEST SCAN,995
END OF TEST TIME,248.75
TEST STATUS,1
PRE TEST CMT,5 cm depth tray filled without compression
POST TEST CMT,"Sample did not ignite. Sample shrank and charred. Leftover charred mass bubbled."

File: Feather_Pillow_Feathers_Cone_HF25Scalar_230710_R3.csv
LABORATORY,FSRI
TEST IDENT,Fea_Pill_Fea_HF25_R3
OPERATOR,Marino
MATERIAL,Feather Pillow Feathers
ORIENTATION,Horizontal
HEAT FLUX,25
SURF AREA,0.01
C FACTOR,0.0383364
SPEC HOLDER DIFF,-566
SPECIMEN MASS,5.38
SCAN TIME,0.25
O2 DELAY TIME,11
CO DELAY TIME,11
CO2 DELAY TIME,8
FLOW FACTOR,1
SCAN COUNT,1202
TIME TO IGN,0
END OF TEST SCAN,722
END OF TEST TIME,180.5
TEST STATUS,1
PRE TEST CMT,5 cm depth tray filled without compression
POST TEST CMT,"Sample did not ignite. Sample shrank and charred. Leftover charred mass bubbled."

File: Feather_Pillow_Feathers_Cone_HF25Scan_230710_R1.csv
Names,Time,Stack TC,Smoke TC,Exh Press,Smoke Comp,Smoke Meas,CO Meter,CO2 Meter,O2 Meter,Sample Mass,Ext Coeff,Start Test,Flame Verif
Chan Gain,,500,500,1,1,1,1,1,1,1,1,1.0,1.0
Offset,,0,0,0.18266,0,0,0,0,0,0,0,0.0,0.0
Gain,,1,1,25.011,13.0208,54.2044,1,1,1,1.00092,0.871134,1.0,1.0
Units,sec,C,C,Pa,%,%,%,%,%,g,/m,,
Baseline,,40.3361,41.7577,184.021,100.245,100.719,0.000460248,0.045537,20.9391,-446.077,-0.0360107,,
7,1.5,39.2953,39.7967,180.339,100.446,101.398,0.000562772,0.0461191,20.9456,50.3364,-0.072121,0.0,0.0
14,3.25,39.0153,40.4264,178.402,100.46,101.799,0.00067587,0.0458398,20.9454,50.3063,-0.101141,0.0,0.0
21,5,39.7016,40.7543,175.743,100.478,104.05,0.00073323,0.0460717,20.9451,50.1462,-0.266968,0.0,1.0
28,6.75,40.2498,42.1983,165.865,100.481,105.258,0.000743685,0.0465732,20.9449,49.926,-0.35493,0.0,1.0
35,8.5,41.0737,43.8942,167.926,100.465,104.717,0.000722994,0.0472535,20.9444,49.6157,-0.316737,0.0,1.0
42,10.25,41.7964,46.3731,165.674,100.475,105.8,0.000691018,0.0479705,20.9434,49.3354,-0.394611,0.0,1.0
49,12,42.7562,48.8072,165.449,100.483,105.043,0.000616586,0.0502148,20.9429,49.1052,-0.33909,0.0,0.0
56,13.75,43.6035,51.0642,161.412,100.5,105.339,0.000577463,0.0629368,20.9413,48.855,-0.359331,0.0,0.0
63,15.5,44.9432,52.5608,160.528,100.506,105.387,0.000761543,0.103598,20.9372,48.7149,-0.362358,0.0,0.0
70,17.25,45.4896,54.7565,162.586,100.507,103.063,0.00109568,0.161048,20.8866,48.4947,-0.19189,0.0,0.0
77,19,46.5418,55.7951,167.384,100.496,101.218,0.00158608,0.217427,20.8152,48.2645,-0.0547129,0.0,0.0
84,20.75,47.8812,57.1983,164.402,100.506,102.588,0.00200655,0.25679,20.7332,48.0843,-0.156698,0.0,0.0
91,22.5,48.8796,58.568,160.028,100.503,96.636,0.00231057,0.281608,20.666,47.9342,0.299835,0.0,0.0
98,24.25,49.4436,60.0609,167.175,100.515,97.6898,0.00252148,0.298916,20.6201,47.794,0.217898,0.0,0.0
105,26,49.9576,60.0392,170.832,100.513,99.4399,0.00263324,0.313478,20.5873,47.754,0.0819995,0.0,0.0
112,27.75,50.513,60.5942,173.746,100.511,98.6227,0.0027219,0.328912,20.5566,47.764,0.144934,0.0,0.0
119,29.5,51.119,60.0652,178.169,100.522,101.427,0.00288874,0.345497,20.5337,47.7039,-0.068438,0.0,0.0
126,31.25,50.5777,59.5256,176.739,100.53,100.98,0.00320875,0.363229,20.5137,47.6939,-0.0341408,0.0,0.0
133,33,50.3121,58.5061,175.125,100.527,100.356,0.00359965,0.365141,20.4971,47.724,0.0129563,0.0,0.0
140,34.75,50.218,57.9703,181.659,100.532,101.862,0.00393728,0.348103,20.4884,47.7139,-0.10042,0.0,0.0
147,36.5,49.7859,56.271,181.553,100.53,101.65,0.00413049,0.319857,20.4947,47.7139,-0.0846403,0.0,0.0
154,38.25,49.6628,56.0239,178.389,100.544,101.178,0.00404617,0.282977,20.5256,47.774,-0.0480902,0.0,0.0
161,40,49.0147,54.6407,178.476,100.556,101.623,0.00381471,0.236985,20.5693,47.744,-0.0806871,0.0,0.0
168,41.75,48.0489,52.8812,182.69,100.559,100.772,0.00349762,0.188537,20.6418,47.7039,-0.0161471,0.0,0.0
175,43.5,47.7825,52.1811,181.011,100.551,101.309,0.00309479,0.150028,20.7104,47.734,-0.0573796,0.0,0.0
182,45.25,47.4548,51.5442,183.012,100.572,101.946,0.00266091,0.118852,20.765,47.6839,-0.103666,0.0,0.0
189,47,47.3474,50.8103,180.425,100.555,100.93,0.00222792,0.0940544,20.8127,47.734,-0.0284817,0.0,0.0
196,48.75,47.202,50.1632,181.2,100.56,103.339,0.00189798,0.0771174,20.8557,47.724,-0.208297,0.0,0.0
203,50.5,46.9321,49.5287,185.093,100.572,101.9,0.00158275,0.0657994,20.887,47.7039,-0.100254,0.0,0.0
210,52.25,46.685,48.5965,184.006,100.57,100.897,0.0012248,0.0585394,20.9051,47.6839,-0.024859,0.0,0.0
217,54,46.0005,48.4407,179.617,100.58,101.939,0.000952699,0.0543154,20.9181,47.7139,-0.102597,0.0,0.0
224,55.75,46.1322,47.6228,180.406,100.582,102.234,0.000791663,0.0517573,20.9279,47.7139,-0.124456,0.0,0.0
231,57.5,45.5247,47.7936,178.676,100.589,101.62,0.000745213,0.0502311,20.9338,47.7039,-0.0779326,0.0,0.0
238,59.25,45.8006,47.275,179.562,100.573,102.272,0.00082302,0.0493973,20.9366,47.6739,-0.128024,0.0,0.0
245,61,45.6774,47.2382,180.419,100.579,101.13,0.000949364,0.0487875,20.9396,47.734,-0.0418089,0.0,0.0
252,62.75,45.2088,47.2,182.973,100.573,101.617,0.00100348,0.048469,20.9415,47.734,-0.0788916,0.0,0.0
259,64.5,45.0882,46.5469,180.651,100.579,101.187,0.0010147,0.0482781,20.9426,47.744,-0.0459972,0.0,0.0
266,66.25,45.1603,46.687,181.605,100.556,101.298,0.000994528,0.0487363,20.943,47.734,-0.0561737,0.0,0.0
273,68,44.7427,46.3683,183.559,100.567,101.64,0.0009492,0.0497354,20.9424,47.754,-0.0810862,0.0,0.0
280,69.75,44.8749,46.3157,181.572,100.571,102.943,0.000918022,0.05005,20.9414,47.764,-0.178191,0.0,0.0
287,71.5,44.4779,45.9071,179.83,100.552,101.971,0.000865466,0.0497804,20.9409,47.754,-0.107036,0.0,0.0
294,73.25,44.6444,45.5553,184.442,100.57,102.128,0.000764756,0.0492964,20.9407,47.724,-0.117444,0.0,0.0
301,75,44.5715,45.5643,183.281,100.558,102.264,0.000639774,0.0487604,20.9406,47.744,-0.128493,0.0,0.0
308,76.75,44.6141,45.7008,183.915,100.555,101.959,0.000528886,0.0483681,20.9414,47.7139,-0.105956,0.0,0.0
315,78.5,44.0687,45.0983,183.815,100.548,101.958,0.000477477,0.0479898,20.9426,47.764,-0.106346,0.0,0.0
322,80.25,43.9639,45.2801,181.795,100.559,101.16,0.000486123,0.0476715,20.9432,47.724,-0.0455683,0.0,0.0
329,82,43.662,45.268,181.804,100.559,101.837,0.00053888,0.047488,20.9434,47.744,-0.0965052,0.0,0.0
336,83.75,43.8877,45.1221,183.224,100.548,101.594,0.00058915,0.0473752,20.9439,47.744,-0.0790522,0.0,0.0
343,85.5,43.6814,44.8766,184.938,100.547,101.696,0.000553554,0.0472708,20.9441,47.754,-0.0868226,0.0,0.0
350,87.25,44.0615,44.8243,178.327,100.548,101.872,0.000546354,0.0472299,20.944,47.724,-0.0999267,0.0,0.0
357,89,43.4422,44.6954,180.898,100.576,102.009,0.000670677,0.0472482,20.9437,47.7039,-0.108105,0.0,0.0
364,90.75,43.6072,45.0693,177.915,100.568,102.098,0.000751037,0.0471801,20.9436,47.754,-0.115397,0.0,0.0
371,92.5,43.8992,45.0003,184.621,100.549,101.352,0.000692897,0.0470929,20.9435,47.754,-0.0607744,0.0,0.0
378,94.25,43.0854,44.8591,182.01,100.549,101.112,0.000591501,0.0471706,20.9435,47.744,-0.042669,0.0,0.0
385,96,43.0717,44.8166,178.898,100.542,101.494,0.000561916,0.0471861,20.9435,47.754,-0.0720663,0.0,0.0
392,97.75,43.454,44.1671,180.279,100.56,101.293,0.000605002,0.0472234,20.9435,47.734,-0.0554373,0.0,0.0
399,99.5,42.8167,44.5376,178.298,100.568,102.067,0.000661188,0.0473395,20.9435,47.734,-0.113015,0.0,0.0
406,101.25,43.4006,44.7235,182.841,100.573,102.226,0.000681972,0.04739,20.9435,47.734,-0.124502,0.0,0.0
413,103,43.0541,44.2606,179.14,100.553,101.726,0.00063972,0.0473723,20.9435,47.734,-0.088607,0.0,0.0
420,104.75,43.4206,44.3492,185.311,100.548,100.862,0.000585792,0.0472886,20.9435,47.7139,-0.0238885,0.0,0.0
427,106.5,42.796,44.2242,186.707,100.56,103.883,0.000571274,0.0473203,20.9432,47.7139,-0.248465,0.0,0.0
434,108.25,43.4103,44.0068,182.086,100.558,101.799,0.00062594,0.0474128,20.9434,47.734,-0.0936801,0.0,0.0
441,110,42.8186,44.1603,179.964,100.556,102.33,0.000733473,0.0473008,20.9435,47.7139,-0.133586,0.0,0.0
448,111.75,42.6231,44.2866,180.201,100.56,100.677,0.000795234,0.0472991,20.9435,47.6939,-0.00893335,0.0,0.0
455,113.5,42.9969,43.7423,184.816,100.563,101.812,0.000772366,0.0472217,20.9435,47.7139,-0.0943109,0.0,0.0
462,115.25,42.8423,44.2569,179.187,100.571,101.486,0.000683277,0.0472604,20.9435,47.724,-0.0692396,0.0,0.0
469,117,43.0709,44.1121,182.164,100.557,102.469,0.000637369,0.0471869,20.9434,47.7039,-0.143925,0.0,0.0
476,118.75,42.8328,44.1383,179.372,100.565,101.529,0.000634687,0.0471489,20.943,47.7139,-0.0729298,0.0,0.0
483,120.5,42.2218,44.0877,178.052,100.55,102.04,0.000547987,0.0471585,20.9428,47.734,-0.112421,0.0,0.0
490,122.25,42.7286,44.3057,181.923,100.542,101.413,0.000388313,0.0471149,20.9428,47.6939,-0.065931,0.0,0.0
497,124,42.8869,43.8418,181.806,100.55,100.813,0.000297371,0.0471745,20.9427,47.764,-0.0199168,0.0,0.0
504,125.75,42.4626,43.9899,180.234,100.547,101.966,0.000244267,0.0471992,20.9427,47.734,-0.107056,0.0,0.0
511,127.5,42.6196,44.2863,182.168,100.564,101.296,0.000236807,0.0470761,20.9427,47.724,-0.0553846,0.0,0.0
518,129.25,43.0018,43.3919,184.688,100.546,101.43,0.000273052,0.047045,20.9439,47.7039,-0.0668453,0.0,0.0
525,131,42.2836,44.0751,182.571,100.551,100.914,0.000311306,0.0470332,20.9455,47.7139,-0.0275011,0.0,0.0
532,132.75,42.4793,43.958,179.933,100.577,102.51,0.000383523,0.0470361,20.9463,47.6739,-0.145439,0.0,0.0
539,134.5,42.3761,43.7776,184.73,100.565,102.328,0.000475317,0.0471081,20.9467,47.6139,-0.132798,0.0,0.0
546,136.25,42.4942,43.9047,185.181,100.558,102.073,0.000502545,0.0471506,20.9468,47.6139,-0.114325,0.0,0.0
553,138,42.744,43.9205,183.369,100.56,102.214,0.00041281,0.0471091,20.9469,47.6639,-0.124662,0.0,0.0
560,139.75,42.2196,43.5165,185.085,100.56,102.092,0.000319135,0.0471242,20.947,47.6939,-0.115506,0.0,0.0
567,141.5,42.2926,43.4877,176.291,100.565,101.822,0.000282028,0.0471583,20.947,47.6539,-0.0949348,0.0,0.0
574,143.25,42.2691,43.7253,180.999,100.561,101.164,0.000200552,0.0471227,20.947,47.6739,-0.0456371,0.0,0.0
581,145,42.5467,43.7583,179.586,100.556,101.592,0.000128692,0.0470395,20.947,47.6739,-0.0783238,0.0,0.0
588,146.75,42.3274,44.0991,176.64,100.56,101.592,0.000127258,0.0469719,20.947,47.6939,-0.0779915,0.0,0.0
595,148.5,42.3278,44.0662,180.771,100.551,102.937,0.000206896,0.0470287,20.947,47.6939,-0.179209,0.0,0.0
602,150.25,42.2033,43.6126,180.23,100.558,102.783,0.000357279,0.0470773,20.947,47.6839,-0.167268,0.0,0.0
609,152,42.1777,43.845,179.789,100.55,101.777,0.000498934,0.0469769,20.9472,47.6739,-0.092669,0.0,0.0
616,153.75,42.6834,43.7401,178.605,100.552,102.414,0.000622312,0.0469566,20.9475,47.6939,-0.140215,0.0,0.0
623,155.5,42.5927,43.5023,181.081,100.535,101.696,0.000735365,0.0470522,20.9476,47.6739,-0.0877288,0.0,0.0
630,157.25,41.8287,44.1991,178.741,100.531,101.506,0.000759829,0.0470714,20.9476,47.6839,-0.073723,0.0,0.0
637,159,42.3041,43.6465,183.228,100.537,101.316,0.000641138,0.047032,20.9478,47.6839,-0.0589961,0.0,0.0
638,159.25,41.975,44.1342,183.054,100.533,101.312,0.00062335,0.0470408,20.9479,47.6739,-0.0590186,0.0,0.0

File: Feather_Pillow_Feathers_Cone_HF25Scan_230710_R2.csv
Names,Time,Stack TC,Smoke TC,Exh Press,Smoke Comp,Smoke Meas,CO Meter,CO2 Meter,O2 Meter,Sample Mass,Ext Coeff,Start Test,Flame Verif
Chan Gain,,500,500,1,1,1,1,1,1,1,1,1.0,1.0
Offset,,0,0,0.18266,0,0,0,0,0,0,0,0.0,0.0
Gain,,1,1,25.011,13.0208,54.2044,1,1,1,1.00092,0.871134,1.0,1.0
Units,sec,C,C,Pa,%,%,%,%,%,g,/m,,
Baseline,,40.6367,41.9149,182.836,99.2517,99.3091,0.000185634,0.0463922,20.9505,-446.097,-0.00432937,,
16,3.75,40.1185,41.3308,186.804,99.6965,98.5516,0.000310453,0.0486118,20.9501,50.1662,0.088264,0.0,0.0
32,7.75,40.5271,41.3539,183.567,99.6798,95.5989,0.000370638,0.0509263,20.9483,50.0261,0.319434,0.0,0.0
48,11.75,40.7673,42.0901,180.155,99.6472,94.9206,0.000360721,0.0544628,20.9442,49.916,0.37134,0.0,0.0
64,15.75,41.4763,42.8911,180.927,99.629,93.5758,0.000529861,0.0553377,20.9417,49.8259,0.47898,0.0,0.0
80,19.75,40.9052,42.5625,180.191,99.596,95.3077,0.00116013,0.058908,20.9382,49.7158,0.336311,0.0,0.0
96,23.75,41.2652,43.1273,180.8,99.5868,93.3971,0.00164981,0.060669,20.9342,49.5857,0.490352,0.0,0.0
112,27.75,41.5128,43.2864,183.572,99.5602,95.1406,0.00155605,0.0604323,20.9326,49.4455,0.346974,0.0,0.0
128,31.75,41.6228,44.0633,179.421,99.5491,92.6809,0.00164165,0.058738,20.934,49.3855,0.546284,0.0,0.0
144,35.75,41.2199,43.9194,184.029,99.5272,95.2713,0.00199064,0.0576648,20.938,49.3455,0.333953,0.0,0.0
160,39.75,41.7753,44.0317,178.365,99.5078,94.0423,0.00218902,0.0579468,20.9388,49.2854,0.431681,0.0,0.0
176,43.75,42.0168,43.7092,180.491,99.4891,96.0008,0.00235886,0.057994,20.939,49.2454,0.272735,0.0,0.0
192,47.75,42.1763,43.6406,178.261,99.4684,95.8189,0.00192659,0.057594,20.9413,49.1553,0.285645,0.0,0.0
208,51.75,42.2947,43.7649,180.704,99.4871,95.4599,0.00158627,0.0548518,20.9436,49.1052,0.315761,0.0,0.0
224,55.75,42.5783,43.2291,179.043,99.5956,96.4028,0.00125948,0.052255,20.947,49.0652,0.248982,0.0,0.0
240,59.75,42.187,44.2771,181.684,99.7136,97.6104,0.000987018,0.0516233,20.9476,49.0452,0.162906,0.0,0.0
256,63.75,42.6441,44.3433,178.54,99.7827,98.4441,0.00111768,0.0523744,20.9477,48.9951,0.103212,0.0,0.0
272,67.75,42.5138,44.6838,180.54,99.8503,97.6749,0.000955208,0.0522641,20.9468,48.9851,0.168325,0.0,0.0
288,71.75,42.4097,44.5314,182.742,99.9254,97.2315,0.000762258,0.0521407,20.9469,48.9751,0.208833,0.0,0.0
304,75.75,42.5266,44.5038,182.309,99.9623,97.617,0.000611531,0.0504215,20.9473,48.9351,0.181427,0.0,0.0
320,79.75,42.7407,44.1785,184.082,100.016,98.1198,0.000707212,0.0492996,20.9482,48.905,0.146263,0.0,0.0
336,83.75,42.5576,44.4846,176.985,100.072,99.0859,0.000759077,0.0484446,20.9484,48.875,0.0756749,0.0,0.0
352,87.75,42.2802,44.4461,179.326,100.099,98.0206,0.000996055,0.0480513,20.9489,48.815,0.160339,0.0,0.0
368,91.75,42.7826,44.515,179.124,100.119,98.1099,0.000802892,0.048272,20.949,48.7949,0.154864,0.0,0.0
384,95.75,42.6545,44.5738,180.082,100.159,96.636,0.00066166,0.0481525,20.9496,48.7549,0.273625,0.0,0.0
400,99.75,43.0626,44.6063,181.635,100.187,98.0421,0.000702079,0.0480294,20.9487,48.7649,0.165363,0.0,0.0
416,103.75,43.0203,44.6566,180.59,100.2,98.9188,0.000562272,0.0482191,20.9471,48.7349,0.0983652,0.0,0.0
432,107.75,42.841,44.9785,178.874,100.231,98.6376,0.000771008,0.0481644,20.9485,48.7049,0.122453,0.0,0.0
448,111.75,43.0563,45.0114,180.858,100.264,97.9164,0.000657039,0.0480164,20.9497,48.6648,0.181046,0.0,0.0
464,115.75,42.7607,44.6373,180.246,100.265,98.5466,0.000620816,0.0476276,20.951,48.6248,0.132109,0.0,0.0
480,119.75,42.9269,44.7061,175.874,100.284,98.6591,0.000695837,0.0476133,20.9514,48.6548,0.124815,0.0,0.0
496,123.75,43.3135,44.9889,183.012,100.273,99.7806,0.000547662,0.0472822,20.95,48.6648,0.0376202,0.0,0.0
512,127.75,42.8252,44.5377,186.513,100.257,99.7542,0.000334408,0.0472089,20.9492,48.6148,0.038436,0.0,0.0
528,131.75,42.6471,44.8504,179.897,100.26,99.0793,0.000483803,0.0471649,20.951,48.6148,0.0904933,0.0,0.0
544,135.75,42.7437,44.8086,180.319,100.249,99.1438,0.000551607,0.0469035,20.9513,48.5948,0.0847324,0.0,0.0
560,139.75,43.1757,44.9196,181.079,100.221,99.4101,0.000424516,0.0467235,20.9531,48.5747,0.0621126,0.0,0.0
576,143.75,43.1043,45.199,181.943,100.215,99.4515,0.000175589,0.0469347,20.9522,48.5547,0.0584189,0.0,0.0
592,147.75,43.2493,44.53,185.145,100.221,99.4167,0.000418751,0.0471156,20.952,48.5647,0.0615434,0.0,0.0
608,151.75,43.2144,44.682,178.686,100.229,99.2265,0.000806034,0.0470336,20.953,48.5247,0.0768149,0.0,0.0
624,155.75,42.7133,44.9939,179.695,100.215,99.7658,0.000726564,0.046877,20.9541,48.4646,0.0343073,0.0,0.0
640,159.75,42.8253,44.9312,186.591,100.188,99.4068,0.000849227,0.0467587,20.953,48.4747,0.059791,0.0,0.0
656,163.75,43.3736,45.0733,183.312,100.185,99.3423,0.000736284,0.046543,20.9511,48.4847,0.0645392,0.0,0.0
672,167.75,42.8309,44.3567,176.896,100.165,99.8485,0.000527536,0.0467027,20.9507,48.4847,0.0241863,0.0,0.0
688,171.75,43.6024,44.5032,183.236,100.14,98.9982,0.000277263,0.0471171,20.9501,48.4446,0.0875959,0.0,0.0
704,175.75,43.3321,44.8209,182.097,100.105,100.328,0.00027415,0.0471357,20.9498,48.4546,-0.0170176,0.0,0.0
720,179.75,42.9624,44.6429,181.953,100.059,101.015,0.000257203,0.0469915,20.9497,48.4346,-0.0726755,0.0,0.0
736,183.75,43.4132,44.6392,181.839,99.9826,98.2919,0.000271102,0.0470266,20.95,48.4146,0.130326,0.0,0.0
752,187.75,42.5865,44.6366,180.541,99.9278,98.8361,0.000350204,0.0473186,20.9502,48.4346,0.0839405,0.0,0.0
768,191.75,43.4551,44.8768,177.226,99.8237,98.6773,0.000459922,0.0472212,20.9511,48.4046,0.0882622,0.0,0.0
784,195.75,42.7992,44.2658,182.299,99.7478,99.1124,0.000413808,0.0467282,20.9512,48.3846,0.048834,0.0,0.0
800,199.75,43.0472,44.4846,181.791,99.7378,100.012,8.83536e-05,0.0464282,20.9513,48.4246,-0.0209946,0.0,0.0
816,203.75,43.224,44.4532,184.93,99.7402,100.57,1.80784e-05,0.0467428,20.9513,48.3746,-0.0632862,0.0,0.0
832,207.75,43.3079,44.8392,189.103,99.7831,99.822,0.000102257,0.0474316,20.9516,48.3746,-0.00297571,0.0,0.0
848,211.75,43.4484,44.6242,182.88,99.7565,99.6797,0.000127189,0.0483625,20.9502,48.4046,0.00588332,0.0,0.0
864,215.75,43.0582,45.0892,181.4,99.7502,99.7889,0.000118825,0.0481459,20.9504,48.4046,-0.00296842,0.0,0.0
880,219.75,43.0048,44.8675,178.879,99.7573,101.202,0.000127989,0.0478137,20.9522,48.4046,-0.109841,0.0,0.0
896,223.75,43.2863,45.1469,183.195,99.7541,101.59,0.000393753,0.0470314,20.9523,48.3545,-0.13938,0.0,0.0
912,227.75,43.2246,45.3767,178.964,99.7541,99.4581,0.000392957,0.046301,20.952,48.3445,0.0227124,0.0,0.0
928,231.75,42.9468,45.0432,181.257,99.7621,99.7194,0.000422312,0.0459947,20.9521,48.3345,0.00326594,0.0,0.0
944,235.75,43.2207,45.0603,183.697,99.7748,100.467,0.000230297,0.0458484,20.953,48.3445,-0.052842,0.0,0.0
960,239.75,43.0183,45.1891,182.061,99.768,100.206,3.90002e-05,0.0457395,20.9532,48.3445,-0.0334541,0.0,0.0
976,243.75,43.1867,45.043,180.383,99.8022,99.1173,0.000272587,0.0457239,20.9532,48.3645,0.0526211,0.0,0.0
992,247.75,43.2222,44.5971,180.458,99.8249,99.8832,0.00055676,0.0457647,20.9532,48.3445,-0.00446492,0.0,0.0
1008,251.75,42.4203,43.8928,178.907,99.8503,99.9411,0.000380475,0.0455483,20.9536,48.3145,-0.0069468,0.0,0.0
1024,255.75,42.2073,44.2191,180.493,99.8928,99.6516,6.03923e-05,0.0455815,20.9541,48.2945,0.0184725,0.0,0.0
1040,259.75,42.7624,44.4546,178.871,99.9047,100.249,0.000140127,0.0456284,20.9543,48.2945,-0.0262711,0.0,0.0
1056,263.75,43.0657,44.8728,180.443,99.9679,99.607,0.000271473,0.0455518,20.9533,48.3445,0.0276416,0.0,0.0
1072,267.75,42.3681,44.6878,182.178,99.9846,99.3026,0.00014362,0.0456163,20.9546,48.2945,0.0523026,0.0,0.0
1088,271.75,42.5587,44.4501,179.327,100.044,100.153,0.000178361,0.0456333,20.955,48.2945,-0.00829269,0.0,0.0
1104,275.75,42.288,44.5289,182.348,100.098,100.368,0.000403781,0.0456231,20.9555,48.2845,-0.0205867,0.0,0.0
1120,279.75,42.7409,44.4984,183.096,100.12,100.652,0.00033453,0.0455817,20.9554,48.2645,-0.04055,0.0,0.0
1136,283.75,43.1066,44.0758,181.221,100.21,100.082,0.000341483,0.0456302,20.9554,48.2745,0.0097818,0.0,0.0
1152,287.75,42.4634,44.5204,175.8,100.251,101.218,0.000143684,0.0458189,20.9559,48.2945,-0.0733478,0.0,0.0
1168,291.75,42.7622,44.0962,183.222,100.31,100.198,0.000201573,0.0456725,20.9543,48.2344,0.00854804,0.0,0.0
1184,295.75,42.649,44.1774,178.147,100.365,100.568,5.77817e-05,0.0457083,20.954,48.2645,-0.0154223,0.0,0.0
1200,299.75,42.8003,44.2693,181.549,100.421,100.034,0.000181219,0.045683,20.9526,48.2544,0.0295484,0.0,0.0
1216,303.75,42.4001,44.2097,182.724,100.475,99.8948,0.000349787,0.0456185,20.9523,48.2945,0.0442518,0.0,0.0
1232,307.75,42.541,44.0649,180.941,100.509,100.836,0.000202484,0.0454433,20.9522,48.2745,-0.024843,0.0,0.0
1248,311.75,42.7564,44.4608,183.258,100.538,100.647,0.000183205,0.0454491,20.9522,48.2544,-0.00830409,0.0,0.0
1264,315.75,42.843,44.315,185.785,100.564,100.778,0.000526049,0.0454027,20.9522,48.2745,-0.016226,0.0,0.0
1280,319.75,42.8003,44.2784,180.462,100.582,101.413,0.000634684,0.0453768,20.9526,48.2745,-0.0629119,0.0,0.0
1296,323.75,43.1952,44.5059,181.909,100.564,100.905,0.000342183,0.0451922,20.9537,48.2645,-0.0258776,0.0,0.0
1312,327.75,42.6778,44.6449,178.756,100.534,100.634,4.88269e-05,0.0452895,20.9527,48.2745,-0.00760103,0.0,0.0
1328,331.75,42.587,44.5906,180.449,100.5,99.9097,0.000172384,0.0451979,20.9525,48.2845,0.0450161,0.0,0.0
1344,335.75,42.5439,44.3457,182.409,100.473,101.551,0.000205628,0.0450917,20.9544,48.2645,-0.0815262,0.0,0.0
1360,339.75,42.7935,44.4568,180.837,100.461,100.457,0.000342843,0.0453137,20.9541,48.2745,0.000261436,0.0,0.0
1376,343.75,43.1868,44.5233,179.553,100.433,98.8841,0.000309117,0.0451214,20.953,48.2544,0.118756,0.0,0.0
1392,347.75,42.5347,44.499,180.426,100.37,99.7525,0.000126951,0.0450917,20.9529,48.2444,0.0471593,0.0,0.0
1408,351.75,42.3776,44.4893,179.247,100.329,100.325,0.00023723,0.0448687,20.9529,48.2845,0.000323377,0.0,0.0
1424,355.75,42.8066,44.5048,182.8,100.258,100.52,0.000264013,0.0451899,20.9533,48.2244,-0.0199195,0.0,0.0
1440,359.75,42.6301,44.0538,183.135,100.188,100.209,0.000342912,0.0453685,20.9547,48.2244,-0.00163395,0.0,0.0
1456,363.75,42.9101,44.5596,175.205,100.106,100.651,0.000129466,0.0454472,20.9551,48.2645,-0.0414558,0.0,0.0
1472,367.75,42.8821,44.3009,183.044,100.004,100.798,0.000121528,0.0455216,20.9553,48.2344,-0.0604241,0.0,0.0
1475,368.5,42.8884,44.2359,180.588,100.01,101.461,0.00012424,0.0455259,20.9555,48.2344,-0.110091,0.0,0.0