Folder: fsri_materials_database/01_Data/Pressure_Treated_Deck/FTIR/IS/Deprecated (part 2)

File: Pressure_Treated_Deck_IS_S_220926_R5.dpt
7497.03,0.76608
7473.89,0.75592
7450.74,0.75334
7427.6,0.74963
7404.45,0.74014
7381.31,0.73180
7358.16,0.73278
7335.02,0.73550
7311.87,0.72604
7288.73,0.72583
7265.58,0.72065
7242.44,0.72074
7219.29,0.71702
7196.15,0.71453
7173,0.70998
7149.86,0.70219
7126.71,0.69348
7103.57,0.67445
7080.42,0.65269
7057.28,0.63659
7034.13,0.61645
7010.99,0.60480
6987.84,0.59184
6964.7,0.58772
6941.55,0.58488
6918.41,0.57860
6895.26,0.57736
6872.12,0.57759
6848.97,0.57740
6825.83,0.57750
6802.68,0.57327
6779.54,0.58227
6756.39,0.57680
6733.25,0.58720
6710.1,0.58466
6686.96,0.58943
6663.82,0.59247
6640.67,0.59551
6617.53,0.59665
6594.38,0.59645
6571.24,0.59906
6548.09,0.60117
6524.95,0.60831
6501.8,0.60918
6478.66,0.61179
6455.51,0.61308
6432.37,0.61237
6409.22,0.61360
6386.08,0.61497
6362.93,0.62014
6339.79,0.62340
6316.64,0.62024
6293.5,0.62803
6270.35,0.62957
6247.21,0.63743
6224.06,0.64295
6200.92,0.65010
6177.77,0.65615
6154.63,0.65935
6131.48,0.66359
6108.34,0.66647
6085.19,0.66400
6062.05,0.66597
6038.9,0.66198
6015.76,0.65567
5992.61,0.64912
5969.47,0.64622
5946.32,0.65142
5923.18,0.64637
5900.03,0.64161
5876.89,0.64120
5853.74,0.63791
5830.6,0.63992
5807.45,0.63310
5784.31,0.63518
5761.16,0.63735
5738.02,0.63832
5714.87,0.63586
5691.73,0.63630
5668.58,0.63428
5645.44,0.63506
5622.29,0.63816
5599.15,0.63809
5576,0.63585
5552.86,0.63868
5529.71,0.64122
5506.57,0.64493
5483.42,0.64416
5460.28,0.64638
5437.13,0.65024
5413.99,0.65637
5390.84,0.65645
5367.7,0.65600
5344.55,0.65613
5321.41,0.64674
5298.26,0.62511
5275.12,0.58800
5251.97,0.54466
5228.83,0.51294
5205.68,0.49848
5182.54,0.49869
5159.39,0.50604
5136.25,0.51911
5113.1,0.53180
5089.96,0.54277
5066.81,0.55334
5043.67,0.56240
5020.52,0.56977
4997.38,0.57132
4974.23,0.56471
4951.09,0.55164
4927.94,0.53171
4904.8,0.51071
4881.65,0.49078
4858.51,0.47377
4835.36,0.45917
4812.22,0.44709
4789.07,0.44176
4765.93,0.43765
4742.78,0.43633
4719.64,0.43748
4696.49,0.44116
4673.35,0.44537
4650.2,0.45313
4627.06,0.46200
4603.92,0.47266
4580.77,0.48265
4557.63,0.48915
4534.48,0.49301
4511.34,0.49413
4488.19,0.48556
4465.05,0.46411
4441.9,0.43835
4418.76,0.41077
4395.61,0.39750
4372.47,0.40369
4349.32,0.40743
4326.18,0.40231
4303.03,0.39324
4279.89,0.38603
4256.74,0.38989
4233.6,0.39289
4210.45,0.39297
4187.31,0.39621
4164.16,0.40029
4141.02,0.39547
4117.87,0.38264
4094.73,0.36387
4071.58,0.34110
4048.44,0.32072
4025.29,0.30687
4002.15,0.30517
3979,0.31010
3955.86,0.31876
3932.71,0.32961
3909.57,0.33996
3886.42,0.34912
3863.28,0.35825
3840.13,0.36952
3816.99,0.37095
3793.84,0.37050
3770.7,0.36775
3747.55,0.35924
3724.41,0.34221
3701.26,0.31275
3678.12,0.25427
3654.97,0.17712
3631.83,0.12777
3608.68,0.09553
3585.54,0.07533
3562.39,0.06182
3539.25,0.05373
3516.1,0.04850
3492.96,0.04485
3469.81,0.04255
3446.67,0.04170
3423.52,0.04102
3400.38,0.04081
3377.23,0.04079
3354.09,0.04198
3330.94,0.04424
3307.8,0.04657
3284.65,0.04841
3261.51,0.05215
3238.36,0.05643
3215.22,0.06087
3192.07,0.06693
3168.93,0.07192
3145.78,0.07866
3122.64,0.08487
3099.49,0.09135
3076.35,0.09654
3053.2,0.10216
3030.06,0.10604
3006.91,0.10202
2983.77,0.09254
2960.62,0.07416
2937.48,0.06533
2914.33,0.06511
2891.19,0.06754
2868.04,0.07260
2844.9,0.08502
2821.75,0.10616
2798.61,0.12175
2775.46,0.12885
2752.32,0.13265
2729.17,0.13489
2706.03,0.14212
2682.88,0.14987
2659.74,0.15538
2636.59,0.16066
2613.45,0.16677
2590.3,0.17206
2567.16,0.17667
2544.02,0.17840
2520.87,0.18320
2497.73,0.19186
2474.58,0.20119
2451.44,0.20973
2428.29,0.21926
2405.15,0.23013
2382,0.24024
2358.86,0.24815
2335.71,0.25383
2312.57,0.25683
2289.42,0.25683
2266.28,0.25444
2243.13,0.25067
2219.99,0.24921
2196.84,0.24609
2173.7,0.23477
2150.55,0.22643
2127.41,0.22388
2104.26,0.22702
2081.12,0.22718
2057.97,0.22338
2034.83,0.22827
2011.68,0.23862
1988.54,0.24509
1965.39,0.24989
1942.25,0.25784
1919.1,0.26167
1895.96,0.26013
1872.81,0.25697
1849.67,0.25037
1826.52,0.23324
1803.38,0.19199
1780.23,0.13602
1757.09,0.08062
1733.94,0.06253
1710.8,0.06944
1687.65,0.07022
1664.51,0.06393
1641.36,0.06429
1618.22,0.06258
1595.07,0.05895
1571.93,0.08176
1548.78,0.09261
1525.64,0.06932
1502.49,0.05619
1479.35,0.06110
1456.2,0.04835
1433.06,0.04605
1409.91,0.05053
1386.77,0.04832
1363.62,0.04689
1340.48,0.04711
1317.33,0.04573
1294.19,0.04563
1271.04,0.04221
1247.9,0.04573
1224.75,0.04595
1201.61,0.04675
1178.46,0.04040
1155.32,0.04177
1132.17,0.03698
1109.03,0.03965
1085.88,0.03954
1062.74,0.05182
1039.59,0.05566
1016.45,0.06536
993.304,0.07158
970.159,0.08645
947.014,0.09981
923.869,0.10352
900.724,0.08935
877.579,0.09408
854.434,0.10028
831.289,0.09756
808.144,0.08537
784.999,0.08460
761.854,0.08019
738.709,0.07385
715.565,0.06764
692.42,0.06375
669.275,0.05778
646.13,0.05931
622.985,0.05609
599.84,0.05838

File: Pressure_Treated_Deck_IS_S_220926_R6.dpt
7497.03,0.77272
7473.89,0.76084
7450.74,0.75491
7427.6,0.75047
7404.45,0.74558
7381.31,0.74594
7358.16,0.73727
7335.02,0.73326
7311.87,0.73123
7288.73,0.72065
7265.58,0.72598
7242.44,0.71966
7219.29,0.72023
7196.15,0.71607
7173,0.70685
7149.86,0.70184
7126.71,0.69050
7103.57,0.67495
7080.42,0.65334
7057.28,0.64282
7034.13,0.61952
7010.99,0.60394
6987.84,0.59382
6964.7,0.58997
6941.55,0.58527
6918.41,0.58226
6895.26,0.57957
6872.12,0.58130
6848.97,0.57889
6825.83,0.57798
6802.68,0.58124
6779.54,0.57753
6756.39,0.58265
6733.25,0.58303
6710.1,0.58204
6686.96,0.58656
6663.82,0.59142
6640.67,0.59492
6617.53,0.59495
6594.38,0.60145
6571.24,0.60205
6548.09,0.60578
6524.95,0.60693
6501.8,0.60771
6478.66,0.60922
6455.51,0.61532
6432.37,0.61145
6409.22,0.62064
6386.08,0.61888
6362.93,0.61973
6339.79,0.62173
6316.64,0.62607
6293.5,0.62694
6270.35,0.63043
6247.21,0.63868
6224.06,0.64436
6200.92,0.65137
6177.77,0.65666
6154.63,0.65936
6131.48,0.66545
6108.34,0.66863
6085.19,0.66887
6062.05,0.67064
6038.9,0.66410
6015.76,0.65621
5992.61,0.64907
5969.47,0.64733
5946.32,0.65026
5923.18,0.64916
5900.03,0.64446
5876.89,0.64366
5853.74,0.64250
5830.6,0.64052
5807.45,0.63519
5784.31,0.63406
5761.16,0.63833
5738.02,0.63946
5714.87,0.64012
5691.73,0.63886
5668.58,0.63715
5645.44,0.63693
5622.29,0.63550
5599.15,0.63805
5576,0.63730
5552.86,0.63880
5529.71,0.64196
5506.57,0.64204
5483.42,0.64518
5460.28,0.64818
5437.13,0.65078
5413.99,0.65545
5390.84,0.65902
5367.7,0.65838
5344.55,0.65498
5321.41,0.64796
5298.26,0.62624
5275.12,0.58946
5251.97,0.54574
5228.83,0.51487
5205.68,0.50264
5182.54,0.50327
5159.39,0.50787
5136.25,0.52244
5113.1,0.53434
5089.96,0.54647
5066.81,0.55528
5043.67,0.56517
5020.52,0.57176
4997.38,0.57215
4974.23,0.56643
4951.09,0.55219
4927.94,0.53358
4904.8,0.51255
4881.65,0.49218
4858.51,0.47380
4835.36,0.45947
4812.22,0.44798
4789.07,0.44075
4765.93,0.43783
4742.78,0.43583
4719.64,0.43902
4696.49,0.44193
4673.35,0.44516
4650.2,0.45391
4627.06,0.46294
4603.92,0.47382
4580.77,0.48388
4557.63,0.49078
4534.48,0.49401
4511.34,0.49562
4488.19,0.48706
4465.05,0.46549
4441.9,0.43877
4418.76,0.41070
4395.61,0.39715
4372.47,0.40356
4349.32,0.40715
4326.18,0.40203
4303.03,0.39274
4279.89,0.38704
4256.74,0.39008
4233.6,0.39302
4210.45,0.39397
4187.31,0.39570
4164.16,0.39999
4141.02,0.39652
4117.87,0.38274
4094.73,0.36373
4071.58,0.34227
4048.44,0.32149
4025.29,0.30713
4002.15,0.30595
3979,0.31058
3955.86,0.31952
3932.71,0.33036
3909.57,0.34053
3886.42,0.35053
3863.28,0.35969
3840.13,0.37008
3816.99,0.37187
3793.84,0.37106
3770.7,0.36844
3747.55,0.36028
3724.41,0.34424
3701.26,0.31451
3678.12,0.25690
3654.97,0.17944
3631.83,0.12888
3608.68,0.09640
3585.54,0.07490
3562.39,0.06204
3539.25,0.05355
3516.1,0.04848
3492.96,0.04498
3469.81,0.04247
3446.67,0.04107
3423.52,0.04080
3400.38,0.04080
3377.23,0.04095
3354.09,0.04268
3330.94,0.04448
3307.8,0.04643
3284.65,0.04856
3261.51,0.05220
3238.36,0.05680
3215.22,0.06143
3192.07,0.06676
3168.93,0.07262
3145.78,0.07898
3122.64,0.08574
3099.49,0.09170
3076.35,0.09697
3053.2,0.10294
3030.06,0.10677
3006.91,0.10276
2983.77,0.09203
2960.62,0.07492
2937.48,0.06521
2914.33,0.06507
2891.19,0.06742
2868.04,0.07246
2844.9,0.08426
2821.75,0.10586
2798.61,0.12197
2775.46,0.12932
2752.32,0.13266
2729.17,0.13546
2706.03,0.14261
2682.88,0.15064
2659.74,0.15567
2636.59,0.16079
2613.45,0.16706
2590.3,0.17293
2567.16,0.17643
2544.02,0.17848
2520.87,0.18364
2497.73,0.19199
2474.58,0.20132
2451.44,0.20942
2428.29,0.21952
2405.15,0.23076
2382,0.24027
2358.86,0.24929
2335.71,0.25439
2312.57,0.25728
2289.42,0.25726
2266.28,0.25515
2243.13,0.25126
2219.99,0.25009
2196.84,0.24636
2173.7,0.23585
2150.55,0.22722
2127.41,0.22450
2104.26,0.22797
2081.12,0.22832
2057.97,0.22413
2034.83,0.22885
2011.68,0.23958
1988.54,0.24588
1965.39,0.25110
1942.25,0.25855
1919.1,0.26283
1895.96,0.26098
1872.81,0.25790
1849.67,0.25109
1826.52,0.23411
1803.38,0.19170
1780.23,0.13609
1757.09,0.08068
1733.94,0.06242
1710.8,0.06982
1687.65,0.07067
1664.51,0.06377
1641.36,0.06487
1618.22,0.06248
1595.07,0.05962
1571.93,0.08173
1548.78,0.09317
1525.64,0.06939
1502.49,0.05612
1479.35,0.06102
1456.2,0.04907
1433.06,0.04599
1409.91,0.05094
1386.77,0.04811
1363.62,0.04711
1340.48,0.04769
1317.33,0.04582
1294.19,0.04543
1271.04,0.04254
1247.9,0.04594
1224.75,0.04638
1201.61,0.04694
1178.46,0.04050
1155.32,0.04119
1132.17,0.03688
1109.03,0.03828
1085.88,0.03931
1062.74,0.05192
1039.59,0.05596
1016.45,0.06565
993.304,0.07179
970.159,0.08662
947.014,0.09903
923.869,0.10357
900.724,0.08945
877.579,0.09404
854.434,0.10001
831.289,0.09800
808.144,0.08637
784.999,0.08557
761.854,0.08061
738.709,0.07466
715.565,0.06706
692.42,0.06471
669.275,0.05784
646.13,0.05970
622.985,0.05565
599.84,0.05962

File: Pressure_Treated_Deck_IS_S_220926_R7.dpt
7497.03,0.76548
7473.89,0.76093
7450.74,0.75277
7427.6,0.74256
7404.45,0.74164
7381.31,0.74209
7358.16,0.73378
7335.02,0.72408
7311.87,0.72432
7288.73,0.71378
7265.58,0.71927
7242.44,0.72375
7219.29,0.71736
7196.15,0.71744
7173,0.71060
7149.86,0.70318
7126.71,0.68456
7103.57,0.68177
7080.42,0.65699
7057.28,0.63910
7034.13,0.62105
7010.99,0.60368
6987.84,0.59118
6964.7,0.58665
6941.55,0.58298
6918.41,0.57905
6895.26,0.58178
6872.12,0.58256
6848.97,0.57698
6825.83,0.57416
6802.68,0.57876
6779.54,0.57847
6756.39,0.58190
6733.25,0.58186
6710.1,0.58261
6686.96,0.58704
6663.82,0.58904
6640.67,0.59080
6617.53,0.59695
6594.38,0.59841
6571.24,0.60664
6548.09,0.60487
6524.95,0.60948
6501.8,0.61168
6478.66,0.61068
6455.51,0.60868
6432.37,0.61435
6409.22,0.61493
6386.08,0.61519
6362.93,0.62238
6339.79,0.62293
6316.64,0.62206
6293.5,0.62776
6270.35,0.62917
6247.21,0.63838
6224.06,0.64124
6200.92,0.64949
6177.77,0.65693
6154.63,0.65977
6131.48,0.66862
6108.34,0.66527
6085.19,0.66883
6062.05,0.66539
6038.9,0.66021
6015.76,0.65385
5992.61,0.65013
5969.47,0.64752
5946.32,0.64930
5923.18,0.64869
5900.03,0.64491
5876.89,0.64099
5853.74,0.64128
5830.6,0.63998
5807.45,0.63457
5784.31,0.63780
5761.16,0.63781
5738.02,0.63730
5714.87,0.63857
5691.73,0.63615
5668.58,0.63832
5645.44,0.63699
5622.29,0.63787
5599.15,0.63871
5576,0.63775
5552.86,0.63950
5529.71,0.64152
5506.57,0.64161
5483.42,0.64664
5460.28,0.64710
5437.13,0.65197
5413.99,0.65585
5390.84,0.65885
5367.7,0.65814
5344.55,0.65675
5321.41,0.64830
5298.26,0.62787
5275.12,0.59138
5251.97,0.54906
5228.83,0.51714
5205.68,0.50426
5182.54,0.50390
5159.39,0.51290
5136.25,0.52332
5113.1,0.53633
5089.96,0.54769
5066.81,0.55844
5043.67,0.56682
5020.52,0.57340
4997.38,0.57533
4974.23,0.56813
4951.09,0.55372
4927.94,0.53330
4904.8,0.51153
4881.65,0.49211
4858.51,0.47355
4835.36,0.45869
4812.22,0.44760
4789.07,0.44161
4765.93,0.43773
4742.78,0.43719
4719.64,0.43843
4696.49,0.44309
4673.35,0.44632
4650.2,0.45316
4627.06,0.46252
4603.92,0.47445
4580.77,0.48348
4557.63,0.49017
4534.48,0.49396
4511.34,0.49587
4488.19,0.48598
4465.05,0.46547
4441.9,0.43875
4418.76,0.41045
4395.61,0.39820
4372.47,0.40390
4349.32,0.40743
4326.18,0.40277
4303.03,0.39343
4279.89,0.38709
4256.74,0.39038
4233.6,0.39408
4210.45,0.39412
4187.31,0.39622
4164.16,0.40070
4141.02,0.39617
4117.87,0.38299
4094.73,0.36408
4071.58,0.34263
4048.44,0.32173
4025.29,0.30776
4002.15,0.30613
3979,0.31143
3955.86,0.31986
3932.71,0.33113
3909.57,0.34164
3886.42,0.35060
3863.28,0.36023
3840.13,0.36972
3816.99,0.37291
3793.84,0.37223
3770.7,0.36867
3747.55,0.36106
3724.41,0.34593
3701.26,0.31522
3678.12,0.25772
3654.97,0.18067
3631.83,0.13078
3608.68,0.09717
3585.54,0.07564
3562.39,0.06263
3539.25,0.05397
3516.1,0.04889
3492.96,0.04469
3469.81,0.04208
3446.67,0.04141
3423.52,0.04095
3400.38,0.04077
3377.23,0.04157
3354.09,0.04182
3330.94,0.04422
3307.8,0.04600
3284.65,0.04795
3261.51,0.05217
3238.36,0.05683
3215.22,0.06211
3192.07,0.06699
3168.93,0.07288
3145.78,0.07957
3122.64,0.08544
3099.49,0.09175
3076.35,0.09700
3053.2,0.10308
3030.06,0.10703
3006.91,0.10254
2983.77,0.09243
2960.62,0.07441
2937.48,0.06524
2914.33,0.06507
2891.19,0.06810
2868.04,0.07268
2844.9,0.08497
2821.75,0.10637
2798.61,0.12235
2775.46,0.12952
2752.32,0.13346
2729.17,0.13580
2706.03,0.14281
2682.88,0.15042
2659.74,0.15624
2636.59,0.16083
2613.45,0.16753
2590.3,0.17293
2567.16,0.17670
2544.02,0.17880
2520.87,0.18364
2497.73,0.19273
2474.58,0.20153
2451.44,0.21025
2428.29,0.22017
2405.15,0.23064
2382,0.24034
2358.86,0.24934
2335.71,0.25531
2312.57,0.25822
2289.42,0.25758
2266.28,0.25555
2243.13,0.25195
2219.99,0.25038
2196.84,0.24741
2173.7,0.23655
2150.55,0.22781
2127.41,0.22499
2104.26,0.22856
2081.12,0.22929
2057.97,0.22496
2034.83,0.22952
2011.68,0.24014
1988.54,0.24668
1965.39,0.25185
1942.25,0.25936
1919.1,0.26338
1895.96,0.26157
1872.81,0.25854
1849.67,0.25152
1826.52,0.23454
1803.38,0.19213
1780.23,0.13599
1757.09,0.08057
1733.94,0.06244
1710.8,0.06948
1687.65,0.07088
1664.51,0.06421
1641.36,0.06487
1618.22,0.06305
1595.07,0.05963
1571.93,0.08179
1548.78,0.09371
1525.64,0.06939
1502.49,0.05602
1479.35,0.06127
1456.2,0.04853
1433.06,0.04588
1409.91,0.05094
1386.77,0.04848
1363.62,0.04704
1340.48,0.04738
1317.33,0.04617
1294.19,0.04542
1271.04,0.04239
1247.9,0.04497
1224.75,0.04634
1201.61,0.04696
1178.46,0.04045
1155.32,0.04173
1132.17,0.03709
1109.03,0.03878
1085.88,0.03917
1062.74,0.05195
1039.59,0.05543
1016.45,0.06557
993.304,0.07225
970.159,0.08703
947.014,0.09954
923.869,0.10410
900.724,0.08989
877.579,0.09468
854.434,0.10008
831.289,0.09838
808.144,0.08649
784.999,0.08675
761.854,0.08094
738.709,0.07480
715.565,0.06694
692.42,0.06382
669.275,0.05834
646.13,0.05867
622.985,0.05661
599.84,0.05831

File: Pressure_Treated_Deck_IS_S_220926_R8.dpt
7497.03,0.76602
7473.89,0.76119
7450.74,0.75279
7427.6,0.74519
7404.45,0.73907
7381.31,0.74387
7358.16,0.73213
7335.02,0.72346
7311.87,0.72629
7288.73,0.71921
7265.58,0.72374
7242.44,0.72480
7219.29,0.72437
7196.15,0.71761
7173,0.71604
7149.86,0.70788
7126.71,0.68724
7103.57,0.67675
7080.42,0.65987
7057.28,0.64451
7034.13,0.62149
7010.99,0.60800
6987.84,0.59654
6964.7,0.58452
6941.55,0.58231
6918.41,0.58650
6895.26,0.58134
6872.12,0.58426
6848.97,0.58485
6825.83,0.57738
6802.68,0.57780
6779.54,0.58256
6756.39,0.58398
6733.25,0.58034
6710.1,0.58288
6686.96,0.58646
6663.82,0.59436
6640.67,0.59333
6617.53,0.59144
6594.38,0.60200
6571.24,0.60231
6548.09,0.61060
6524.95,0.61066
6501.8,0.61028
6478.66,0.61465
6455.51,0.61452
6432.37,0.61571
6409.22,0.61876
6386.08,0.61789
6362.93,0.61984
6339.79,0.62091
6316.64,0.62255
6293.5,0.62694
6270.35,0.63309
6247.21,0.63745
6224.06,0.64300
6200.92,0.65080
6177.77,0.65685
6154.63,0.66410
6131.48,0.66306
6108.34,0.66671
6085.19,0.67180
6062.05,0.67153
6038.9,0.66334
6015.76,0.65675
5992.61,0.64807
5969.47,0.64868
5946.32,0.65159
5923.18,0.64934
5900.03,0.64717
5876.89,0.64285
5853.74,0.64450
5830.6,0.63929
5807.45,0.63662
5784.31,0.63556
5761.16,0.64088
5738.02,0.63924
5714.87,0.64031
5691.73,0.64098
5668.58,0.64050
5645.44,0.63872
5622.29,0.63830
5599.15,0.63686
5576,0.63956
5552.86,0.64157
5529.71,0.64317
5506.57,0.64551
5483.42,0.64798
5460.28,0.65045
5437.13,0.65500
5413.99,0.65837
5390.84,0.66065
5367.7,0.66043
5344.55,0.66079
5321.41,0.64985
5298.26,0.62913
5275.12,0.59370
5251.97,0.55207
5228.83,0.52062
5205.68,0.50700
5182.54,0.50701
5159.39,0.51452
5136.25,0.52745
5113.1,0.53950
5089.96,0.55145
5066.81,0.56163
5043.67,0.56924
5020.52,0.57567
4997.38,0.57613
4974.23,0.56953
4951.09,0.55428
4927.94,0.53475
4904.8,0.51355
4881.65,0.49331
4858.51,0.47462
4835.36,0.45917
4812.22,0.44899
4789.07,0.44246
4765.93,0.43884
4742.78,0.43744
4719.64,0.44013
4696.49,0.44244
4673.35,0.44771
4650.2,0.45545
4627.06,0.46429
4603.92,0.47474
4580.77,0.48458
4557.63,0.49093
4534.48,0.49499
4511.34,0.49692
4488.19,0.48830
4465.05,0.46746
4441.9,0.43930
4418.76,0.41252
4395.61,0.39841
4372.47,0.40466
4349.32,0.40882
4326.18,0.40349
4303.03,0.39428
4279.89,0.38754
4256.74,0.39194
4233.6,0.39449
4210.45,0.39512
4187.31,0.39674
4164.16,0.40172
4141.02,0.39706
4117.87,0.38417
4094.73,0.36540
4071.58,0.34317
4048.44,0.32174
4025.29,0.30871
4002.15,0.30629
3979,0.31202
3955.86,0.32060
3932.71,0.33211
3909.57,0.34261
3886.42,0.35203
3863.28,0.36069
3840.13,0.37157
3816.99,0.37438
3793.84,0.37311
3770.7,0.37058
3747.55,0.36334
3724.41,0.34759
3701.26,0.31697
3678.12,0.26001
3654.97,0.18302
3631.83,0.13136
3608.68,0.09853
3585.54,0.07624
3562.39,0.06275
3539.25,0.05408
3516.1,0.04843
3492.96,0.04497
3469.81,0.04291
3446.67,0.04151
3423.52,0.04116
3400.38,0.04103
3377.23,0.04099
3354.09,0.04285
3330.94,0.04445
3307.8,0.04629
3284.65,0.04828
3261.51,0.05244
3238.36,0.05733
3215.22,0.06186
3192.07,0.06761
3168.93,0.07367
3145.78,0.07973
3122.64,0.08574
3099.49,0.09245
3076.35,0.09764
3053.2,0.10354
3030.06,0.10731
3006.91,0.10356
2983.77,0.09255
2960.62,0.07412
2937.48,0.06574
2914.33,0.06477
2891.19,0.06806
2868.04,0.07317
2844.9,0.08491
2821.75,0.10684
2798.61,0.12250
2775.46,0.13037
2752.32,0.13377
2729.17,0.13614
2706.03,0.14343
2682.88,0.15109
2659.74,0.15632
2636.59,0.16182
2613.45,0.16768
2590.3,0.17363
2567.16,0.17755
2544.02,0.17949
2520.87,0.18420
2497.73,0.19336
2474.58,0.20216
2451.44,0.21106
2428.29,0.22041
2405.15,0.23136
2382,0.24115
2358.86,0.24991
2335.71,0.25636
2312.57,0.25894
2289.42,0.25847
2266.28,0.25686
2243.13,0.25309
2219.99,0.25201
2196.84,0.24822
2173.7,0.23759
2150.55,0.22887
2127.41,0.22561
2104.26,0.22956
2081.12,0.22991
2057.97,0.22588
2034.83,0.23030
2011.68,0.24102
1988.54,0.24757
1965.39,0.25241
1942.25,0.26025
1919.1,0.26409
1895.96,0.26254
1872.81,0.25972
1849.67,0.25251
1826.52,0.23464
1803.38,0.19307
1780.23,0.13648
1757.09,0.08036
1733.94,0.06289
1710.8,0.06970
1687.65,0.07116
1664.51,0.06424
1641.36,0.06506
1618.22,0.06319
1595.07,0.05972
1571.93,0.08222
1548.78,0.09379
1525.64,0.06984
1502.49,0.05589
1479.35,0.06118
1456.2,0.04868
1433.06,0.04593
1409.91,0.05085
1386.77,0.04825
1363.62,0.04662
1340.48,0.04742
1317.33,0.04587
1294.19,0.04588
1271.04,0.04207
1247.9,0.04558
1224.75,0.04640
1201.61,0.04660
1178.46,0.04039
1155.32,0.04122
1132.17,0.03737
1109.03,0.03931
1085.88,0.03923
1062.74,0.05106
1039.59,0.05554
1016.45,0.06560
993.304,0.07193
970.159,0.08695
947.014,0.09935
923.869,0.10498
900.724,0.09029
877.579,0.09523
854.434,0.09994
831.289,0.09836
808.144,0.08720
784.999,0.08608
761.854,0.08157
738.709,0.07528
715.565,0.06841
692.42,0.06545
669.275,0.05815
646.13,0.05853
622.985,0.05514
599.84,0.06252

File: Pressure_Treated_Deck_IS_T_220926_R7.dpt
7497.03,0.02270
7473.89,0.01988
7450.74,0.02498
7427.6,0.01706
7404.45,0.02334
7381.31,0.03161
7358.16,0.02616
7335.02,0.02517
7311.87,0.02369
7288.73,0.02861
7265.58,0.03415
7242.44,0.02548
7219.29,0.03214
7196.15,0.01947
7173,0.01993
7149.86,0.02592
7126.71,0.02695
7103.57,0.02248
7080.42,0.01920
7057.28,0.02596
7034.13,0.02261
7010.99,0.02288
6987.84,0.02416
6964.7,0.01707
6941.55,0.02465
6918.41,0.01928
6895.26,0.03007
6872.12,0.02048
6848.97,0.02776
6825.83,0.02124
6802.68,0.02308
6779.54,0.02545
6756.39,0.02678
6733.25,0.02055
6710.1,0.01839
6686.96,0.02135
6663.82,0.02976
6640.67,0.02174
6617.53,0.01831
6594.38,0.02519
6571.24,0.02246
6548.09,0.02463
6524.95,0.02170
6501.8,0.02659
6478.66,0.02312
6455.51,0.01766
6432.37,0.02324
6409.22,0.02455
6386.08,0.02264
6362.93,0.01983
6339.79,0.01995
6316.64,0.02084
6293.5,0.02130
6270.35,0.02494
6247.21,0.02203
6224.06,0.02165
6200.92,0.02193
6177.77,0.02429
6154.63,0.02176
6131.48,0.02426
6108.34,0.02087
6085.19,0.02300
6062.05,0.02209
6038.9,0.02206
6015.76,0.02175
5992.61,0.01961
5969.47,0.02225
5946.32,0.02218
5923.18,0.02425
5900.03,0.02174
5876.89,0.02204
5853.74,0.02384
5830.6,0.02084
5807.45,0.02111
5784.31,0.02263
5761.16,0.02291
5738.02,0.02216
5714.87,0.02088
5691.73,0.02152
5668.58,0.02498
5645.44,0.02295
5622.29,0.02198
5599.15,0.02518
5576,0.02271
5552.86,0.02222
5529.71,0.02134
5506.57,0.02220
5483.42,0.02172
5460.28,0.02220
5437.13,0.02118
5413.99,0.02292
5390.84,0.02076
5367.7,0.02341
5344.55,0.02331
5321.41,0.02194
5298.26,0.02220
5275.12,0.02349
5251.97,0.02291
5228.83,0.02218
5205.68,0.02169
5182.54,0.02259
5159.39,0.02295
5136.25,0.02230
5113.1,0.02397
5089.96,0.02308
5066.81,0.02295
5043.67,0.02279
5020.52,0.02310
4997.38,0.02316
4974.23,0.02301
4951.09,0.02200
4927.94,0.02256
4904.8,0.02205
4881.65,0.02138
4858.51,0.02238
4835.36,0.02370
4812.22,0.02319
4789.07,0.02218
4765.93,0.02244
4742.78,0.02318
4719.64,0.02302
4696.49,0.02248
4673.35,0.02232
4650.2,0.02302
4627.06,0.02336
4603.92,0.02287
4580.77,0.02294
4557.63,0.02336
4534.48,0.02191
4511.34,0.02283
4488.19,0.02355
4465.05,0.02330
4441.9,0.02349
4418.76,0.02363
4395.61,0.02292
4372.47,0.02293
4349.32,0.02316
4326.18,0.02314
4303.03,0.02269
4279.89,0.02331
4256.74,0.02301
4233.6,0.02352
4210.45,0.02371
4187.31,0.02310
4164.16,0.02249
4141.02,0.02293
4117.87,0.02316
4094.73,0.02312
4071.58,0.02252
4048.44,0.02290
4025.29,0.02285
4002.15,0.02357
3979,0.02351
3955.86,0.02374
3932.71,0.02307
3909.57,0.02300
3886.42,0.02355
3863.28,0.02279
3840.13,0.02307
3816.99,0.02349
3793.84,0.02275
3770.7,0.02358
3747.55,0.02325
3724.41,0.02292
3701.26,0.02326
3678.12,0.02294
3654.97,0.02350
3631.83,0.02266
3608.68,0.02261
3585.54,0.02229
3562.39,0.02257
3539.25,0.02175
3516.1,0.02193
3492.96,0.02174
3469.81,0.02120
3446.67,0.02153
3423.52,0.02106
3400.38,0.02150
3377.23,0.02083
3354.09,0.02088
3330.94,0.02084
3307.8,0.02137
3284.65,0.02042
3261.51,0.02072
3238.36,0.02148
3215.22,0.02142
3192.07,0.02182
3168.93,0.02123
3145.78,0.02091
3122.64,0.02147
3099.49,0.02147
3076.35,0.02183
3053.2,0.02151
3030.06,0.02096
3006.91,0.02088
2983.77,0.02090
2960.62,0.02040
2937.48,0.01999
2914.33,0.02043
2891.19,0.02110
2868.04,0.02110
2844.9,0.02167
2821.75,0.02209
2798.61,0.02228
2775.46,0.02156
2752.32,0.02152
2729.17,0.02206
2706.03,0.02190
2682.88,0.02196
2659.74,0.02265
2636.59,0.02259
2613.45,0.02151
2590.3,0.02181
2567.16,0.02173
2544.02,0.02196
2520.87,0.02177
2497.73,0.02167
2474.58,0.02230
2451.44,0.02162
2428.29,0.02171
2405.15,0.02181
2382,0.02200
2358.86,0.02205
2335.71,0.02187
2312.57,0.02174
2289.42,0.02165
2266.28,0.02191
2243.13,0.02170
2219.99,0.02168
2196.84,0.02170
2173.7,0.02174
2150.55,0.02175
2127.41,0.02168
2104.26,0.02167
2081.12,0.02180
2057.97,0.02140
2034.83,0.02136
2011.68,0.02125
1988.54,0.02142
1965.39,0.02162
1942.25,0.02132
1919.1,0.02143
1895.96,0.02129
1872.81,0.02098
1849.67,0.02086
1826.52,0.02082
1803.38,0.02038
1780.23,0.01971
1757.09,0.01833
1733.94,0.01997
1710.8,0.02086
1687.65,0.01995
1664.51,0.01909
1641.36,0.01879
1618.22,0.01922
1595.07,0.01946
1571.93,0.01923
1548.78,0.01888
1525.64,0.01923
1502.49,0.01933
1479.35,0.01937
1456.2,0.01912
1433.06,0.01889
1409.91,0.01882
1386.77,0.01846
1363.62,0.01858
1340.48,0.01836
1317.33,0.01752
1294.19,0.01808
1271.04,0.02002
1247.9,0.02065
1224.75,0.01978
1201.61,0.01936
1178.46,0.01847
1155.32,0.01839
1132.17,0.01852
1109.03,0.01913
1085.88,0.01931
1062.74,0.01956
1039.59,0.01991
1016.45,0.01990
993.304,0.02195
970.159,0.02047
947.014,0.02048
923.869,0.01981
900.724,0.01928
877.579,0.01927
854.434,0.01890
831.289,0.01936
808.144,0.01969
784.999,0.01834
761.854,0.01808
738.709,0.01864
715.565,0.01900
692.42,0.01813
669.275,0.01713
646.13,0.01631
622.985,0.01506
599.84,0.01707