Folder: fsri_materials_database/01_Data/Pressure_Treated_Deck/FTIR/IS/Deprecated

Note: README.md
# Materials and Products Database
### Repository of materials and products properties and fire test data to improve fire modeling and fire investigation.

This project was supported in part by Award No. 2019-DU-BX-0018, awarded by the National Institute of Justice, Office of Justice Programs, U.S. Department of Justice. The opinions, findings, and conclusions or recommendations expressed in this publication / program / exhibition are those of the author(s) and do not necessarily reflect those of the Department of Justice.

***
***

__Cite this database:__ "McKinnon, M., Weinschenk, C., Dow, N., DiDomizio, M., and Madrzykowski, D. Materials and Products Database (Version 1.0.0), Fire Safety Research Institute, UL Research Institutes. Columbia, MD 21045, 2023."

__Cite the Technical Reference Guide:__ "McKinnon, M., Weinschenk, C., and Madrzykowski, D. Materials and Products Database - Technical Reference Guide, Fire Safety Research Institute, UL Research Institutes. Columbia, MD 21045, 2023."

__Cite the User Guide:__ "McKinnon, M., and Weinschenk, C. Materials and Products Database - User Guide, Fire Safety Research Institute, UL Research Institutes. Columbia, MD 21045, 2023."

***
***

## Database Structure

## 01_Data/
Raw data generated from each apparatus are included here in plain-text format. The data is organized first by material, next by the short name of test apparatus used, and where applicable additional filtering by test settings.

### Test Apparatus and Data File Structure
- __Cone Calorimeter__ (Cone)
    + Data file structure includes the material, the short name for the apparatus, heat flux setting and scan/scalar, date of test, and replicate number. Scan is for the raw output data and scalar is for the initial conditions and high-level test parameters. 
        * Example: __MDF_Cone_HF25scalar_210323_R1__ stands for the first replicate of scalar data generated from a medium density fiber board test in cone calorimeter exposed to 25 kW/m<sup>2</sup> on March 23, 2021.
    + A _Cone_Notes.csv_ is generated for each material from the __plot_Cone_data.py__ script. For materials whose experiments deviated from typical behavior relevant pictures are included in the respective material directory.
- __Fourier Transform Infrared Spectrometer__ (FTIR)
    + The FTIR directory contains subdirectories for the Attenuated Total Reflectance method (ATR) and the Integrating Sphere (IS)
    + Data file structure for the ATR experiment files includes the material, the abbreviated name for the apparatus, date of test, and replicate number. 
        * Example: __MDF_ATR_210323_R5__ stands for the fifth replicate of data collected with the ATR accessory conducted on June 8, 2021.
    + Data file structure for the IS experiment files includes the material, the abbreviated name for the apparatus, the measurand, whether the test is a sample measurement or standard reference, date of test, and replicate number.
        * Example: __OSB_IS_REFLECT_MEAS_2

File: Pressure_Treated_Deck_IS_S_220926_R1.dpt
7497.03,0.74822
7473.89,0.75941
7450.74,0.76318
7427.6,0.74471
7404.45,0.74603
7381.31,0.74141
7358.16,0.73234
7335.02,0.72511
7311.87,0.72508
7288.73,0.71677
7265.58,0.72505
7242.44,0.72484
7219.29,0.71236
7196.15,0.71344
7173,0.70749
7149.86,0.69311
7126.71,0.68445
7103.57,0.66648
7080.42,0.64693
7057.28,0.63710
7034.13,0.61359
7010.99,0.59848
6987.84,0.58393
6964.7,0.58034
6941.55,0.57814
6918.41,0.57815
6895.26,0.57618
6872.12,0.57636
6848.97,0.57532
6825.83,0.57628
6802.68,0.57638
6779.54,0.57651
6756.39,0.57670
6733.25,0.58001
6710.1,0.57703
6686.96,0.57812
6663.82,0.58541
6640.67,0.59272
6617.53,0.58951
6594.38,0.59107
6571.24,0.59998
6548.09,0.59995
6524.95,0.60572
6501.8,0.60464
6478.66,0.60839
6455.51,0.60808
6432.37,0.61200
6409.22,0.61037
6386.08,0.61121
6362.93,0.61356
6339.79,0.61552
6316.64,0.61795
6293.5,0.62363
6270.35,0.62609
6247.21,0.63102
6224.06,0.63531
6200.92,0.64535
6177.77,0.65157
6154.63,0.65609
6131.48,0.66190
6108.34,0.66444
6085.19,0.66247
6062.05,0.66086
6038.9,0.65760
6015.76,0.65361
5992.61,0.64722
5969.47,0.64501
5946.32,0.64497
5923.18,0.64334
5900.03,0.63962
5876.89,0.63660
5853.74,0.63674
5830.6,0.63596
5807.45,0.63299
5784.31,0.63012
5761.16,0.63594
5738.02,0.63551
5714.87,0.63633
5691.73,0.63416
5668.58,0.63401
5645.44,0.63339
5622.29,0.63346
5599.15,0.63213
5576,0.63344
5552.86,0.63681
5529.71,0.63792
5506.57,0.63992
5483.42,0.64275
5460.28,0.64465
5437.13,0.64859
5413.99,0.65341
5390.84,0.65406
5367.7,0.65315
5344.55,0.65245
5321.41,0.64037
5298.26,0.61592
5275.12,0.57602
5251.97,0.52933
5228.83,0.49690
5205.68,0.48069
5182.54,0.48039
5159.39,0.48760
5136.25,0.50058
5113.1,0.51460
5089.96,0.52777
5066.81,0.53883
5043.67,0.54878
5020.52,0.55803
4997.38,0.56019
4974.23,0.55679
4951.09,0.54582
4927.94,0.52900
4904.8,0.50869
4881.65,0.48952
4858.51,0.47280
4835.36,0.45756
4812.22,0.44587
4789.07,0.44159
4765.93,0.43517
4742.78,0.43465
4719.64,0.43734
4696.49,0.43900
4673.35,0.44312
4650.2,0.45183
4627.06,0.46060
4603.92,0.47205
4580.77,0.48061
4557.63,0.48760
4534.48,0.49178
4511.34,0.49199
4488.19,0.48482
4465.05,0.46348
4441.9,0.43652
4418.76,0.41002
4395.61,0.39611
4372.47,0.40312
4349.32,0.40570
4326.18,0.40131
4303.03,0.39179
4279.89,0.38528
4256.74,0.38815
4233.6,0.39137
4210.45,0.39178
4187.31,0.39362
4164.16,0.39772
4141.02,0.39186
4117.87,0.37909
4094.73,0.35992
4071.58,0.33877
4048.44,0.31851
4025.29,0.30415
4002.15,0.30295
3979,0.30753
3955.86,0.31613
3932.71,0.32626
3909.57,0.33639
3886.42,0.34653
3863.28,0.35534
3840.13,0.36433
3816.99,0.36608
3793.84,0.36360
3770.7,0.36020
3747.55,0.35200
3724.41,0.33408
3701.26,0.30181
3678.12,0.24133
3654.97,0.16386
3631.83,0.11792
3608.68,0.08954
3585.54,0.07079
3562.39,0.05943
3539.25,0.05244
3516.1,0.04810
3492.96,0.04402
3469.81,0.04247
3446.67,0.04086
3423.52,0.04004
3400.38,0.04091
3377.23,0.04052
3354.09,0.04180
3330.94,0.04448
3307.8,0.04526
3284.65,0.04818
3261.51,0.05078
3238.36,0.05538
3215.22,0.05930
3192.07,0.06453
3168.93,0.07020
3145.78,0.07630
3122.64,0.08186
3099.49,0.08799
3076.35,0.09303
3053.2,0.09871
3030.06,0.10342
3006.91,0.09976
2983.77,0.09041
2960.62,0.07300
2937.48,0.06494
2914.33,0.06465
2891.19,0.06807
2868.04,0.07261
2844.9,0.08413
2821.75,0.10535
2798.61,0.11924
2775.46,0.12709
2752.32,0.13079
2729.17,0.13348
2706.03,0.14012
2682.88,0.14744
2659.74,0.15337
2636.59,0.15840
2613.45,0.16428
2590.3,0.17011
2567.16,0.17402
2544.02,0.17599
2520.87,0.18120
2497.73,0.18958
2474.58,0.19853
2451.44,0.20654
2428.29,0.21659
2405.15,0.22689
2382,0.23671
2358.86,0.24557
2335.71,0.25050
2312.57,0.25241
2289.42,0.25187
2266.28,0.24964
2243.13,0.24571
2219.99,0.24323
2196.84,0.23991
2173.7,0.22887
2150.55,0.22041
2127.41,0.21776
2104.26,0.22094
2081.12,0.22138
2057.97,0.21767
2034.83,0.22210
2011.68,0.23254
1988.54,0.23872
1965.39,0.24370
1942.25,0.25136
1919.1,0.25607
1895.96,0.25466
1872.81,0.25162
1849.67,0.24522
1826.52,0.22952
1803.38,0.18933
1780.23,0.13534
1757.09,0.08066
1733.94,0.06208
1710.8,0.06865
1687.65,0.06924
1664.51,0.06172
1641.36,0.06233
1618.22,0.06154
1595.07,0.05940
1571.93,0.08019
1548.78,0.09181
1525.64,0.06859
1502.49,0.05599
1479.35,0.06043
1456.2,0.04865
1433.06,0.04648
1409.91,0.05088
1386.77,0.04859
1363.62,0.04732
1340.48,0.04727
1317.33,0.04566
1294.19,0.04561
1271.04,0.04223
1247.9,0.04561
1224.75,0.04611
1201.61,0.04661
1178.46,0.04061
1155.32,0.04124
1132.17,0.03676
1109.03,0.03955
1085.88,0.03953
1062.74,0.05144
1039.59,0.05541
1016.45,0.06521
993.304,0.07101
970.159,0.08552
947.014,0.09773
923.869,0.10281
900.724,0.08758
877.579,0.09296
854.434,0.09763
831.289,0.09480
808.144,0.08333
784.999,0.08243
761.854,0.07746
738.709,0.07120
715.565,0.06510
692.42,0.06235
669.275,0.05840
646.13,0.05693
622.985,0.05467
599.84,0.05698

File: Pressure_Treated_Deck_IS_S_220926_R2.dpt
7497.03,0.77329
7473.89,0.76592
7450.74,0.75420
7427.6,0.75177
7404.45,0.73932
7381.31,0.73308
7358.16,0.73143
7335.02,0.71987
7311.87,0.72397
7288.73,0.72365
7265.58,0.72339
7242.44,0.71855
7219.29,0.72535
7196.15,0.71109
7173,0.70928
7149.86,0.70059
7126.71,0.68517
7103.57,0.67255
7080.42,0.65224
7057.28,0.63250
7034.13,0.62019
7010.99,0.59738
6987.84,0.59784
6964.7,0.57925
6941.55,0.57932
6918.41,0.57882
6895.26,0.57901
6872.12,0.57639
6848.97,0.57696
6825.83,0.57765
6802.68,0.57922
6779.54,0.57623
6756.39,0.57956
6733.25,0.57871
6710.1,0.58274
6686.96,0.58727
6663.82,0.58522
6640.67,0.59017
6617.53,0.59089
6594.38,0.59932
6571.24,0.59972
6548.09,0.60168
6524.95,0.60618
6501.8,0.60573
6478.66,0.60686
6455.51,0.60998
6432.37,0.61374
6409.22,0.60994
6386.08,0.61273
6362.93,0.61625
6339.79,0.61829
6316.64,0.62007
6293.5,0.62179
6270.35,0.62853
6247.21,0.63288
6224.06,0.64372
6200.92,0.64729
6177.77,0.65214
6154.63,0.65928
6131.48,0.66068
6108.34,0.66361
6085.19,0.66390
6062.05,0.66572
6038.9,0.65990
6015.76,0.65367
5992.61,0.64925
5969.47,0.64667
5946.32,0.64452
5923.18,0.64589
5900.03,0.64221
5876.89,0.64052
5853.74,0.63941
5830.6,0.63948
5807.45,0.63242
5784.31,0.63518
5761.16,0.63687
5738.02,0.63567
5714.87,0.63614
5691.73,0.63643
5668.58,0.63626
5645.44,0.63668
5622.29,0.63330
5599.15,0.63193
5576,0.63750
5552.86,0.63807
5529.71,0.64021
5506.57,0.64157
5483.42,0.64162
5460.28,0.64456
5437.13,0.64966
5413.99,0.65348
5390.84,0.65749
5367.7,0.65618
5344.55,0.65211
5321.41,0.64404
5298.26,0.62067
5275.12,0.58076
5251.97,0.53557
5228.83,0.50320
5205.68,0.48931
5182.54,0.48845
5159.39,0.49586
5136.25,0.50930
5113.1,0.52278
5089.96,0.53407
5066.81,0.54497
5043.67,0.55536
5020.52,0.56358
4997.38,0.56559
4974.23,0.56148
4951.09,0.54879
4927.94,0.53052
4904.8,0.51115
4881.65,0.49044
4858.51,0.47354
4835.36,0.45879
4812.22,0.44648
4789.07,0.44135
4765.93,0.43739
4742.78,0.43592
4719.64,0.43846
4696.49,0.44122
4673.35,0.44369
4650.2,0.45269
4627.06,0.46149
4603.92,0.47391
4580.77,0.48206
4557.63,0.48831
4534.48,0.49266
4511.34,0.49370
4488.19,0.48594
4465.05,0.46499
4441.9,0.43746
4418.76,0.41008
4395.61,0.39711
4372.47,0.40334
4349.32,0.40719
4326.18,0.40161
4303.03,0.39296
4279.89,0.38570
4256.74,0.38889
4233.6,0.39290
4210.45,0.39210
4187.31,0.39415
4164.16,0.39878
4141.02,0.39404
4117.87,0.38084
4094.73,0.36139
4071.58,0.34116
4048.44,0.32035
4025.29,0.30600
4002.15,0.30437
3979,0.30961
3955.86,0.31743
3932.71,0.32793
3909.57,0.33835
3886.42,0.34802
3863.28,0.35649
3840.13,0.36619
3816.99,0.36928
3793.84,0.36698
3770.7,0.36360
3747.55,0.35511
3724.41,0.33762
3701.26,0.30655
3678.12,0.24769
3654.97,0.17056
3631.83,0.12176
3608.68,0.09282
3585.54,0.07254
3562.39,0.06026
3539.25,0.05294
3516.1,0.04792
3492.96,0.04434
3469.81,0.04284
3446.67,0.04114
3423.52,0.04079
3400.38,0.04018
3377.23,0.04074
3354.09,0.04117
3330.94,0.04368
3307.8,0.04627
3284.65,0.04831
3261.51,0.05202
3238.36,0.05620
3215.22,0.06043
3192.07,0.06528
3168.93,0.07165
3145.78,0.07700
3122.64,0.08367
3099.49,0.08971
3076.35,0.09453
3053.2,0.10077
3030.06,0.10484
3006.91,0.10146
2983.77,0.09117
2960.62,0.07374
2937.48,0.06495
2914.33,0.06492
2891.19,0.06770
2868.04,0.07266
2844.9,0.08441
2821.75,0.10575
2798.61,0.12063
2775.46,0.12805
2752.32,0.13159
2729.17,0.13413
2706.03,0.14162
2682.88,0.14953
2659.74,0.15468
2636.59,0.15952
2613.45,0.16567
2590.3,0.17095
2567.16,0.17551
2544.02,0.17723
2520.87,0.18256
2497.73,0.19101
2474.58,0.19970
2451.44,0.20835
2428.29,0.21786
2405.15,0.22856
2382,0.23815
2358.86,0.24663
2335.71,0.25169
2312.57,0.25509
2289.42,0.25435
2266.28,0.25209
2243.13,0.24813
2219.99,0.24662
2196.84,0.24294
2173.7,0.23240
2150.55,0.22345
2127.41,0.22077
2104.26,0.22391
2081.12,0.22413
2057.97,0.22078
2034.83,0.22520
2011.68,0.23539
1988.54,0.24217
1965.39,0.24691
1942.25,0.25451
1919.1,0.25865
1895.96,0.25747
1872.81,0.25439
1849.67,0.24801
1826.52,0.23111
1803.38,0.19057
1780.23,0.13603
1757.09,0.08044
1733.94,0.06224
1710.8,0.06970
1687.65,0.06991
1664.51,0.06267
1641.36,0.06356
1618.22,0.06209
1595.07,0.05923
1571.93,0.08142
1548.78,0.09214
1525.64,0.06904
1502.49,0.05607
1479.35,0.06095
1456.2,0.04802
1433.06,0.04564
1409.91,0.05059
1386.77,0.04845
1363.62,0.04688
1340.48,0.04705
1317.33,0.04568
1294.19,0.04556
1271.04,0.04207
1247.9,0.04578
1224.75,0.04621
1201.61,0.04689
1178.46,0.04084
1155.32,0.04162
1132.17,0.03644
1109.03,0.03931
1085.88,0.03906
1062.74,0.05178
1039.59,0.05528
1016.45,0.06511
993.304,0.07142
970.159,0.08691
947.014,0.09861
923.869,0.10341
900.724,0.08876
877.579,0.09384
854.434,0.09940
831.289,0.09597
808.144,0.08525
784.999,0.08466
761.854,0.07874
738.709,0.07219
715.565,0.06603
692.42,0.06282
669.275,0.05793
646.13,0.05719
622.985,0.05491
599.84,0.05638

File: Pressure_Treated_Deck_IS_S_220926_R3.dpt
7497.03,0.75992
7473.89,0.75484
7450.74,0.75586
7427.6,0.74991
7404.45,0.74215
7381.31,0.73427
7358.16,0.73007
7335.02,0.72853
7311.87,0.71595
7288.73,0.72071
7265.58,0.72666
7242.44,0.72113
7219.29,0.71021
7196.15,0.71029
7173,0.71326
7149.86,0.70190
7126.71,0.68859
7103.57,0.67304
7080.42,0.64797
7057.28,0.63260
7034.13,0.62067
7010.99,0.60242
6987.84,0.59295
6964.7,0.58040
6941.55,0.58278
6918.41,0.58145
6895.26,0.57685
6872.12,0.57925
6848.97,0.57820
6825.83,0.57528
6802.68,0.57795
6779.54,0.57354
6756.39,0.57581
6733.25,0.58312
6710.1,0.58947
6686.96,0.58336
6663.82,0.58770
6640.67,0.59383
6617.53,0.59597
6594.38,0.59948
6571.24,0.60102
6548.09,0.60684
6524.95,0.60698
6501.8,0.60600
6478.66,0.60873
6455.51,0.61142
6432.37,0.61353
6409.22,0.61710
6386.08,0.61531
6362.93,0.61755
6339.79,0.61790
6316.64,0.62206
6293.5,0.62245
6270.35,0.62925
6247.21,0.63455
6224.06,0.64079
6200.92,0.65063
6177.77,0.65846
6154.63,0.66245
6131.48,0.66011
6108.34,0.66749
6085.19,0.66684
6062.05,0.66792
6038.9,0.65700
6015.76,0.65424
5992.61,0.64866
5969.47,0.64916
5946.32,0.64683
5923.18,0.64658
5900.03,0.64183
5876.89,0.63956
5853.74,0.64072
5830.6,0.63691
5807.45,0.63324
5784.31,0.63426
5761.16,0.63737
5738.02,0.63784
5714.87,0.63708
5691.73,0.63796
5668.58,0.63644
5645.44,0.63619
5622.29,0.63408
5599.15,0.63491
5576,0.63616
5552.86,0.63934
5529.71,0.64238
5506.57,0.64194
5483.42,0.64424
5460.28,0.64392
5437.13,0.65053
5413.99,0.65466
5390.84,0.65651
5367.7,0.65485
5344.55,0.65271
5321.41,0.64607
5298.26,0.62320
5275.12,0.58525
5251.97,0.53995
5228.83,0.50584
5205.68,0.49296
5182.54,0.49244
5159.39,0.50064
5136.25,0.51280
5113.1,0.52647
5089.96,0.53862
5066.81,0.54853
5043.67,0.55844
5020.52,0.56447
4997.38,0.56803
4974.23,0.56301
4951.09,0.55028
4927.94,0.53208
4904.8,0.51117
4881.65,0.49118
4858.51,0.47324
4835.36,0.45859
4812.22,0.44846
4789.07,0.44190
4765.93,0.43706
4742.78,0.43509
4719.64,0.43903
4696.49,0.44042
4673.35,0.44512
4650.2,0.45254
4627.06,0.46254
4603.92,0.47361
4580.77,0.48341
4557.63,0.48874
4534.48,0.49267
4511.34,0.49385
4488.19,0.48604
4465.05,0.46372
4441.9,0.43867
4418.76,0.41046
4395.61,0.39777
4372.47,0.40426
4349.32,0.40760
4326.18,0.40207
4303.03,0.39264
4279.89,0.38622
4256.74,0.38933
4233.6,0.39320
4210.45,0.39364
4187.31,0.39542
4164.16,0.39921
4141.02,0.39475
4117.87,0.38132
4094.73,0.36312
4071.58,0.34125
4048.44,0.31989
4025.29,0.30724
4002.15,0.30494
3979,0.30971
3955.86,0.31872
3932.71,0.32946
3909.57,0.33927
3886.42,0.34899
3863.28,0.35754
3840.13,0.36716
3816.99,0.36890
3793.84,0.36843
3770.7,0.36500
3747.55,0.35651
3724.41,0.34002
3701.26,0.30852
3678.12,0.25010
3654.97,0.17256
3631.83,0.12322
3608.68,0.09329
3585.54,0.07348
3562.39,0.06084
3539.25,0.05316
3516.1,0.04857
3492.96,0.04513
3469.81,0.04145
3446.67,0.04182
3423.52,0.04055
3400.38,0.04093
3377.23,0.04148
3354.09,0.04211
3330.94,0.04457
3307.8,0.04641
3284.65,0.04789
3261.51,0.05210
3238.36,0.05593
3215.22,0.06047
3192.07,0.06561
3168.93,0.07208
3145.78,0.07832
3122.64,0.08511
3099.49,0.09036
3076.35,0.09559
3053.2,0.10129
3030.06,0.10512
3006.91,0.10167
2983.77,0.09178
2960.62,0.07387
2937.48,0.06474
2914.33,0.06489
2891.19,0.06784
2868.04,0.07298
2844.9,0.08463
2821.75,0.10604
2798.61,0.12164
2775.46,0.12794
2752.32,0.13210
2729.17,0.13466
2706.03,0.14131
2682.88,0.14943
2659.74,0.15499
2636.59,0.16003
2613.45,0.16637
2590.3,0.17189
2567.16,0.17598
2544.02,0.17793
2520.87,0.18302
2497.73,0.19117
2474.58,0.20020
2451.44,0.20869
2428.29,0.21847
2405.15,0.22944
2382,0.23898
2358.86,0.24709
2335.71,0.25327
2312.57,0.25553
2289.42,0.25518
2266.28,0.25344
2243.13,0.24918
2219.99,0.24759
2196.84,0.24404
2173.7,0.23338
2150.55,0.22502
2127.41,0.22217
2104.26,0.22488
2081.12,0.22581
2057.97,0.22165
2034.83,0.22610
2011.68,0.23688
1988.54,0.24328
1965.39,0.24840
1942.25,0.25594
1919.1,0.25999
1895.96,0.25843
1872.81,0.25540
1849.67,0.24907
1826.52,0.23236
1803.38,0.19092
1780.23,0.13586
1757.09,0.08057
1733.94,0.06222
1710.8,0.06923
1687.65,0.06995
1664.51,0.06325
1641.36,0.06371
1618.22,0.06257
1595.07,0.05952
1571.93,0.08125
1548.78,0.09261
1525.64,0.06931
1502.49,0.05609
1479.35,0.06083
1456.2,0.04892
1433.06,0.04607
1409.91,0.05082
1386.77,0.04832
1363.62,0.04684
1340.48,0.04741
1317.33,0.04583
1294.19,0.04573
1271.04,0.04247
1247.9,0.04570
1224.75,0.04605
1201.61,0.04691
1178.46,0.04097
1155.32,0.04154
1132.17,0.03687
1109.03,0.03842
1085.88,0.03891
1062.74,0.05120
1039.59,0.05570
1016.45,0.06547
993.304,0.07120
970.159,0.08700
947.014,0.09891
923.869,0.10390
900.724,0.08917
877.579,0.09407
854.434,0.09896
831.289,0.09642
808.144,0.08503
784.999,0.08516
761.854,0.07922
738.709,0.07400
715.565,0.06590
692.42,0.06340
669.275,0.05741
646.13,0.05932
622.985,0.05378
599.84,0.06025

File: Pressure_Treated_Deck_IS_S_220926_R4.dpt
7497.03,0.76973
7473.89,0.76641
7450.74,0.75401
7427.6,0.74905
7404.45,0.74066
7381.31,0.74926
7358.16,0.72239
7335.02,0.72863
7311.87,0.71872
7288.73,0.72376
7265.58,0.70660
7242.44,0.71977
7219.29,0.72537
7196.15,0.71819
7173,0.71277
7149.86,0.70603
7126.71,0.69346
7103.57,0.67822
7080.42,0.64618
7057.28,0.63457
7034.13,0.61706
7010.99,0.60350
6987.84,0.59012
6964.7,0.58729
6941.55,0.57786
6918.41,0.58671
6895.26,0.58053
6872.12,0.57464
6848.97,0.57446
6825.83,0.57585
6802.68,0.58043
6779.54,0.57528
6756.39,0.57371
6733.25,0.57442
6710.1,0.58182
6686.96,0.58711
6663.82,0.58936
6640.67,0.58938
6617.53,0.59559
6594.38,0.59413
6571.24,0.60492
6548.09,0.60526
6524.95,0.60725
6501.8,0.60871
6478.66,0.60968
6455.51,0.61290
6432.37,0.61482
6409.22,0.61314
6386.08,0.61873
6362.93,0.61504
6339.79,0.62170
6316.64,0.62186
6293.5,0.62248
6270.35,0.63079
6247.21,0.63912
6224.06,0.64441
6200.92,0.65119
6177.77,0.65414
6154.63,0.65934
6131.48,0.66522
6108.34,0.66752
6085.19,0.66861
6062.05,0.66462
6038.9,0.65849
6015.76,0.65676
5992.61,0.65026
5969.47,0.64683
5946.32,0.64921
5923.18,0.64793
5900.03,0.64338
5876.89,0.64278
5853.74,0.64065
5830.6,0.63895
5807.45,0.63394
5784.31,0.63492
5761.16,0.63931
5738.02,0.63885
5714.87,0.63811
5691.73,0.63822
5668.58,0.63734
5645.44,0.63616
5622.29,0.63598
5599.15,0.63414
5576,0.63728
5552.86,0.64020
5529.71,0.64259
5506.57,0.64392
5483.42,0.64474
5460.28,0.64954
5437.13,0.64892
5413.99,0.65622
5390.84,0.65755
5367.7,0.65809
5344.55,0.65480
5321.41,0.64561
5298.26,0.62521
5275.12,0.58752
5251.97,0.54273
5228.83,0.51132
5205.68,0.49767
5182.54,0.49599
5159.39,0.50444
5136.25,0.51691
5113.1,0.52849
5089.96,0.54143
5066.81,0.55344
5043.67,0.56146
5020.52,0.56851
4997.38,0.57046
4974.23,0.56532
4951.09,0.55217
4927.94,0.53203
4904.8,0.51107
4881.65,0.49155
4858.51,0.47425
4835.36,0.45893
4812.22,0.44725
4789.07,0.44194
4765.93,0.43801
4742.78,0.43711
4719.64,0.43798
4696.49,0.44022
4673.35,0.44439
4650.2,0.45304
4627.06,0.46218
4603.92,0.47494
4580.77,0.48364
4557.63,0.48964
4534.48,0.49371
4511.34,0.49469
4488.19,0.48690
4465.05,0.46614
4441.9,0.43964
4418.76,0.41108
4395.61,0.39830
4372.47,0.40453
4349.32,0.40724
4326.18,0.40252
4303.03,0.39378
4279.89,0.38670
4256.74,0.39091
4233.6,0.39319
4210.45,0.39391
4187.31,0.39608
4164.16,0.40025
4141.02,0.39600
4117.87,0.38247
4094.73,0.36324
4071.58,0.34170
4048.44,0.32111
4025.29,0.30731
4002.15,0.30568
3979,0.31095
3955.86,0.31903
3932.71,0.32949
3909.57,0.34060
3886.42,0.34919
3863.28,0.35862
3840.13,0.36827
3816.99,0.37100
3793.84,0.36953
3770.7,0.36638
3747.55,0.35845
3724.41,0.34280
3701.26,0.31133
3678.12,0.25281
3654.97,0.17632
3631.83,0.12643
3608.68,0.09513
3585.54,0.07387
3562.39,0.06137
3539.25,0.05337
3516.1,0.04829
3492.96,0.04473
3469.81,0.04242
3446.67,0.04124
3423.52,0.04075
3400.38,0.04066
3377.23,0.04166
3354.09,0.04255
3330.94,0.04424
3307.8,0.04686
3284.65,0.04887
3261.51,0.05216
3238.36,0.05612
3215.22,0.06105
3192.07,0.06634
3168.93,0.07242
3145.78,0.07862
3122.64,0.08474
3099.49,0.09091
3076.35,0.09613
3053.2,0.10203
3030.06,0.10609
3006.91,0.10226
2983.77,0.09170
2960.62,0.07408
2937.48,0.06531
2914.33,0.06443
2891.19,0.06777
2868.04,0.07285
2844.9,0.08462
2821.75,0.10649
2798.61,0.12144
2775.46,0.12858
2752.32,0.13259
2729.17,0.13490
2706.03,0.14193
2682.88,0.15004
2659.74,0.15520
2636.59,0.16050
2613.45,0.16698
2590.3,0.17213
2567.16,0.17662
2544.02,0.17799
2520.87,0.18332
2497.73,0.19231
2474.58,0.20104
2451.44,0.20943
2428.29,0.21943
2405.15,0.23022
2382,0.23992
2358.86,0.24828
2335.71,0.25425
2312.57,0.25666
2289.42,0.25602
2266.28,0.25417
2243.13,0.25015
2219.99,0.24859
2196.84,0.24529
2173.7,0.23467
2150.55,0.22622
2127.41,0.22331
2104.26,0.22692
2081.12,0.22659
2057.97,0.22289
2034.83,0.22754
2011.68,0.23823
1988.54,0.24477
1965.39,0.24957
1942.25,0.25758
1919.1,0.26141
1895.96,0.25999
1872.81,0.25687
1849.67,0.25020
1826.52,0.23332
1803.38,0.19170
1780.23,0.13601
1757.09,0.08075
1733.94,0.06267
1710.8,0.06918
1687.65,0.07004
1664.51,0.06344
1641.36,0.06415
1618.22,0.06296
1595.07,0.05964
1571.93,0.08117
1548.78,0.09290
1525.64,0.06949
1502.49,0.05592
1479.35,0.06097
1456.2,0.04840
1433.06,0.04616
1409.91,0.05069
1386.77,0.04830
1363.62,0.04702
1340.48,0.04748
1317.33,0.04589
1294.19,0.04576
1271.04,0.04246
1247.9,0.04596
1224.75,0.04646
1201.61,0.04704
1178.46,0.04043
1155.32,0.04176
1132.17,0.03619
1109.03,0.03881
1085.88,0.03922
1062.74,0.05141
1039.59,0.05550
1016.45,0.06546
993.304,0.07122
970.159,0.08693
947.014,0.09896
923.869,0.10392
900.724,0.08978
877.579,0.09446
854.434,0.09982
831.289,0.09726
808.144,0.08613
784.999,0.08591
761.854,0.07950
738.709,0.07473
715.565,0.06724
692.42,0.06383
669.275,0.05830
646.13,0.05900
622.985,0.05431
599.84,0.06123