Folder: fsri_materials_database/01_Data/Masonite_Board/MCC/Extra

Note: README.md
# Materials and Products Database
### Repository of materials and products properties and fire test data to improve fire modeling and fire investigation.

This project was supported in part by Award No. 2019-DU-BX-0018, awarded by the National Institute of Justice, Office of Justice Programs, U.S. Department of Justice. The opinions, findings, and conclusions or recommendations expressed in this publication / program / exhibition are those of the author(s) and do not necessarily reflect those of the Department of Justice.

***
***

__Cite this database:__ "McKinnon, M., Weinschenk, C., Dow, N., DiDomizio, M., and Madrzykowski, D. Materials and Products Database (Version 1.0.0), Fire Safety Research Institute, UL Research Institutes. Columbia, MD 21045, 2023."

__Cite the Technical Reference Guide:__ "McKinnon, M., Weinschenk, C., and Madrzykowski, D. Materials and Products Database - Technical Reference Guide, Fire Safety Research Institute, UL Research Institutes. Columbia, MD 21045, 2023."

__Cite the User Guide:__ "McKinnon, M., and Weinschenk, C. Materials and Products Database - User Guide, Fire Safety Research Institute, UL Research Institutes. Columbia, MD 21045, 2023."

***
***

## Database Structure

## 01_Data/
Raw data generated from each apparatus are included here in plain-text format. The data is organized first by material, next by the short name of test apparatus used, and where applicable additional filtering by test settings.

### Test Apparatus and Data File Structure
- __Cone Calorimeter__ (Cone)
    + Data file structure includes the material, the short name for the apparatus, heat flux setting and scan/scalar, date of test, and replicate number. Scan is for the raw output data and scalar is for the initial conditions and high-level test parameters. 
        * Example: __MDF_Cone_HF25scalar_210323_R1__ stands for the first replicate of scalar data generated from a medium density fiber board test in cone calorimeter exposed to 25 kW/m<sup>2</sup> on March 23, 2021.
    + A _Cone_Notes.csv_ is generated for each material from the __plot_Cone_data.py__ script. For materials whose experiments deviated from typical behavior relevant pictures are included in the respective material directory.
- __Fourier Transform Infrared Spectrometer__ (FTIR)
    + The FTIR directory contains subdirectories for the Attenuated Total Reflectance method (ATR) and the Integrating Sphere (IS)
    + Data file structure for the ATR experiment files includes the material, the abbreviated name for the apparatus, date of test, and replicate number. 
        * Example: __MDF_ATR_210323_R5__ stands for the fifth replicate of data collected with the ATR accessory conducted on June 8, 2021.
    + Data file structure for the IS experiment files includes the material, the abbreviated name for the apparatus, the measurand, whether the test is a sample measurement or standard reference, date of test, and replicate number.
        * Example: __OSB_IS_REFLECT_MEAS_2

File: Masonite_New_Grinder_MCC_30K_min_220328_R1.txt
Sample ID:	C:\MCC\MCC Cal\Test\Masonite_New_grinder_MCC_30K_min_220328_R1.txt
Sample Weight (mg):	4.24
Heating Rate (C/s):	0.5
Combustor Temp (C):	900
N2 Flow Rate (cc/min):	80
O2 Flow Rate (cc/min):	20
Calibration File:	C:\MCC\MCC Cal\Coeff1 JN10440_30_210304.txt.txt
T Correction Coefficients:	0	1.024463	0
Time Shift (s):	14
*
Time (s)	Temperature (C)	N2 flow rate (cc/min)	O2 flow rate (cc/min)	Flow Rate (cc/min)	Oxygen (%)	HRR (W/g)	Heating rate (C/s)
0.000	107.637	80.007	19.993	103.642	20.021	-0.082	-0.006
8.000	107.673	80.006	19.994	103.665	20.027	-0.494	0.022
16.001	107.666	80.005	19.993	103.669	20.025	-0.359	-0.024
24.000	107.728	80.004	19.994	103.659	20.027	-0.541	-0.006
32.000	107.841	80.007	19.993	103.743	20.012	0.624	0.031
40.001	108.295	80.004	19.992	103.828	19.994	2.018	0.098
48.000	109.218	80.006	19.993	103.849	19.993	2.105	0.136
56.000	110.528	80.007	19.993	103.867	19.984	2.758	0.180
64.000	112.202	80.005	19.993	103.838	19.983	2.848	0.256
72.001	114.138	80.007	19.993	103.851	19.980	3.054	0.280
80.000	116.308	80.004	19.995	103.904	19.983	2.852	0.282
88.001	118.749	80.005	19.993	103.882	19.975	3.487	0.275
96.000	121.485	80.004	19.993	103.901	19.980	3.120	0.363
104.000	124.348	80.004	19.993	103.880	19.978	3.205	0.376
112.000	127.404	80.005	19.994	103.880	19.974	3.510	0.389
120.000	130.716	80.006	19.992	103.934	19.975	3.451	0.401
128.000	134.126	80.007	19.993	103.915	19.978	3.200	0.433
136.000	137.699	80.007	19.993	103.913	19.978	3.251	0.461
144.000	141.379	80.007	19.993	103.919	19.980	3.101	0.445
152.000	145.153	80.004	19.994	103.892	19.982	2.922	0.452
160.000	149.018	80.003	19.992	103.907	19.980	3.068	0.513
168.000	152.831	80.003	19.994	103.924	19.978	3.240	0.449
176.000	156.686	80.002	19.995	103.894	19.980	3.107	0.452
184.000	160.609	80.004	19.994	103.893	19.980	3.096	0.462
192.000	164.566	80.006	19.993	103.864	19.980	3.092	0.509
200.000	168.526	80.006	19.993	103.855	19.978	3.246	0.478
208.000	172.455	80.006	19.993	103.867	19.975	3.494	0.496
216.000	176.364	80.007	19.993	103.856	19.970	3.852	0.482
224.000	180.311	80.008	19.992	103.872	19.978	3.270	0.484
232.000	184.350	80.006	19.993	103.866	19.976	3.422	0.490
240.000	188.406	80.006	19.992	103.869	19.975	3.479	0.527
248.000	192.405	80.006	19.992	103.864	19.976	3.395	0.499
256.000	196.384	80.006	19.994	103.877	19.976	3.386	0.496
264.000	200.381	80.004	19.994	103.896	19.972	3.676	0.511
272.000	204.349	80.007	19.994	103.834	19.975	3.498	0.485
280.000	208.344	80.008	19.993	103.923	19.978	3.234	0.527
288.000	212.295	80.005	19.994	103.855	19.975	3.467	0.508
296.000	216.265	80.006	19.993	103.819	19.974	3.513	0.471
304.000	220.154	80.007	19.992	103.856	19.976	3.366	0.480
312.000	224.050	80.006	19.992	103.803	19.976	3.422	0.486
320.000	228.004	80.005	19.993	103.837	19.971	3.742	0.465
328.000	231.892	80.003	19.995	103.834	19.965	4.212	0.474
336.001	235.827	80.006	19.994	103.838	19.960	4.587	0.473
344.000	239.769	80.005	19.994	103.864	19.959	4.726	0.503
352.000	243.676	80.005	19.994	103.856	19.948	5.542	0.487
360.000	247.579	80.005	19.995	103.883	19.940	6.133	0.479
368.000	251.571	80.007	19.993	103.868	19.938	6.303	0.485
376.000	255.573	80.004	19.992	103.840	19.922	7.496	0.565
384.000	259.515	80.007	19.994	103.833	19.908	8.607	0.474
392.000	263.484	80.005	19.994	103.869	19.890	10.000	0.506
400.000	267.461	80.005	19.993	103.879	19.870	11.503	0.522
408.000	271.413	80.006	19.993	103.889	19.847	13.245	0.498
416.000	275.413	80.005	19.993	103.905	19.822	15.134	0.480
424.000	279.392	80.004	19.993	103.908	19.789	17.709	0.492
432.000	283.356	80.005	19.994	103.899	19.754	20.384	0.477
440.000	287.335	80.007	19.993	103.995	19.732	22.049	0.511
448.000	291.291	80.004	19.994	103.897	19.696	24.786	0.471
456.000	295.287	80.006	19.993	103.891	19.683	25.793	0.512
464.000	299.314	80.007	19.993	103.994	19.669	26.869	0.511
472.000	303.333	80.005	19.994	103.940	19.657	27.813	0.522
480.000	307.289	80.006	19.993	103.941	19.648	28.493	0.490
488.000	311.341	80.004	19.994	103.946	19.635	29.465	0.513
496.000	315.437	80.005	19.992	103.932	19.621	30.542	0.514
504.000	319.391	80.005	19.993	103.931	19.604	31.886	0.464
512.000	323.354	80.005	19.994	103.957	19.582	33.575	0.497
520.000	327.371	80.006	19.994	103.970	19.545	36.363	0.483
528.000	331.342	80.006	19.993	104.036	19.503	39.617	0.494
536.000	335.459	80.006	19.994	103.986	19.450	43.643	0.535
544.000	339.529	80.007	19.994	104.076	19.385	48.623	0.540
552.000	343.624	80.007	19.993	104.073	19.296	55.469	0.501
560.000	347.680	80.004	19.994	104.127	19.199	62.978	0.478
568.000	351.734	80.005	19.993	104.138	19.077	72.316	0.507
576.000	355.784	80.006	19.993	104.176	18.954	81.773	0.536
584.000	359.725	80.004	19.994	104.227	18.829	91.409	0.486
592.000	363.620	80.004	19.993	104.202	18.711	100.530	0.438
600.000	367.623	80.005	19.992	104.290	18.644	105.488	0.497
608.000	371.588	80.006	19.993	104.221	18.652	104.825	0.509
616.000	375.697	80.006	19.992	104.139	18.759	96.469	0.542
624.000	379.775	80.007	19.993	104.028	18.982	79.343	0.541
632.000	383.811	80.005	19.993	103.910	19.271	57.198	0.508
640.000	387.882	80.003	19.994	103.836	19.551	35.820	0.517
648.000	391.989	80.005	19.993	103.841	19.744	21.077	0.520
656.000	396.082	80.005	19.993	103.788	19.847	13.198	0.492
664.000	400.082	80.007	19.993	103.821	19.890	9.960	0.488
672.000	404.031	80.005	19.993	103.785	19.903	8.998	0.504
680.000	408.043	80.006	19.992	103.828	19.920	7.653	0.485
688.000	412.005	80.007	19.992	103.780	19.920	7.695	0.503
696.000	416.009	80.005	19.993	103.786	19.927	7.095	0.505
704.000	419.988	80.006	19.993	103.741	19.936	6.410	0.511
712.000	424.036	80.008	19.993	103.807	19.936	6.437	0.491
720.000	428.033	80.006	19.994	103.814	19.934	6.616	0.495
728.000	432.010	80.005	19.994	103.824	19.944	5.824	0.500
736.000	436.054	80.005	19.994	103.832	19.946	5.682	0.518
744.000	440.135	80.007	19.992	103.789	19.952	5.190	0.508
752.000	444.214	80.007	19.992	103.782	19.955	4.965	0.491
760.000	448.288	80.006	19.992	103.802	19.963	4.386	0.488
768.000	452.400	80.005	19.994	103.801	19.964	4.299	0.528
776.001	456.491	80.008	19.993	103.772	19.969	3.931	0.523
784.000	460.585	80.009	19.992	103.835	19.976	3.350	0.524
792.000	464.611	80.008	19.993	103.777	19.974	3.548	0.490
800.000	468.643	80.007	19.993	103.772	19.981	2.998	0.501
808.000	472.693	80.006	19.994	103.792	19.983	2.840	0.498
816.000	476.818	80.005	19.994	103.786	19.984	2.811	0.514
824.000	480.874	80.005	19.994	103.785	19.981	3.023	0.500
832.000	484.891	80.004	19.995	103.778	19.984	2.764	0.523
840.000	488.916	80.006	19.993	103.787	19.983	2.875	0.496
848.000	492.965	80.006	19.993	103.824	19.992	2.197	0.504
856.000	497.084	80.007	19.994	103.782	19.990	2.317	0.527
864.000	501.194	80.007	19.992	103.778	19.986	2.640	0.492
872.000	505.263	80.006	19.995	103.761	19.986	2.602	0.515
880.000	509.332	80.006	19.992	103.808	19.989	2.399	0.536
888.000	513.361	80.005	19.992	103.789	19.991	2.270	0.537
896.000	517.452	80.005	19.993	103.773	19.989	2.412	0.500
904.000	521.554	80.005	19.994	103.779	19.993	2.113	0.512
912.000	525.624	80.004	19.995	103.745	19.988	2.467	0.510
920.000	529.679	80.004	19.995	103.756	19.990	2.295	0.530
928.000	533.761	80.006	19.995	103.785	19.993	2.060	0.516
936.000	537.805	80.005	19.992	103.826	19.987	2.520	0.512
944.000	541.805	80.006	19.994	103.809	19.994	1.983	0.504
952.000	545.782	80.007	19.992	103.787	19.993	2.066	0.510
960.000	550.019	80.004	19.994	103.737	19.990	2.350	0.563
968.000	554.350	80.004	19.993	103.773	19.990	2.353	0.580
976.000	558.808	80.006	19.994	103.777	19.991	2.251	0.535
984.000	563.275	80.006	19.995	103.800	19.994	2.022	0.526
992.000	567.636	80.005	19.994	103.746	19.988	2.467	0.527
1000.000	571.999	80.005	19.994	103.821	19.991	2.274	0.522
1008.000	576.353	80.007	19.993	103.772	19.993	2.111	0.501
1016.000	580.639	80.006	19.995	103.759	19.988	2.450	0.546
1024.000	584.967	80.006	19.994	103.763	19.988	2.464	0.528
1032.000	589.328	80.007	19.993	103.796	19.991	2.210	0.535
1040.000	593.596	80.006	19.994	103.756	19.990	2.346	0.519
1048.001	597.846	80.006	19.993	103.746	19.994	2.039	0.435
1056.000	602.026	80.007	19.992	103.763	19.994	2.037	0.514
1064.000	606.095	80.006	19.992	103.760	19.993	2.075	0.505
1072.000	610.347	80.006	19.993	103.761	19.991	2.249	0.564
1080.001	614.578	80.005	19.993	103.777	19.992	2.140	0.511
1088.000	618.783	80.007	19.995	103.815	19.991	2.237	0.528
1096.000	622.914	80.007	19.993	103.728	19.992	2.136	0.497
1104.000	626.995	80.006	19.994	103.741	19.992	2.203	0.506
1112.000	630.999	80.005	19.994	103.759	19.995	1.908	0.527
1120.000	635.004	80.007	19.994	103.725	19.995	1.946	0.479
1128.000	638.891	80.007	19.992	103.753	19.990	2.304	0.523
1136.000	642.718	80.004	19.993	103.721	19.991	2.221	0.489
1144.001	646.440	80.006	19.993	103.788	20.007	1.040	0.488
1152.000	650.252	80.003	19.994	103.752	19.993	2.092	0.534
1160.000	654.084	80.004	19.992	103.770	19.990	2.284	0.507
1168.000	658.018	80.007	19.993	103.740	19.994	2.018	0.491
1176.000	662.142	80.006	19.993	103.757	19.982	2.894	0.523
1184.001	666.260	80.005	19.994	103.772	19.990	2.349	0.502
1192.001	670.483	80.006	19.993	103.765	19.989	2.358	0.521
1200.000	674.613	80.007	19.992	103.764	19.990	2.301	0.511
1208.000	678.855	80.004	19.995	103.792	19.992	2.129	0.525
1216.001	682.947	80.005	19.993	103.754	19.989	2.394	0.532
1224.000	687.157	80.006	19.994	103.730	19.989	2.417	0.517
1232.001	691.292	80.004	19.993	103.762	19.992	2.195	0.501
1240.000	695.434	80.004	19.995	103.731	19.993	2.089	0.519
1248.000	699.597	80.007	19.991	103.767	19.997	1.755	0.498
1256.000	703.780	80.006	19.993	103.756	19.995	1.969	0.530
1264.000	707.922	80.005	19.993	103.772	19.996	1.842	0.507
1272.000	712.015	80.006	19.994	103.767	19.997	1.753	0.473
1280.000	716.126	80.007	19.994	103.768	19.998	1.711	0.491
1288.000	720.082	80.004	19.994	103.761	19.995	1.920	0.484
1296.001	723.961	80.005	19.995	103.754	19.995	1.897	0.468
1304.001	727.985	80.007	19.994	103.739	19.996	1.834	0.538
1312.000	732.117	80.005	19.994	103.735	19.991	2.246	0.539
1320.000	736.290	80.004	19.994	103.753	19.995	1.967	0.505
1328.000	740.477	80.005	19.993	103.739	19.992	2.170	0.533
1336.000	744.540	80.006	19.994	103.730	19.998	1.732	0.491
1338.000	745.570	80.006	19.993	103.737	19.994	2.034	0.521

File: Masonite_New_Grinder_MCC_30K_min_220328_R2.txt
Sample ID:	C:\MCC\MCC Cal\Test\Masonite_New_grinder_MCC_30K_min_220328_R2.txt
Sample Weight (mg):	4.72
Heating Rate (C/s):	0.5
Combustor Temp (C):	900
N2 Flow Rate (cc/min):	80
O2 Flow Rate (cc/min):	20
Calibration File:	C:\MCC\MCC Cal\Coeff1 JN10440_30_210304.txt.txt
T Correction Coefficients:	0	1.024463	0
Time Shift (s):	14
*
Time (s)	Temperature (C)	N2 flow rate (cc/min)	O2 flow rate (cc/min)	Flow Rate (cc/min)	Oxygen (%)	HRR (W/g)	Heating rate (C/s)
0.000	108.982	80.006	19.993	103.602	20.048	0.495	0.049
8.000	108.944	80.006	19.992	103.648	20.047	0.596	-0.000
16.000	108.989	80.005	19.992	103.684	20.039	1.116	0.005
24.000	109.299	80.004	19.997	103.797	20.032	1.591	0.081
32.000	110.112	80.005	19.994	103.792	20.025	2.134	0.117
40.000	111.229	80.003	19.994	103.776	20.017	2.658	0.150
48.000	112.649	80.007	19.995	103.822	20.011	3.069	0.162
56.000	114.433	80.007	19.994	103.849	20.010	3.138	0.222
63.999	116.595	80.005	19.992	103.848	20.003	3.624	0.278
71.999	119.054	80.007	19.994	103.907	20.007	3.344	0.294
79.999	121.860	80.008	19.992	103.889	20.005	3.449	0.374
87.999	124.881	80.006	19.992	103.866	20.002	3.704	0.354
96.000	128.086	80.005	19.993	103.904	20.001	3.788	0.403
104.000	131.442	80.006	19.993	103.914	20.002	3.694	0.445
111.999	134.948	80.005	19.993	103.867	19.997	3.998	0.430
120.000	138.604	80.003	19.995	103.905	20.003	3.644	0.447
127.999	142.329	80.005	19.994	103.889	20.002	3.713	0.471
136.000	146.193	80.006	19.993	103.850	20.003	3.639	0.429
144.000	150.120	80.004	19.994	103.854	20.006	3.379	0.459
152.000	154.059	80.007	19.996	103.902	20.005	3.494	0.484
160.000	158.044	80.006	19.992	103.921	20.003	3.628	0.498
168.000	162.053	80.004	19.992	103.925	20.001	3.761	0.521
176.000	166.072	80.004	19.993	103.841	19.995	4.191	0.503
184.000	170.066	80.004	19.993	103.894	19.998	3.972	0.516
192.000	174.089	80.004	19.993	103.877	19.999	3.883	0.487
200.000	178.028	80.003	19.993	103.886	19.994	4.211	0.512
208.000	181.989	80.005	19.993	103.813	19.993	4.319	0.519
216.000	185.935	80.006	19.993	103.799	19.998	3.928	0.495
224.000	189.856	80.007	19.993	103.766	19.997	4.020	0.473
232.000	193.836	80.006	19.994	103.809	19.994	4.242	0.474
240.000	197.739	80.007	19.994	103.874	20.000	3.799	0.481
248.000	201.680	80.004	19.994	103.835	19.992	4.354	0.486
256.000	205.555	80.005	19.992	103.756	19.990	4.471	0.494
264.000	209.430	80.006	19.993	103.770	19.992	4.355	0.478
272.000	213.402	80.005	19.993	103.836	19.996	4.123	0.520
280.000	217.346	80.004	19.994	103.811	19.993	4.294	0.508
288.000	221.310	80.004	19.994	103.828	19.990	4.490	0.486
296.000	225.207	80.006	19.993	103.821	19.988	4.641	0.497
304.000	229.218	80.005	19.993	103.813	19.989	4.571	0.487
312.000	233.183	80.007	19.994	103.826	19.983	4.978	0.527
320.000	237.172	80.006	19.994	103.802	19.979	5.262	0.502
328.000	241.126	80.006	19.994	103.847	19.974	5.600	0.524
336.000	245.127	80.003	19.994	103.795	19.965	6.229	0.514
344.000	249.168	80.005	19.994	103.862	19.953	7.070	0.514
352.000	253.168	80.005	19.993	103.939	19.943	7.707	0.484
360.000	257.175	80.005	19.995	103.775	19.927	8.827	0.482
368.000	261.142	80.004	19.994	103.849	19.909	10.064	0.486
376.000	265.097	80.007	19.994	103.893	19.890	11.387	0.502
384.000	269.045	80.006	19.992	103.850	19.868	12.889	0.512
392.000	273.129	80.006	19.994	103.860	19.838	14.982	0.518
400.000	277.110	80.007	19.993	103.815	19.799	17.642	0.519
408.000	281.051	80.008	19.994	103.881	19.774	19.373	0.499
416.000	285.036	80.004	19.994	103.883	19.737	21.859	0.498
424.000	289.000	80.004	19.994	103.950	19.713	23.508	0.488
432.000	292.918	80.005	19.995	103.904	19.689	25.198	0.479
440.000	296.961	80.004	19.995	103.912	19.661	27.124	0.477
448.000	300.966	80.004	19.994	103.916	19.644	28.288	0.495
456.000	304.950	80.006	19.993	103.914	19.640	28.578	0.484
464.000	309.012	80.008	19.993	103.929	19.630	29.235	0.518
472.000	313.085	80.006	19.993	103.886	19.611	30.577	0.491
480.000	317.188	80.009	19.994	103.986	19.598	31.434	0.492
488.000	321.220	80.007	19.993	103.923	19.574	33.104	0.545
496.000	325.212	80.004	19.994	103.955	19.543	35.215	0.474
504.000	329.123	80.004	19.993	103.959	19.503	37.975	0.482
512.000	333.097	80.006	19.993	104.002	19.458	41.060	0.511
520.000	336.988	80.005	19.994	103.975	19.391	45.745	0.483
528.000	340.863	80.004	19.994	103.997	19.316	50.864	0.484
536.000	344.774	80.007	19.993	104.078	19.224	57.250	0.484
544.000	348.672	80.007	19.994	104.091	19.113	64.916	0.452
552.000	352.681	80.007	19.992	104.173	18.993	73.210	0.519
560.000	356.618	80.006	19.993	104.234	18.860	82.390	0.483
568.000	360.536	80.008	19.992	104.213	18.722	91.937	0.470
576.000	364.481	80.004	19.993	104.232	18.619	99.007	0.481
584.000	368.459	80.003	19.991	104.305	18.575	101.946	0.494
592.000	372.546	80.005	19.995	104.216	18.609	99.552	0.548
600.000	376.685	80.005	19.994	104.071	18.745	90.173	0.534
608.000	380.844	80.004	19.994	103.943	18.996	72.754	0.520
616.000	384.986	80.004	19.994	103.809	19.294	52.341	0.547
624.000	389.086	80.005	19.994	103.797	19.568	33.466	0.551
632.000	393.163	80.005	19.993	103.864	19.763	20.072	0.533
640.000	397.266	80.003	19.993	103.758	19.862	13.294	0.511
648.000	401.389	80.007	19.993	103.798	19.900	10.698	0.510
656.000	405.476	80.005	19.993	103.776	19.923	9.107	0.500
664.000	409.583	80.006	19.993	103.777	19.931	8.540	0.518
672.000	413.636	80.005	19.992	103.831	19.939	8.015	0.539
680.000	417.635	80.004	19.994	103.820	19.949	7.298	0.498
688.000	421.701	80.004	19.994	103.724	19.947	7.465	0.511
696.000	425.676	80.005	19.994	103.799	19.950	7.226	0.465
704.000	429.591	80.006	19.994	103.785	19.956	6.868	0.497
712.000	433.472	80.003	19.995	103.725	19.959	6.617	0.490
720.000	437.431	80.004	19.995	103.824	19.972	5.771	0.485
728.000	441.356	80.008	19.992	103.752	19.971	5.781	0.486
736.000	445.357	80.006	19.993	103.787	19.982	5.036	0.472
744.000	449.375	80.005	19.993	103.759	19.987	4.677	0.524
752.000	453.403	80.006	19.994	103.755	19.990	4.477	0.485
760.000	457.535	80.006	19.993	103.830	19.997	4.045	0.533
768.000	461.610	80.005	19.992	103.752	19.996	4.061	0.497
776.000	465.637	80.003	19.995	103.853	20.005	3.471	0.492
784.000	469.717	80.007	19.993	103.744	20.002	3.691	0.522
792.000	473.792	80.006	19.993	103.745	20.006	3.394	0.495
800.000	477.838	80.005	19.994	103.713	20.009	3.225	0.495
808.000	481.953	80.007	19.994	103.721	20.012	2.988	0.533
816.000	486.009	80.006	19.994	103.750	20.014	2.871	0.560
824.000	490.121	80.006	19.993	103.801	20.018	2.566	0.479
832.000	494.185	80.004	19.993	103.779	20.011	3.048	0.513
840.000	498.298	80.005	19.994	103.761	20.012	2.965	0.503
848.000	502.334	80.005	19.993	103.766	20.011	3.093	0.478
856.000	506.387	80.005	19.994	103.753	20.015	2.764	0.505
864.000	510.461	80.005	19.993	103.762	20.010	3.154	0.496
872.000	514.526	80.005	19.994	103.776	20.014	2.852	0.505
880.000	518.563	80.005	19.993	103.766	20.015	2.768	0.487
888.000	522.621	80.006	19.992	103.770	20.015	2.757	0.541
896.000	526.684	80.005	19.993	103.747	20.013	2.903	0.503
904.000	530.845	80.005	19.996	103.794	20.018	2.580	0.550
912.000	535.017	80.005	19.992	103.772	20.015	2.787	0.541
920.000	539.232	80.004	19.993	103.755	20.013	2.933	0.533
928.000	543.473	80.004	19.993	103.853	20.021	2.411	0.534
936.000	547.733	80.004	19.995	103.752	20.022	2.312	0.558
944.000	552.171	80.006	19.993	103.764	20.014	2.850	0.486
952.000	556.562	80.006	19.992	103.745	20.020	2.456	0.544
960.000	561.170	80.003	19.993	103.741	20.019	2.525	0.704
968.000	565.340	80.006	19.995	103.767	20.022	2.288	0.552
976.000	569.548	80.007	19.993	103.789	20.024	2.180	0.531
984.000	573.842	80.005	19.994	103.753	20.018	2.563	0.552
992.000	578.356	80.004	19.993	103.760	20.020	2.465	0.549
1000.000	582.685	80.005	19.994	103.715	20.018	2.570	0.491
1008.000	586.952	80.005	19.993	103.744	20.017	2.652	0.563
1016.000	591.094	80.004	19.992	103.796	20.024	2.173	0.507
1024.000	595.227	80.005	19.994	103.788	20.025	2.089	0.518
1032.000	599.212	80.006	19.993	103.726	20.023	2.218	0.498
1039.999	603.195	80.005	19.992	103.748	20.025	2.073	0.528
1047.999	607.273	80.008	19.993	103.732	20.021	2.358	0.512
1055.999	611.377	80.007	19.993	103.762	20.027	1.968	0.520
1063.999	615.376	80.005	19.993	103.733	20.028	1.896	0.513
1071.999	619.189	80.004	19.995	103.732	20.023	2.244	0.490
1080.000	623.043	80.007	19.994	103.750	20.027	1.934	0.479
1088.000	626.987	80.005	19.995	103.746	20.027	1.998	0.528
1095.999	630.968	80.003	19.994	103.758	20.025	2.110	0.489
1103.999	635.057	80.004	19.992	103.783	20.030	1.761	0.497
1111.999	639.140	80.006	19.992	103.752	20.025	2.136	0.505
1120.001	643.283	80.005	19.994	103.735	20.030	1.774	0.538
1127.999	647.334	80.006	19.992	103.741	20.029	1.817	0.469
1135.999	651.444	80.008	19.994	103.725	20.029	1.824	0.482
1143.999	655.580	80.007	19.992	103.743	20.025	2.135	0.511
1151.999	659.779	80.004	19.994	103.762	20.026	2.022	0.544
1160.000	664.066	80.003	19.994	103.766	20.033	1.584	0.534
1167.999	668.279	80.005	19.992	103.755	20.034	1.487	0.537
1176.000	672.472	80.005	19.993	103.705	20.030	1.729	0.520
1184.000	676.613	80.005	19.994	103.727	20.032	1.594	0.506
1191.999	680.690	80.008	19.994	103.734	20.030	1.743	0.512
1199.999	684.814	80.006	19.995	103.737	20.031	1.672	0.527
1208.000	688.867	80.006	19.994	103.754	20.031	1.696	0.522
1216.000	692.903	80.008	19.993	103.723	20.032	1.621	0.496
1223.999	697.020	80.006	19.993	103.724	20.033	1.535	0.545
1232.000	701.161	80.004	19.993	103.712	20.033	1.573	0.522
1239.999	705.357	80.006	19.993	103.715	20.032	1.618	0.555
1248.001	709.590	80.005	19.994	103.745	20.033	1.567	0.532
1255.999	713.784	80.005	19.995	103.708	20.037	1.288	0.528
1264.000	717.781	80.004	19.994	103.734	20.033	1.537	0.458
1271.999	721.801	80.006	19.993	103.755	20.037	1.257	0.469
1279.999	725.535	80.005	19.994	103.725	20.036	1.330	0.462
1287.999	729.375	80.008	19.993	103.723	20.034	1.476	0.478
1296.000	733.327	80.007	19.993	103.753	20.031	1.677	0.484
1303.999	737.198	80.007	19.992	103.742	20.036	1.339	0.476
1311.999	741.085	80.005	19.993	103.716	20.033	1.552	0.511
1317.000	743.539	80.006	19.993	103.727	20.033	1.582	0.506