Folder: fsri_materials_database/01_Data/Cellulose_Insulation/Cone (part 3)

File: Cellulose_Insulation_Cone_HF50Scan_230615_R2.csv
Names,Time,Stack TC,Smoke TC,Exh Press,Smoke Comp,Smoke Meas,CO Meter,CO2 Meter,O2 Meter,Sample Mass,Ext Coeff,Start Test,Flame Verif
Chan Gain,,500,500,1,1,1,1,1,1,1,1,1.0,1.0
Offset,,0,0,0.245636,0,0,0,0,0,0,0,0.0,0.0
Gain,,1,1,25.011,13.6893,14.9403,1,1,1,1.00094,1.03834,1.0,1.0
Units,sec,C,C,Pa,%,%,%,%,%,g,/m,,
Baseline,,37.8571,40.2977,141.992,99.7199,99.6798,-2.17435e-06,0.0481121,20.9583,-445.529,0.00366935,,
22,5.25,37.3857,43.4927,124.011,98.3241,98.8391,-4.80239e-05,0.0500571,20.9564,77.9335,-0.0475856,0.0,1.0
44,10.75,41.2213,50.5072,131.36,98.3341,98.2323,0.000423376,0.101116,20.9548,77.0927,0.0094393,0.0,0.0
66,16.25,44.0602,54.6555,131.565,98.3383,99.0101,0.00140206,0.373792,20.7092,76.3019,-0.0620121,0.0,0.0
88,21.75,46.3068,56.7109,129.2,98.3312,98.8879,0.00227803,0.385751,20.55,75.6413,-0.0514224,0.0,0.0
110,27.25,47.3197,56.9505,133.338,98.3391,98.727,0.00236713,0.341963,20.59,75.0908,-0.035851,0.0,0.0
132,32.75,47.6479,56.0797,134.996,98.3233,98.8369,0.00207163,0.294289,20.6495,74.6404,-0.0474529,0.0,0.0
154,38.25,47.5527,56.186,133.824,98.3341,98.8122,0.00201576,0.259197,20.6986,74.1599,-0.0441775,0.0,0.0
176,43.75,47.3731,55.1395,136.739,98.3513,98.9476,0.00201968,0.238006,20.7289,73.7295,-0.0550647,0.0,0.0
198,49.25,48.5385,54.8619,131.872,98.4139,98.7165,0.00187175,0.221112,20.7508,73.4392,-0.0279596,0.0,0.0
220,54.75,47.8311,54.2072,139.521,98.4966,98.9021,0.00232105,0.206507,20.7693,73.0188,-0.0374132,0.0,0.0
242,60.25,47.5052,53.0081,137.518,98.6838,99.0124,0.00269428,0.19824,20.7803,72.6485,-0.0302776,0.0,0.0
264,65.75,47.6954,53.1548,134.792,98.9249,99.2445,0.00304739,0.194103,20.7907,72.2882,-0.0293805,0.0,0.0
286,71.25,47.8891,53.2952,137.186,99.2194,99.4875,0.00346389,0.189241,20.7936,71.9478,-0.0245785,0.0,0.0
308,76.75,47.7682,52.5972,133.882,99.5807,100.122,0.00404107,0.184174,20.7998,71.5875,-0.0493452,0.0,0.0
330,82.25,47.4763,53.0085,135.058,99.8076,100.079,0.00466733,0.177421,20.808,71.2872,-0.0247206,0.0,0.0
352,87.75,46.751,51.74,134.337,99.9839,100.528,0.00502512,0.176056,20.8114,70.9869,-0.0494282,0.0,0.0
374,93.25,47.4419,52.3747,134.657,100.079,100.399,0.00539399,0.1727,20.8136,70.6566,-0.029057,0.0,0.0
396,98.75,47.1735,52.7994,139.074,100.05,100.219,0.0054637,0.169468,20.816,70.3463,-0.0153655,0.0,0.0
418,104.25,46.9809,51.2216,137.525,99.991,100.191,0.00569041,0.166445,20.8196,70.0761,-0.0182013,0.0,0.0
440,109.75,47.641,51.7725,138.679,99.8034,100.107,0.00580303,0.164135,20.8237,69.7458,-0.0276323,0.0,0.0
462,115.25,46.8233,52.0198,130.851,99.6296,99.927,0.00628192,0.162806,20.8253,69.4755,-0.0271477,0.0,0.0
484,120.75,47.015,51.8529,136.948,99.4186,100.11,0.00612044,0.162559,20.8252,69.1952,-0.0631048,0.0,0.0
506,126.25,46.4168,51.7474,133.448,99.2787,99.7041,0.0063677,0.161738,20.8268,68.915,-0.0389413,0.0,0.0
528,131.75,47.334,51.4205,136.907,99.1951,99.6202,0.00657099,0.159186,20.8274,68.5446,-0.0389424,0.0,0.0
550,137.25,46.6607,51.6564,137.282,99.4395,99.5344,0.00658683,0.157683,20.8289,68.3444,-0.00868937,0.0,0.0
572,142.75,47.1299,50.9854,134.652,99.5828,100.082,0.00673439,0.155819,20.8305,68.0341,-0.0455033,0.0,0.0
594,148.25,46.4968,51.4469,135.62,99.5728,99.8477,0.00699103,0.154491,20.8316,67.844,-0.0251093,0.0,0.0
616,153.75,45.8994,51.041,135.169,99.4391,99.793,0.00700757,0.152169,20.8333,67.5337,-0.0323531,0.0,0.0
638,159.25,46.7113,51.2298,137.206,99.1488,99.3885,0.00677668,0.148546,20.8386,67.2834,-0.0219997,0.0,0.0
660,164.75,46.1702,51.427,132.808,98.8948,99.2253,0.00732997,0.150206,20.8398,66.9832,-0.030393,0.0,0.0
682,170.25,46.7721,50.5846,134.5,98.8843,99.0922,0.00743746,0.149003,20.8402,66.773,-0.0191256,0.0,0.0
704,175.75,46.4436,50.6094,139.282,99.0807,99.3872,0.00777414,0.147976,20.8425,66.5327,-0.0281328,0.0,0.0
726,181.25,45.8397,50.5743,134.652,99.2645,100.02,0.00744047,0.146137,20.8436,66.3225,-0.0691043,0.0,0.0
748,186.75,46.4809,51.0137,139.775,99.4095,99.5878,0.00698993,0.146293,20.8463,66.0222,-0.0163253,0.0,0.0
770,192.25,45.9666,51.2985,135.344,99.5239,99.8427,0.00741982,0.148159,20.8418,65.742,-0.0291234,0.0,0.0
792,197.75,46.8334,50.3481,134.103,99.5064,100.039,0.00705097,0.146434,20.8434,65.6019,-0.0485974,0.0,0.0
814,203.25,46.2864,50.8882,132.945,99.4182,99.6781,0.00711897,0.14471,20.8456,65.3316,-0.0237745,0.0,0.0
836,208.75,46.1914,50.8369,136.145,99.2277,99.7022,0.00724572,0.144641,20.8449,65.1114,-0.0434514,0.0,0.0
858,214.25,46.744,50.8566,136.377,98.9804,99.3762,0.00716601,0.145562,20.8436,64.8211,-0.0363519,0.0,0.0
880,219.75,46.2331,50.8593,133.603,98.7694,99.0954,0.007503,0.146961,20.8435,64.6309,-0.0300074,0.0,0.0
902,225.25,46.5655,50.6463,139.064,98.5246,99.0685,0.0073431,0.145318,20.8428,64.3707,-0.0501383,0.0,0.0
924,230.75,46.1496,50.8592,138.64,98.3646,98.4425,0.00673747,0.1418,20.8468,64.1605,-0.00720489,0.0,0.0
946,236.25,46.3391,50.7311,135.975,98.2861,98.6267,0.00671162,0.140161,20.8505,63.9803,-0.031507,0.0,0.0
968,241.75,46.1558,50.7208,135.969,98.4398,98.7096,0.00687103,0.138807,20.8515,63.8002,-0.0249323,0.0,0.0
990,247.25,46.1477,50.3011,136.296,98.703,98.9486,0.00674025,0.139965,20.8511,63.5499,-0.0226304,0.0,0.0
1012,252.75,46.0326,50.5493,138.985,99.0285,99.4866,0.00639084,0.138381,20.8511,63.3798,-0.0420387,0.0,0.0
1034,258.25,46.1905,50.1878,138.035,99.3702,99.6963,0.00615682,0.137181,20.8532,63.1796,-0.0298429,0.0,0.0
1056,263.75,46.2236,49.8325,134.858,99.6802,100.24,0.00705452,0.136471,20.8535,63.0194,-0.0509916,0.0,0.0
1078,269.25,46.233,50.5201,135.965,99.9396,100.256,0.00732062,0.134733,20.8555,62.8292,-0.0288092,0.0,0.0
1100,274.75,45.9877,50.0037,136.526,100.034,100.394,0.00703703,0.133979,20.8559,62.589,-0.0327497,0.0,0.0
1122,280.25,46.107,49.7162,133.936,100.092,100.288,0.00711282,0.130764,20.859,62.4088,-0.0178592,0.0,0.0
1144,285.75,45.0565,49.4669,137.642,100.118,100.647,0.00656989,0.125762,20.8629,62.2987,-0.0480746,0.0,0.0
1166,291.25,45.3589,49.67,137.226,100.098,100.391,0.00668688,0.127489,20.8649,62.1686,-0.0266048,0.0,0.0
1188,296.75,45.5728,49.5767,133.865,100.1,100.437,0.00737254,0.127977,20.863,61.9484,-0.030667,0.0,0.0
1210,302.25,45.641,48.5326,136.006,100.089,100.294,0.00749922,0.128126,20.8616,61.7883,-0.0185838,0.0,0.0
1232,307.75,45.5004,49.0239,140.411,100.1,100.259,0.00752543,0.12414,20.863,61.6982,-0.0145275,0.0,0.0
1254,313.25,45.5363,48.3565,136.58,100.108,100.173,0.00779636,0.124029,20.8653,61.548,-0.00593523,0.0,0.0
1276,318.75,45.2447,48.7299,134.142,100.118,100.365,0.00790671,0.122292,20.8665,61.4079,-0.0224182,0.0,0.0
1298,324.25,44.7505,48.6245,137.503,100.125,100.193,0.0083173,0.121815,20.8672,61.2778,-0.00619762,0.0,0.0
1320,329.75,44.8287,48.3539,134.808,100.117,100.29,0.00830952,0.118025,20.8708,61.1376,-0.015744,0.0,0.0
1342,335.25,45.0432,48.3982,137.198,100.091,100.383,0.00878343,0.117814,20.8708,61.0676,-0.0265063,0.0,0.0
1364,340.75,44.5897,47.945,133.821,100.007,100.399,0.00842285,0.114973,20.8743,60.9375,-0.0356782,0.0,0.0
1386,346.25,44.5612,47.4601,137.949,99.9016,100.113,0.00766089,0.112332,20.8781,60.8173,-0.0192997,0.0,0.0
1408,351.75,44.4046,47.7036,140.198,99.757,99.9908,0.00754343,0.110052,20.8791,60.6872,-0.0213227,0.0,0.0
1430,357.25,44.8094,48.1221,140.301,99.567,99.6357,0.00789005,0.109262,20.8815,60.5771,-0.00628346,0.0,0.0
1452,362.75,44.2405,48.0586,136.562,99.3409,99.6147,0.00764927,0.107111,20.8823,60.467,-0.0250646,0.0,0.0
1474,368.25,44.6064,47.7511,137.398,99.107,99.1879,0.0074545,0.107828,20.8861,60.3469,-0.00743472,0.0,0.0
1496,373.75,44.7825,47.7642,136.673,98.9127,99.2937,0.00759331,0.109076,20.8824,60.2668,-0.0350139,0.0,0.0
1518,379.25,44.4601,47.936,138.769,98.7105,98.8405,0.00827006,0.109284,20.8813,60.1968,-0.0119847,0.0,0.0
1540,384.75,44.0465,46.8292,141.943,98.5668,98.7375,0.00849936,0.107955,20.8812,60.0666,-0.0157538,0.0,0.0
1562,390.25,42.1166,46.1002,140.499,98.4561,98.4721,0.00853113,0.109158,20.882,59.9665,-0.00147842,0.0,0.0
1584,395.75,41.8384,46.0736,138.424,98.3897,98.4885,0.00841194,0.107412,20.8799,59.8965,-0.00914313,0.0,0.0
1606,401.25,42.7598,45.6921,140.744,98.3517,98.5802,0.00852269,0.105474,20.8845,59.7664,-0.0211344,0.0,0.0
1628,406.75,41.7607,45.8967,136.942,98.3295,98.4388,0.00855236,0.104457,20.8856,59.6863,-0.010117,0.0,0.0
1650,412.25,42.9795,45.8623,140.066,98.3788,98.5683,0.0086785,0.102542,20.8863,59.6062,-0.0175257,0.0,0.0
1672,417.75,42.0261,45.4821,143.993,98.4741,98.5241,0.00866851,0.0997148,20.8909,59.5762,-0.00462283,0.0,0.0
1694,423.25,41.7967,44.7746,138.375,98.6266,98.7096,0.00868057,0.0978353,20.8926,59.5562,-0.00766944,0.0,0.0
1716,428.75,41.7117,45.2612,140.028,98.7389,98.7315,0.00830349,0.0960181,20.894,59.4761,0.000684021,0.0,0.0
1738,434.25,42.0687,44.9595,138.271,98.8847,99.0101,0.00860104,0.0944481,20.895,59.416,-0.01154,0.0,0.0
1760,439.75,41.7817,45.2595,137.135,99.0464,99.1884,0.00971931,0.0934412,20.8951,59.376,-0.0130459,0.0,0.0
1782,445.25,41.5405,45.1008,129.618,99.1722,99.4186,0.00886459,0.0926789,20.8962,59.3259,-0.0226081,0.0,0.0
1804,450.75,41.1903,44.2981,135.659,99.3159,99.3735,0.00872314,0.0931972,20.8968,59.2759,-0.00528281,0.0,0.0
1826,456.25,41.8706,44.6257,137.032,99.4124,99.5404,0.00894452,0.0916055,20.8977,59.2559,-0.0117189,0.0,0.0
1848,461.75,41.0805,44.5051,138.378,99.4934,99.673,0.00910724,0.0934135,20.899,59.1257,-0.0164287,0.0,0.0
1870,467.25,41.5248,44.9015,137.169,99.5427,99.6617,0.00893372,0.0937906,20.8954,59.0957,-0.0108752,0.0,0.0
1892,472.75,41.5721,44.4461,143.088,99.5682,99.6065,0.00836431,0.0944232,20.8969,59.0957,-0.00350071,0.0,0.0
1914,478.25,41.5299,44.904,138.052,99.5569,99.7018,0.00823585,0.0937732,20.8951,59.0457,-0.0132416,0.0,0.0
1936,483.75,42.0387,44.9758,140.123,99.4776,99.5591,0.00848946,0.0927825,20.8942,59.0056,-0.00746025,0.0,0.0
1958,489.25,41.2715,44.0238,134.311,99.371,99.7,0.00844081,0.0928473,20.8962,58.8855,-0.0300994,0.0,0.0
1980,494.75,40.8935,44.4799,142.868,99.1989,99.2841,0.00831678,0.0951104,20.8936,58.8955,-0.00782213,0.0,0.0
2002,500.25,41.4071,45.0276,138.854,99.0234,99.2896,0.0084033,0.0959025,20.8923,58.8054,-0.0244495,0.0,0.0
2017,504,41.311,44.3931,140.525,98.9608,99.1551,0.00908095,0.0949875,20.8919,58.7854,-0.0178673,0.0,0.0

File: Cellulose_Insulation_Cone_HF50Scan_230620_R3.csv
Names,Time,Stack TC,Smoke TC,Exh Press,Smoke Comp,Smoke Meas,CO Meter,CO2 Meter,O2 Meter,Sample Mass,Ext Coeff,Start Test,Flame Verif
Chan Gain,,500,500,1,1,1,1,1,1,1,1,1.0,1.0
Offset,,0,0,0.245636,0,0,0,0,0,0,0,0.0,0.0
Gain,,1,1,25.011,13.7909,15.0732,1,1,1,1.00094,1.03834,1.0,1.0
Units,sec,C,C,Pa,%,%,%,%,%,g,/m,,
Baseline,,35.3199,38.263,142.699,99.5556,99.4912,0.000284289,0.0476749,20.9546,-445.513,0.00590309,,
22,5.25,35.0429,40.5597,126.592,100.858,101.794,0.000450084,0.0559298,20.9498,78.3639,-0.0841491,0.0,1.0
44,10.75,38.246,48.0094,128.078,100.866,101.457,0.000304327,0.0955334,20.9503,77.403,-0.053204,0.0,0.0
66,16.25,41.4772,52.22,130.704,100.867,101.367,0.00175698,0.340932,20.7383,76.6723,-0.0450712,0.0,0.0
88,21.75,43.4762,53.845,132.668,100.874,101.376,0.00281781,0.373307,20.5719,76.0417,-0.0451726,0.0,0.0
110,27.25,43.3079,54.7095,134.091,100.851,101.368,0.00234057,0.329206,20.6039,75.5012,-0.0466404,0.0,0.0
132,32.75,45.8195,54.7234,129.433,100.846,101.326,0.00175949,0.29386,20.654,74.9707,-0.0431754,0.0,0.0
154,38.25,45.9372,54.5512,140.044,100.841,101.223,0.00177974,0.267321,20.6932,74.4402,-0.0344433,0.0,0.0
176,43.75,46.6496,54.2047,136.687,100.79,101.301,0.00190798,0.250624,20.7206,74.0198,-0.046116,0.0,0.0
198,49.25,46.6796,54.2064,134.367,100.739,101.184,0.00232992,0.232578,20.7403,73.5794,-0.0401284,0.0,0.0
220,54.75,46.3893,53.1715,134.715,100.694,101.053,0.00251043,0.220572,20.7549,73.189,-0.0323923,0.0,0.0
242,60.25,46.665,53.2649,135.717,100.624,100.938,0.00261418,0.208479,20.7725,72.8287,-0.0283816,0.0,0.0
264,65.75,46.0593,52.7808,133.598,100.544,100.941,0.00307375,0.20004,20.7841,72.4283,-0.0359132,0.0,0.0
286,71.25,46.625,52.0786,136.883,100.439,100.839,0.00311418,0.195209,20.7925,72.068,-0.0362718,0.0,0.0
308,76.75,46.1538,52.2058,139.419,100.346,100.9,0.00327036,0.188662,20.7979,71.7076,-0.0501138,0.0,0.0
330,82.25,46.8667,51.9095,135.545,100.217,100.639,0.00333604,0.183541,20.8049,71.3873,-0.0382364,0.0,0.0
352,87.75,46.4717,51.7479,135.684,100.08,100.448,0.0036987,0.182732,20.8073,71.037,-0.0334581,0.0,0.0
374,93.25,46.5024,52.3445,135.748,99.9042,100.512,0.00382254,0.177361,20.8107,70.7067,-0.0552821,0.0,0.0
396,98.75,46.5339,51.8577,134.635,99.6971,100.2,0.00386664,0.174368,20.8134,70.4064,-0.0458334,0.0,0.0
418,104.25,46.3197,52.005,137.599,99.5132,99.9912,0.00412094,0.171485,20.8185,70.036,-0.0436473,0.0,0.0
440,109.75,46.3783,51.1645,137.57,99.3234,99.9921,0.00462844,0.168352,20.8218,69.7458,-0.0611206,0.0,0.0
462,115.25,46.2378,50.9979,139.163,99.19,99.4972,0.00477002,0.162867,20.8262,69.4655,-0.028166,0.0,0.0
484,120.75,45.1817,50.8401,133.295,99.115,99.5455,0.00490535,0.159528,20.8327,69.1752,-0.039468,0.0,0.0
506,126.25,45.5588,50.8408,139.137,99.1142,99.4351,0.00533302,0.157247,20.8343,68.8549,-0.0294388,0.0,0.0
528,131.75,45.3391,50.6155,142.264,99.1904,99.419,0.00564411,0.155065,20.8362,68.6547,-0.0209657,0.0,0.0
550,137.25,45.6939,50.2393,137.396,99.3187,99.7014,0.00573758,0.152344,20.8371,68.3444,-0.0350253,0.0,0.0
572,142.75,45.7773,50.3264,141.039,99.5233,99.947,0.00554494,0.149016,20.8405,68.0742,-0.0386998,0.0,0.0
594,148.25,45.3449,50.2141,135.39,99.7729,100.362,0.00559556,0.145536,20.8439,67.834,-0.0536627,0.0,0.0
616,153.75,45.6233,50.2206,135.231,100.018,100.304,0.0057046,0.144046,20.8475,67.6638,-0.0259455,0.0,0.0
638,159.25,45.1349,50.2016,140.449,100.185,100.777,0.00596043,0.141811,20.8486,67.3535,-0.053666,0.0,0.0
660,164.75,44.0863,50.0981,138.423,100.302,100.777,0.0059324,0.140305,20.8525,67.0933,-0.0430352,0.0,0.0
682,170.25,45.6433,49.9463,133.984,100.337,100.555,0.00615919,0.139872,20.853,66.6729,-0.0197605,0.0,0.0
704,175.75,45.1268,49.5655,137.055,100.285,100.648,0.00651446,0.138143,20.8543,66.5527,-0.0329503,0.0,0.0
726,181.25,44.9839,49.6507,136.358,100.192,100.712,0.00673346,0.137826,20.8557,66.4927,-0.0471473,0.0,0.0
748,186.75,44.7744,49.6994,136.783,100.114,100.45,0.00699554,0.137342,20.856,66.1724,-0.0305652,0.0,0.0
770,192.25,45.6433,49.2988,139.503,100.039,100.415,0.00671031,0.136008,20.8553,65.9622,-0.0341327,0.0,0.0
792,197.75,45.1323,49.2539,134.154,99.9614,100.342,0.00716712,0.135483,20.8547,65.6919,-0.0345877,0.0,0.0
814,203.25,45.2838,48.9463,139.202,99.9021,100.617,0.00686766,0.134672,20.8558,65.5218,-0.064932,0.0,0.0
836,208.75,45.2533,49.486,134.081,99.8907,100.42,0.00703763,0.136118,20.8579,65.3216,-0.0481275,0.0,0.0
858,214.25,44.5075,49.4573,138.024,99.8798,100.385,0.00712481,0.138008,20.8522,65.0814,-0.045996,0.0,0.0
880,219.75,45.2873,49.1835,135.83,99.9012,100.365,0.00693549,0.136604,20.8538,64.8912,-0.0422023,0.0,0.0
902,225.25,44.7467,49.0841,136.709,99.8987,100.288,0.00670377,0.135716,20.8548,64.6209,-0.0354586,0.0,0.0
924,230.75,45.0769,48.6149,137.481,99.905,100.217,0.00652215,0.136009,20.8555,64.4207,-0.0284051,0.0,0.0
946,236.25,45.4489,49.8031,136.708,99.9248,100.759,0.00631225,0.135915,20.8568,64.2406,-0.0757176,0.0,0.0
968,241.75,45.4944,49.4464,139.066,99.9715,100.692,0.00633534,0.136494,20.858,64.0003,-0.0653875,0.0,0.0
990,247.25,45.5269,49.3329,133.586,100.017,100.699,0.00661219,0.135374,20.8589,63.7901,-0.0619126,0.0,0.0
1012,252.75,45.4574,49.4646,138.399,100.076,100.72,0.00650452,0.135049,20.8585,63.6,-0.0583823,0.0,0.0
1034,258.25,45.2406,49.0327,137.059,100.155,100.526,0.00638915,0.135733,20.8575,63.3798,-0.0336134,0.0,0.0
1056,263.75,45.3446,49.1261,137.524,100.19,100.499,0.00637737,0.135089,20.8562,63.1095,-0.0280533,0.0,0.0
1078,269.25,45.2638,49.8699,139.727,100.244,100.91,0.00596194,0.13793,20.857,62.9794,-0.0603555,0.0,0.0
1100,274.75,45.4771,49.5395,136.536,100.287,100.74,0.00632263,0.138706,20.8565,62.7692,-0.0410014,0.0,0.0
1122,280.25,45.1701,49.9654,135.013,100.303,100.722,0.00645507,0.138791,20.8545,62.609,-0.0379682,0.0,0.0
1144,285.75,45.3617,49.1416,138.596,100.299,100.847,0.0058322,0.136102,20.8551,62.4389,-0.0496956,0.0,0.0
1166,291.25,45.3381,49.2608,133.989,100.265,100.692,0.0060649,0.135053,20.8548,62.1986,-0.0386622,0.0,0.0
1188,296.75,45.3131,48.4663,138.29,100.214,100.676,0.00657334,0.133466,20.8567,61.9884,-0.0418751,0.0,0.0
1210,302.25,44.5538,49.2373,134.438,100.128,100.743,0.00662806,0.131744,20.8589,61.8483,-0.0557551,0.0,0.0
1232,307.75,44.8401,48.6363,138.918,100.018,100.365,0.00639717,0.12828,20.8618,61.6982,-0.0315419,0.0,0.0
1254,313.25,45.6626,49.0542,136.785,99.868,100.31,0.00612188,0.127512,20.8678,61.488,-0.0401813,0.0,0.0
1276,318.75,45.1498,48.9407,136.5,99.6895,100.597,0.00628263,0.124539,20.8685,61.4379,-0.0825805,0.0,0.0
1298,324.25,44.7721,48.8665,137.644,99.5351,99.9963,0.00648083,0.122884,20.8705,61.3178,-0.0421058,0.0,0.0
1320,329.75,44.8174,48.7241,135.586,99.36,99.7497,0.00695457,0.126848,20.8692,61.1777,-0.0356554,0.0,0.0
1342,335.25,44.2148,48.6004,133.645,99.2232,99.6384,0.00717136,0.122382,20.8677,61.0776,-0.038032,0.0,0.0
1364,340.75,44.5188,48.0465,135.876,99.1214,99.511,0.00696243,0.116971,20.8727,60.8974,-0.0357306,0.0,0.0
1386,346.25,44.5367,48.406,135.029,99.046,99.3017,0.00730437,0.115037,20.8759,60.7873,-0.0234784,0.0,0.0
1408,351.75,44.1811,47.1183,140.872,99.0683,99.6908,0.00728637,0.113861,20.8775,60.6972,-0.057053,0.0,0.0
1430,357.25,44.5071,47.9324,135.887,99.1475,99.6361,0.00736046,0.112576,20.8789,60.5571,-0.0447782,0.0,0.0
1452,362.75,44.0853,46.9736,136.146,99.3116,99.7014,0.00740915,0.112372,20.8775,60.477,-0.035681,0.0,0.0
1474,368.25,44.667,47.4361,140.164,99.5384,100.024,0.00770963,0.110205,20.8786,60.3869,-0.0443526,0.0,0.0
1496,373.75,44.246,47.9256,135.267,99.8541,100.181,0.00799257,0.109786,20.8829,60.2668,-0.0297879,0.0,0.0
1518,379.25,44,46.8915,140.614,100.119,100.478,0.00757483,0.10896,20.8827,60.1868,-0.0326119,0.0,0.0
1540,384.75,43.8403,46.9425,137.57,100.421,100.785,0.0075964,0.108663,20.8837,60.1067,-0.032929,0.0,0.0
1562,390.25,42.0774,45.635,141.528,100.65,101.13,0.00754981,0.108377,20.8841,60.0466,-0.0433151,0.0,0.0
1584,395.75,42.0135,45.7714,135.829,100.783,101.26,0.00760606,0.106818,20.8841,59.9265,-0.0429643,0.0,0.0
1606,401.25,42.0429,45.562,137.347,100.861,101.115,0.0077188,0.106385,20.8841,59.8664,-0.0229668,0.0,0.0
1628,406.75,41.7466,45.6724,137.233,100.783,101.14,0.0080628,0.104453,20.8884,59.7964,-0.0322338,0.0,0.0
1650,412.25,42.1511,45.4925,137.913,100.675,100.919,0.00846054,0.103363,20.8886,59.7163,-0.0220329,0.0,0.0
1672,417.75,42.0999,44.834,138.176,100.461,100.822,0.00867527,0.101658,20.8901,59.6763,-0.0326321,0.0,0.0
1694,423.25,41.6595,44.4367,139.384,100.212,100.499,0.00891999,0.100586,20.8927,59.5662,-0.0260304,0.0,0.0
1716,428.75,41.3431,44.9227,135.877,100.017,100.339,0.00887525,0.0989501,20.8927,59.5461,-0.0292797,0.0,0.0
1738,434.25,41.4768,44.8457,136.985,100.001,100.265,0.00864332,0.0974856,20.8941,59.4561,-0.024088,0.0,0.0
1760,439.75,40.8958,44.5755,141.19,100.227,100.719,0.00866457,0.0978634,20.894,59.356,-0.0445594,0.0,0.0
1782,445.25,41.0876,44.1738,139.782,100.338,100.633,0.00878956,0.0974126,20.8934,59.346,-0.0267235,0.0,0.0
1804,450.75,41.6948,44.3601,138.705,100.388,100.484,0.0085798,0.0961419,20.8944,59.2659,-0.00875784,0.0,0.0
1826,456.25,40.3153,44.0161,135.76,100.399,100.691,0.00870241,0.0969738,20.8957,59.2459,-0.0265095,0.0,0.0
1848,461.75,40.8538,44.4767,137.981,100.395,100.699,0.00896204,0.0965598,20.8941,59.1958,-0.0274815,0.0,0.0
1870,467.25,41.2914,44.2264,137.541,100.416,100.89,0.00900332,0.0961705,20.8957,59.1458,-0.0429823,0.0,0.0
1892,472.75,41.1182,43.7967,135.173,100.389,100.96,0.00877034,0.094878,20.8959,59.0056,-0.0516178,0.0,0.0
1914,478.25,41.0123,44.2315,141.503,100.39,100.791,0.00904307,0.0952455,20.8965,59.0257,-0.036298,0.0,0.0
1936,483.75,40.7136,43.7952,142.316,100.346,100.596,0.00882928,0.0964118,20.8971,58.9756,-0.0225858,0.0,0.0
1958,489.25,40.9557,44.1783,137.575,100.29,100.429,0.00879713,0.09634,20.8971,58.9456,-0.0125751,0.0,0.0
1980,494.75,40.7933,44.1673,135.689,100.172,100.429,0.00829539,0.0950298,20.8982,58.8855,-0.0233636,0.0,0.0
2002,500.25,41.2025,43.8107,138.897,100.017,100.535,0.00793879,0.0942806,20.8979,58.7854,-0.0471277,0.0,0.0
2024,505.75,40.459,44.0552,140.528,100.017,100.439,0.00813937,0.0952829,20.8985,58.7354,-0.0383367,0.0,0.0
2031,507.5,40.6406,44.3228,141.09,100.037,100.442,0.00831337,0.0962065,20.8984,58.7854,-0.0368659,0.0,0.0

File: Cellulose_Insulation_Cone_HF75Scalar_230615_R1.csv
LABORATORY,FSRI
TEST IDENT,Cellulose_In_HF75_R1
OPERATOR,Marino
MATERIAL,Cellulose Insulation
ORIENTATION,Horizontal
HEAT FLUX,75
SURF AREA,0.01
C FACTOR,0.040763
SPEC HOLDER DIFF,-566
SPECIMEN MASS,26.18
SCAN TIME,0.25
O2 DELAY TIME,11
CO DELAY TIME,11
CO2 DELAY TIME,8
FLOW FACTOR,1
SCAN COUNT,1601
TIME TO IGN,1.75
END OF TEST SCAN,1121
END OF TEST TIME,280.25
TEST STATUS,1
PRE TEST CMT,5 cm depth tray filled without compression
POST TEST CMT,"Test started manually using ""start test"" button. Ignition occured less than 1 second after the shutter opened. Sample's surface area and height reduced as it was consumed. Sample charred and smoldered."

File: Cellulose_Insulation_Cone_HF75Scalar_230615_R2.csv
LABORATORY,FSRI
TEST IDENT,Cellulose_In_HF75_R2
OPERATOR,Marino
MATERIAL,Cellulose Insulation
ORIENTATION,Horizontal
HEAT FLUX,75
SURF AREA,0.01
C FACTOR,0.040763
SPEC HOLDER DIFF,-566
SPECIMEN MASS,26.79
SCAN TIME,0.25
O2 DELAY TIME,11
CO DELAY TIME,11
CO2 DELAY TIME,8
FLOW FACTOR,1
SCAN COUNT,1734
TIME TO IGN,2
END OF TEST SCAN,1254
END OF TEST TIME,313.5
TEST STATUS,1
PRE TEST CMT,5 cm depth tray filled without compression
POST TEST CMT,"Test started manually using ""start test"" button. Ignition occured less than 1 second after the shutter opened. Sample's surface area and height reduced as it was consumed. Sample charred and smoldered."