Folder: fsri_materials_database/01_Data/Cellulose_Insulation/Cone (part 6)

File: Cellulose_Insulation_HRRPUA_75.csv
Time after Ignition,Cellulose_Insulation_R1,Cellulose_Insulation_R2,Cellulose_Insulation_R3,Mean,Std. Dev.
0.0,5.3,3.7,4.3,4.4,0.8
1.0,5.7,3.6,5.0,4.7,1.1
2.0,5.9,3.6,5.6,5.0,1.2
3.0,6.1,3.6,5.9,5.2,1.4
4.0,6.2,3.6,6.1,5.3,1.5
5.0,6.4,3.5,6.2,5.3,1.6
6.0,6.7,3.8,6.4,5.6,1.6
7.0,7.1,4.4,6.4,6.0,1.4
8.0,7.4,4.7,6.4,6.2,1.4
9.0,11.3,7.5,6.5,8.4,2.5
10.0,32.9,25.3,11.0,23.1,11.1
11.0,70.3,59.8,30.6,53.6,20.6
12.0,107.4,105.3,67.9,93.5,22.2
13.0,150.0,155.2,119.1,141.4,19.5
14.0,194.7,195.9,161.2,183.9,19.7
15.0,229.2,224.9,194.5,216.2,18.9
16.0,244.2,245.1,225.7,238.3,10.9
17.0,259.0,255.4,236.7,250.4,12.0
18.0,263.4,266.4,253.0,261.0,7.0
19.0,271.3,262.8,258.2,264.1,6.7
20.0,266.5,265.4,254.8,262.2,6.5
21.0,264.8,264.2,250.5,259.8,8.1
22.0,258.6,257.4,246.5,254.2,6.7
23.0,252.6,247.3,235.6,245.2,8.7
24.0,242.5,239.7,232.5,238.3,5.2
25.0,230.6,230.4,222.5,227.8,4.6
26.0,223.4,223.2,216.8,221.1,3.7
27.0,218.4,211.8,208.8,213.0,4.9
28.0,213.6,207.5,198.3,206.5,7.7
29.0,204.3,197.4,193.7,198.5,5.4
30.0,202.5,188.2,187.0,192.6,8.6
31.0,192.0,185.3,180.7,186.0,5.7
32.0,184.3,179.2,173.7,179.1,5.3
33.0,181.6,170.9,166.7,173.1,7.7
34.0,175.3,167.9,163.2,168.8,6.1
35.0,170.6,161.4,156.7,162.9,7.1
36.0,165.9,154.5,150.3,156.9,8.1
37.0,163.0,149.7,148.3,153.7,8.1
38.0,158.8,145.8,145.4,150.0,7.6
39.0,154.4,143.0,144.3,147.2,6.2
40.0,155.0,138.6,140.9,144.8,8.9
41.0,152.1,135.0,135.1,140.7,9.8
42.0,145.0,130.2,132.4,135.9,8.0
43.0,143.3,130.5,127.5,133.8,8.4
44.0,141.8,127.4,124.3,131.2,9.3
45.0,138.2,123.6,121.5,127.8,9.1
46.0,136.1,120.5,119.8,125.5,9.2
47.0,135.2,118.0,118.6,124.0,9.8
48.0,131.7,114.5,117.3,121.1,9.2
49.0,130.9,113.0,114.5,119.4,9.9
50.0,128.4,110.9,113.6,117.7,9.4
51.0,126.0,111.5,113.3,116.9,7.9
52.0,125.3,108.4,110.8,114.8,9.2
53.0,124.9,105.3,108.5,112.9,10.5
54.0,122.4,101.6,107.0,110.3,10.8
55.0,121.7,101.3,105.9,109.6,10.7
56.0,122.9,99.8,104.2,109.0,12.3
57.0,118.3,98.1,103.3,106.5,10.5
58.0,116.2,96.1,102.9,105.1,10.3
59.0,115.2,94.8,103.1,104.4,10.3
60.0,114.9,94.4,102.0,103.8,10.4
61.0,113.1,91.4,99.2,101.2,11.0
62.0,111.9,90.9,96.6,99.8,10.9
63.0,110.8,91.4,97.6,99.9,9.9
64.0,108.3,88.1,96.1,97.5,10.2
65.0,108.4,88.7,95.3,97.4,10.0
66.0,107.7,87.7,93.7,96.4,10.3
67.0,105.8,86.8,95.0,95.9,9.5
68.0,105.5,87.5,93.3,95.4,9.1
69.0,104.6,86.2,93.1,94.7,9.3
70.0,101.9,85.5,92.2,93.2,8.3
71.0,100.1,87.0,91.3,92.8,6.7
72.0,99.8,85.9,91.1,92.3,7.0
73.0,97.5,86.3,89.2,91.0,5.8
74.0,98.3,84.8,90.1,91.1,6.8
75.0,96.0,83.9,90.5,90.1,6.1
76.0,95.5,83.0,90.2,89.6,6.3
77.0,95.0,82.9,89.5,89.1,6.1
78.0,95.1,81.5,88.0,88.2,6.8
79.0,94.3,80.7,88.9,87.9,6.8
80.0,92.3,80.5,85.8,86.2,5.9
81.0,92.3,80.7,85.4,86.1,5.8
82.0,91.9,78.8,85.6,85.4,6.6
83.0,90.0,77.5,84.3,83.9,6.3
84.0,91.1,78.7,84.3,84.7,6.2
85.0,88.7,76.3,85.5,83.5,6.5
86.0,88.3,79.1,84.8,84.1,4.6
87.0,87.7,79.3,83.8,83.6,4.2
88.0,88.5,76.3,84.0,82.9,6.2
89.0,86.6,76.4,84.0,82.3,5.3
90.0,86.6,75.7,83.4,81.9,5.6
91.0,85.3,76.5,82.4,81.4,4.5
92.0,84.8,75.6,82.4,80.9,4.8
93.0,85.4,74.5,81.6,80.5,5.5
94.0,84.6,73.8,81.3,79.9,5.5
95.0,84.8,72.4,79.8,79.0,6.2
96.0,85.1,74.1,78.8,79.3,5.5
97.0,83.6,71.9,79.7,78.4,5.9
98.0,83.2,71.3,79.2,77.9,6.1
99.0,84.0,71.9,76.6,77.5,6.1
100.0,81.4,72.2,77.4,77.0,4.6
101.0,82.4,71.2,77.2,76.9,5.6
102.0,82.7,70.5,76.7,76.6,6.1
103.0,82.0,71.1,75.8,76.3,5.5
104.0,81.7,70.3,76.0,76.0,5.7
105.0,81.6,70.7,75.7,76.0,5.4
106.0,80.8,69.1,74.8,74.9,5.9
107.0,79.5,68.9,74.3,74.2,5.3
108.0,80.3,69.0,76.1,75.1,5.7
109.0,79.0,68.4,73.3,73.6,5.3
110.0,77.9,67.5,73.0,72.8,5.2
111.0,80.2,67.6,72.9,73.6,6.4
112.0,77.8,67.7,72.4,72.6,5.1
113.0,77.8,66.7,72.2,72.2,5.5
114.0,76.9,68.4,71.4,72.2,4.3
115.0,75.9,67.5,70.3,71.2,4.3
116.0,76.8,66.7,70.7,71.4,5.1
117.0,77.2,66.8,70.8,71.6,5.2
118.0,75.2,66.0,71.2,70.8,4.6
119.0,76.4,65.4,71.5,71.1,5.5
120.0,77.3,66.1,71.1,71.5,5.6
121.0,75.2,65.9,71.4,70.8,4.7
122.0,75.9,65.6,72.1,71.2,5.2
123.0,76.5,65.9,71.7,71.4,5.3
124.0,77.1,64.6,70.7,70.8,6.3
125.0,76.7,66.2,70.2,71.0,5.3
126.0,75.9,65.9,68.3,70.1,5.2
127.0,75.5,65.7,69.2,70.1,5.0
128.0,75.2,65.0,68.4,69.5,5.2
129.0,74.4,65.6,68.8,69.6,4.5
130.0,75.2,65.9,67.7,69.6,4.9
131.0,74.0,65.7,67.4,69.0,4.4
132.0,74.4,64.5,68.2,69.0,5.0
133.0,73.9,64.4,68.1,68.8,4.8
134.0,72.9,64.0,67.2,68.0,4.5
135.0,72.8,63.9,66.4,67.7,4.6
136.0,73.1,62.9,67.5,67.9,5.1
137.0,72.1,63.2,66.9,67.4,4.5
138.0,72.5,62.5,66.8,67.3,5.0
139.0,72.0,62.9,66.7,67.2,4.6
140.0,71.5,62.4,66.4,66.8,4.5
141.0,70.6,62.6,68.4,67.2,4.2
142.0,70.8,63.1,66.3,66.7,3.9
143.0,70.9,61.5,65.7,66.0,4.7
144.0,69.2,62.6,64.6,65.5,3.4
145.0,70.0,62.0,64.5,65.5,4.1
146.0,68.4,62.6,64.6,65.2,3.0
147.0,68.5,61.1,64.7,64.8,3.7
148.0,68.0,61.4,63.6,64.3,3.3
149.0,67.1,62.8,64.3,64.8,2.2
150.0,66.8,60.6,63.7,63.7,3.1
151.0,66.8,61.6,63.4,63.9,2.7
152.0,67.5,61.5,63.9,64.3,3.0
153.0,67.2,60.6,63.5,63.8,3.3
154.0,68.2,59.9,64.8,64.3,4.2
155.0,68.0,60.5,64.5,64.3,3.8
156.0,68.1,60.0,64.5,64.2,4.0
157.0,69.3,60.3,64.1,64.6,4.5
158.0,68.2,60.6,62.8,63.9,3.9
159.0,68.3,59.8,63.4,63.8,4.3
160.0,68.6,60.1,63.9,64.2,4.3
161.0,68.9,61.0,63.5,64.4,4.1
162.0,69.2,60.3,63.4,64.3,4.5
163.0,70.0,60.5,63.0,64.5,4.9
164.0,69.2,59.4,62.3,63.6,5.0
165.0,68.4,59.6,63.4,63.8,4.4
166.0,67.6,59.2,62.4,63.1,4.2
167.0,68.8,58.2,61.9,63.0,5.4
168.0,66.4,60.2,62.2,62.9,3.2
169.0,66.5,59.8,61.9,62.7,3.4
170.0,67.7,58.4,61.0,62.3,4.8
171.0,66.4,59.2,60.8,62.2,3.8
172.0,66.6,58.7,61.7,62.3,4.0
173.0,66.3,58.5,60.7,61.8,4.0
174.0,66.3,57.2,62.1,61.9,4.5
175.0,65.3,56.9,61.0,61.1,4.2
176.0,65.3,56.7,61.6,61.2,4.3
177.0,65.6,56.1,60.6,60.8,4.7
178.0,65.5,57.1,60.1,60.9,4.2
179.0,66.3,57.0,60.6,61.3,4.7
180.0,66.2,55.7,59.2,60.4,5.4
181.0,65.6,55.2,59.8,60.2,5.2
182.0,65.1,56.2,60.5,60.6,4.5
183.0,64.0,55.7,59.6,59.8,4.1
184.0,64.1,56.3,59.2,59.9,4.0
185.0,63.2,56.6,59.8,59.8,3.3
186.0,62.5,56.7,59.9,59.7,2.9
187.0,62.2,56.7,58.6,59.1,2.8
188.0,62.1,56.2,58.7,59.0,3.0
189.0,63.0,56.2,58.2,59.1,3.5
190.0,60.9,56.5,58.5,58.6,2.2
191.0,61.9,56.2,58.4,58.8,2.9
192.0,60.2,55.8,57.0,57.6,2.3
193.0,59.8,55.7,57.8,57.8,2.0
194.0,59.9,55.4,57.0,57.4,2.3
195.0,59.5,55.0,57.5,57.3,2.3
196.0,59.7,55.3,57.7,57.6,2.2
197.0,60.1,55.6,57.5,57.7,2.2
198.0,61.3,55.3,59.2,58.6,3.0
199.0,61.2,55.4,60.1,58.9,3.1
200.0,61.1,55.3,59.1,58.5,2.9
201.0,60.1,55.2,58.8,58.0,2.6
202.0,60.9,54.7,59.9,58.5,3.3
203.0,58.7,53.6,58.9,57.1,3.0
204.0,58.9,53.5,58.4,56.9,3.0
205.0,59.9,53.2,58.3,57.1,3.5
206.0,58.5,53.3,57.1,56.3,2.7
207.0,58.5,52.7,57.6,56.2,3.1
208.0,59.3,52.9,57.2,56.5,3.3
209.0,59.1,53.0,57.3,56.4,3.1
210.0,57.4,52.9,57.0,55.8,2.5
211.0,58.5,51.8,57.8,56.0,3.7
212.0,57.9,51.5,56.8,55.4,3.4
213.0,57.7,50.3,58.6,55.5,4.6
214.0,57.2,51.0,57.5,55.2,3.7
215.0,57.0,51.7,57.5,55.4,3.2
216.0,56.3,50.4,57.4,54.7,3.8
217.0,56.1,51.2,57.2,54.8,3.2
218.0,54.2,51.2,57.5,54.3,3.2
219.0,55.3,51.1,57.9,54.8,3.4
220.0,54.9,51.6,57.4,54.6,2.9
221.0,55.0,50.7,56.6,54.1,3.1
222.0,54.0,50.1,56.2,53.4,3.1
223.0,54.0,49.8,56.3,53.4,3.3
224.0,54.8,49.5,56.0,53.5,3.5
225.0,53.3,49.5,55.2,52.7,2.9
226.0,52.7,49.0,56.0,52.6,3.5
227.0,52.5,48.3,55.3,52.0,3.5
228.0,52.6,49.3,55.6,52.5,3.1
229.0,52.4,47.7,55.8,52.0,4.0
230.0,52.0,48.8,55.8,52.2,3.5
231.0,52.9,48.9,56.6,52.8,3.8
232.0,52.1,48.6,56.2,52.3,3.8
233.0,52.7,49.4,56.0,52.7,3.3
234.0,52.7,50.7,55.7,53.0,2.5
235.0,52.3,49.7,56.5,52.8,3.5
236.0,53.4,50.8,55.5,53.2,2.4
237.0,52.9,49.7,54.5,52.4,2.4
238.0,52.1,49.8,54.7,52.2,2.5
239.0,53.5,49.5,54.1,52.4,2.5
240.0,52.3,49.9,54.8,52.4,2.5
241.0,52.5,49.1,54.1,51.9,2.6
242.0,51.5,48.3,54.6,51.5,3.2
243.0,51.6,48.4,53.9,51.3,2.8
244.0,50.8,48.2,53.8,50.9,2.8
245.0,51.4,47.6,53.7,50.9,3.1
246.0,50.2,47.7,54.3,50.7,3.3
247.0,49.9,47.4,54.4,50.6,3.5
248.0,50.3,47.6,53.6,50.5,3.0
249.0,49.3,48.2,54.5,50.7,3.4
250.0,50.1,47.7,53.9,50.5,3.1
251.0,49.4,48.1,53.3,50.3,2.7
252.0,49.9,48.1,53.4,50.5,2.7
253.0,48.7,48.5,51.4,49.5,1.6
254.0,48.4,47.8,52.4,49.5,2.5
255.0,48.9,48.4,52.5,49.9,2.3
256.0,48.3,46.9,51.5,48.9,2.4
257.0,48.4,47.4,51.2,49.0,2.0
258.0,47.2,47.0,51.8,48.7,2.7
259.0,47.0,46.0,53.6,48.9,4.1
260.0,46.2,45.9,52.7,48.3,3.8
261.0,46.1,45.7,51.8,47.9,3.4
262.0,45.9,45.7,52.2,47.9,3.7
263.0,45.7,45.1,51.6,47.4,3.6
264.0,46.3,44.4,51.1,47.2,3.4
265.0,45.9,44.6,51.0,47.2,3.4
266.0,46.1,44.1,50.2,46.8,3.1
267.0,46.4,43.8,50.3,46.8,3.3
268.0,46.2,44.5,49.5,46.7,2.5
269.0,46.2,44.4,49.9,46.9,2.8
270.0,47.3,43.4,49.7,46.8,3.2
271.0,46.6,43.2,50.0,46.6,3.4
272.0,45.9,43.0,50.0,46.3,3.5
273.0,46.5,43.1,51.3,47.0,4.1
274.0,46.0,42.9,50.2,46.4,3.7
275.0,45.0,43.7,51.3,46.7,4.0
276.0,45.5,44.1,51.0,46.8,3.6
277.0,44.9,44.3,51.5,46.9,4.0
278.0,45.5,45.2,49.3,46.7,2.3
278.5,45.0,44.9,50.8,46.9,3.3