Folder: fsri_materials_database/01_Data/Cellulose_Insulation/Cone (part 5)

File: Cellulose_Insulation_Cone_HF75Scan_230615_R3.csv
Names,Time,Stack TC,Smoke TC,Exh Press,Smoke Comp,Smoke Meas,CO Meter,CO2 Meter,O2 Meter,Sample Mass,Ext Coeff,Start Test,Flame Verif
Chan Gain,,500,500,1,1,1,1,1,1,1,1,1.0,1.0
Offset,,0,0,0.245636,0,0,0,0,0,0,0,0.0,0.0
Gain,,1,1,25.011,13.8799,15.0761,1,1,1,1.00094,1.03834,1.0,1.0
Units,sec,C,C,Pa,%,%,%,%,%,g,/m,,
Baseline,,46.3627,49.9116,137.711,99.8289,99.86,0.00012566,0.0464711,20.9618,-445.642,-0.00283078,,
21,5,46.3047,55.2261,118.455,100.933,101.159,0.000430118,0.0546518,20.9484,78.454,-0.0203552,0.0,1.0
42,10.25,51.9073,65.7951,125.437,100.927,100.926,0.000848952,0.177744,20.9473,77.5131,9.22916e-05,0.0,0.0
63,15.5,55.3857,70.3625,123.922,100.931,101.85,0.00275523,0.533401,20.6061,76.6923,-0.0825586,0.0,0.0
84,20.75,57.9724,72.2301,121.923,100.934,101.962,0.00372218,0.500172,20.3936,75.9516,-0.0923257,0.0,0.0
105,26,58.9431,72.4588,123.977,100.921,102.31,0.00305281,0.421733,20.463,75.351,-0.124491,0.0,0.0
126,31.25,59.872,71.9049,129.732,100.921,102.017,0.00244505,0.360614,20.5528,74.8406,-0.0983615,0.0,0.0
147,36.5,59.8995,70.6574,127.22,100.913,102.726,0.00187748,0.318791,20.6183,74.3801,-0.162208,0.0,0.0
168,41.75,60.3387,69.966,124.835,100.912,102.619,0.00216932,0.282688,20.6595,73.7896,-0.152777,0.0,0.0
189,47,60.2238,69.4162,130.832,100.899,102.155,0.00230982,0.267925,20.6996,73.3692,-0.112703,0.0,0.0
210,52.25,60.033,68.8998,131.174,100.917,101.814,0.00205433,0.249818,20.7175,72.9288,-0.0806107,0.0,0.0
231,57.5,59.961,67.9134,129.097,100.915,102.331,0.00201729,0.23808,20.7356,72.5484,-0.12687,0.0,0.0
252,62.75,59.8378,67.2242,131.218,100.919,102.566,0.00197028,0.223956,20.7479,72.148,-0.147468,0.0,0.0
273,68,59.525,67.4233,128.179,100.913,101.86,0.00199212,0.218603,20.759,71.6976,-0.0850291,0.0,0.0
294,73.25,59.2618,65.2377,128.59,100.923,102.106,0.00219587,0.215516,20.7649,71.2672,-0.106096,0.0,0.0
315,78.5,59.2115,66.7744,131.824,100.903,102.311,0.00240788,0.208028,20.7697,70.9669,-0.126213,0.0,0.0
336,83.75,59.0348,66.2689,130.309,100.909,102.261,0.00221252,0.20641,20.7783,70.6466,-0.121177,0.0,0.0
357,89,58.3859,66.5366,132.402,100.913,102.038,0.00226954,0.204078,20.7793,70.2963,-0.101016,0.0,0.0
378,94.25,59.3221,66.0323,134.707,100.883,102.099,0.00263912,0.198196,20.7847,69.976,-0.109192,0.0,0.0
399,99.5,58.3623,65.384,132.035,100.842,102.004,0.00260585,0.192252,20.7922,69.6557,-0.104284,0.0,0.0
420,104.75,58.526,66.04,132.762,100.791,102.707,0.00284884,0.187967,20.7974,69.3554,-0.171512,0.0,0.0
441,110,58.8652,65.2887,131.898,100.677,101.862,0.00270683,0.184685,20.8024,69.0251,-0.106554,0.0,0.0
462,115.25,59.1986,65.471,130.3,100.557,101.668,0.00249016,0.180506,20.8075,68.6547,-0.100146,0.0,0.0
483,120.5,58.6448,65.3799,130.655,100.424,102.07,0.0026485,0.18152,20.8081,68.3945,-0.148155,0.0,0.0
504,125.75,58.0038,64.8656,131.985,100.293,101.053,0.00245721,0.176731,20.8109,68.1743,-0.0687247,0.0,0.0
525,131,58.1518,64.6237,128.602,100.23,101.643,0.00294177,0.175352,20.8152,67.7539,-0.127588,0.0,0.0
546,136.25,58.0763,63.9417,132.222,100.154,101.394,0.00303895,0.173874,20.8169,67.4536,-0.112066,0.0,0.0
567,141.5,58.283,64.3304,130.673,100.038,101.237,0.00317716,0.170664,20.819,67.2534,-0.108523,0.0,0.0
588,146.75,58.0045,64.1149,132.646,99.9402,101.141,0.00320664,0.167369,20.823,66.8931,-0.108783,0.0,0.0
609,152,57.6122,64.0921,132.119,99.8784,101.04,0.0032468,0.168054,20.8242,66.7029,-0.105342,0.0,0.0
630,157.25,58.33,63.6005,128.53,99.7729,100.674,0.0031893,0.164576,20.8244,66.3426,-0.0818508,0.0,0.0
651,162.5,57.6571,63.6772,132.419,99.7128,100.854,0.00268034,0.163819,20.8264,66.1524,-0.103687,0.0,0.0
672,167.75,57.9027,63.5079,131.226,99.6802,100.465,0.00283703,0.16109,20.8276,65.9021,-0.0714049,0.0,0.0
693,173,57.6653,63.0854,131.241,99.6971,100.859,0.00336827,0.159462,20.8308,65.6719,-0.105576,0.0,0.0
714,178.25,57.699,63.7644,128.91,99.7416,100.672,0.00333696,0.158761,20.8329,65.4817,-0.0845458,0.0,0.0
735,183.5,57.5294,63.3778,134.141,99.7924,100.38,0.00338817,0.158024,20.8336,65.1815,-0.0534765,0.0,0.0
756,188.75,57.9354,63.5481,132.56,99.8415,100.474,0.00324787,0.156062,20.8358,65.0113,-0.0575469,0.0,0.0
777,194,57.5784,63.6344,134.413,99.8742,101.074,0.00335882,0.154539,20.8383,64.701,-0.108756,0.0,0.0
798,199.25,57.5525,62.8918,128.167,99.9068,101.036,0.00322883,0.156915,20.8359,64.4708,-0.102382,0.0,0.0
819,204.5,57.3939,63.247,130.247,99.9462,100.818,0.0031726,0.155236,20.8353,64.2606,-0.0791101,0.0,0.0
840,209.75,57.3609,63.1211,131.085,99.9165,100.684,0.00290506,0.153448,20.8384,64.0504,-0.0696667,0.0,0.0
861,215,57.5144,62.4203,133.562,99.8797,101.01,0.00315622,0.152945,20.8389,63.7901,-0.102489,0.0,0.0
882,220.25,57.9194,62.1584,130.989,99.861,100.939,0.00306276,0.152445,20.8389,63.63,-0.0977968,0.0,0.0
903,225.5,57.1488,62.7411,131.889,99.8182,100.673,0.00285291,0.149652,20.8422,63.4799,-0.077631,0.0,0.0
924,230.75,57.0076,62.4683,130.978,99.7861,100.678,0.00283537,0.15085,20.8425,63.2596,-0.0810264,0.0,0.0
945,236,56.517,63.0566,126.818,99.7522,100.836,0.00314132,0.148474,20.8425,63.0494,-0.0984274,0.0,0.0
966,241.25,57.1865,60.5889,133.961,99.7323,100.532,0.0032213,0.146942,20.8454,62.8793,-0.072734,0.0,0.0
987,246.5,57.4018,62.722,129.247,99.728,100.7,0.00347202,0.146254,20.8459,62.6591,-0.0883226,0.0,0.0
1008,251.75,57.1124,62.7051,129.061,99.7272,101.261,0.00324355,0.142476,20.8473,62.5189,-0.13903,0.0,0.0
1029,257,56.0115,61.8783,130.993,99.7484,100.653,0.00303343,0.142816,20.8512,62.3488,-0.0822622,0.0,0.0
1050,262.25,57.3851,62.4506,130.827,99.7759,100.693,0.00310345,0.140559,20.8511,62.1786,-0.0833278,0.0,0.0
1071,267.5,57.2243,62.203,130.429,99.8182,100.599,0.00296713,0.139701,20.8541,61.9985,-0.0709682,0.0,0.0
1092,272.75,56.3512,62.3342,130.165,99.8856,100.769,0.0031208,0.139756,20.8541,61.8884,-0.0801829,0.0,0.0
1113,278,56.3677,61.926,130.126,99.9559,101.003,0.003227,0.137949,20.8536,61.6882,-0.0949169,0.0,0.0
1134,283.25,56.9091,62.6293,131.909,100.043,100.839,0.00303756,0.138135,20.8549,61.518,-0.0721863,0.0,0.0
1155,288.5,57.0342,62.1492,131.753,100.127,100.883,0.00328307,0.135824,20.855,61.4179,-0.068501,0.0,0.0
1176,293.75,56.6649,62.2973,132.294,100.209,101.16,0.003391,0.133583,20.8577,61.2077,-0.0860813,0.0,0.0
1197,299,56.7822,61.5481,134.173,100.274,100.767,0.00329574,0.132618,20.86,61.0476,-0.0446696,0.0,0.0
1218,304.25,57.073,61.4263,134.067,100.356,101.106,0.00327921,0.131451,20.861,60.9875,-0.0678036,0.0,0.0
1239,309.5,56.7254,61.5891,133.654,100.424,101.273,0.00321992,0.129686,20.8646,60.8274,-0.0766499,0.0,0.0
1260,314.75,56.2402,61.0743,135.496,100.476,102.014,0.00328297,0.128195,20.8666,60.7673,-0.138344,0.0,0.0
1281,320,55.6586,60.5331,130.487,100.565,101.375,0.00300429,0.125648,20.8679,60.5771,-0.0730055,0.0,0.0
1302,325.25,56.7709,61.087,130.619,100.625,101.543,0.00306022,0.127198,20.8706,60.467,-0.0827525,0.0,0.0
1323,330.5,56.7551,60.7406,130.933,100.699,101.837,0.00331211,0.123841,20.8714,60.3669,-0.102378,0.0,0.0
1344,335.75,56.1784,61.4321,132.482,100.782,101.287,0.00325841,0.124703,20.8732,60.2368,-0.0455267,0.0,0.0
1365,341,55.2941,59.8578,134.958,100.82,101.752,0.00363843,0.125623,20.8713,60.1868,-0.083891,0.0,0.0
1386,346.25,55.8169,60.8,129.582,100.876,101.784,0.00380086,0.123389,20.8705,60.0566,-0.0816443,0.0,0.0
1407,351.5,56.381,60.9461,134.264,100.928,101.712,0.00376299,0.124397,20.8709,59.8965,-0.0705541,0.0,0.0
1428,356.75,54.9249,60.7202,132.385,100.953,102.056,0.00355836,0.122117,20.8715,59.8464,-0.098907,0.0,0.0
1449,362,55.7827,60.391,128.861,100.946,101.388,0.00343639,0.119932,20.8739,59.7063,-0.0397767,0.0,0.0
1470,367.25,54.0854,58.3321,133.609,100.936,102.088,0.00360564,0.124315,20.874,59.6562,-0.103389,0.0,0.0
1491,372.5,53.9443,58.8738,130.061,100.891,101.517,0.0039502,0.11965,20.8707,59.5962,-0.0563953,0.0,0.0
1512,377.75,54.1988,58.8779,129.333,100.826,101.568,0.00386362,0.119915,20.875,59.5762,-0.0668257,0.0,0.0
1533,383,53.9461,57.9523,136.605,100.769,101.611,0.00365294,0.118071,20.8756,59.406,-0.0757904,0.0,0.0
1554,388.25,54.1625,58.4548,133.022,100.657,101.51,0.00382587,0.118231,20.8757,59.386,-0.0767878,0.0,0.0
1575,393.5,53.8662,58.4963,132.718,100.538,101.357,0.00422551,0.115858,20.877,59.2359,-0.0738899,0.0,0.0
1596,398.75,53.372,58.3092,133.505,100.454,101.406,0.00423994,0.115171,20.8789,59.1958,-0.0859525,0.0,0.0
1617,404,53.2168,57.5515,131.718,100.374,101.547,0.00414993,0.114235,20.8776,59.1257,-0.105809,0.0,0.0
1638,409.25,53.5393,58.2781,133.205,100.329,101.222,0.00415567,0.113084,20.878,59.1257,-0.0807438,0.0,0.0
1659,414.5,53.7261,58.1718,134.884,100.31,101.145,0.00381664,0.112695,20.8795,59.1358,-0.0754762,0.0,0.0
1680,419.75,53.0044,57.9769,132.595,100.29,101.72,0.00369221,0.111031,20.8828,58.9956,-0.128926,0.0,0.0
1701,425,53.1401,55.9805,130.684,100.275,101.173,0.00333463,0.110351,20.8847,58.9556,-0.0811957,0.0,0.0
1722,430.25,53.4046,57.0322,134.939,100.289,101.297,0.00316535,0.110309,20.8845,58.9256,-0.0910639,0.0,0.0
1743,435.5,53.0108,57.2132,130.649,100.355,100.921,0.00302468,0.111333,20.8844,58.8955,-0.0512422,0.0,0.0
1764,440.75,51.9085,57.2664,131.375,100.396,100.94,0.00316453,0.112143,20.8817,58.8655,-0.0491771,0.0,0.0
1785,446,53.3962,57.2783,132.835,100.421,101.82,0.00304644,0.111582,20.8822,58.7954,-0.125983,0.0,0.0
1806,451.25,52.8936,57.5459,134.336,100.447,101.602,0.00298784,0.111319,20.8852,58.7354,-0.104071,0.0,0.0
1827,456.5,52.9263,57.3819,137.911,100.433,101.133,0.00306316,0.112395,20.884,58.7054,-0.0632513,0.0,0.0
1848,461.75,52.8314,56.9428,130.906,100.426,101.21,0.00294197,0.111018,20.883,58.6353,-0.0708659,0.0,0.0
1869,467,52.9323,57.2416,131.025,100.418,101.385,0.00281391,0.110942,20.8832,58.5052,-0.0873551,0.0,0.0
1890,472.25,52.1823,57.0604,133.426,100.376,100.883,0.00290889,0.111494,20.8822,58.4851,-0.0458727,0.0,0.0
1911,477.5,52.6696,57.2162,131.504,100.334,101.35,0.00265952,0.111255,20.8811,58.4351,-0.091824,0.0,0.0
1932,482.75,51.6115,57.2677,136.992,100.317,101.297,0.00258902,0.111762,20.881,58.4151,-0.0886054,0.0,0.0
1939,484.5,52.3183,57.0037,135.462,100.317,101.042,0.00248954,0.110801,20.881,58.4651,-0.0655362,0.0,0.0

File: Cellulose_Insulation_HRRPUA_25.csv
Time after Ignition,Cellulose_Insulation_R1,Cellulose_Insulation_R2,Cellulose_Insulation_R3,Mean,Std. Dev.
0.0,4.5,9.4,4.7,6.2,2.8
1.0,4.2,8.4,4.6,5.8,2.3
2.0,4.2,8.0,4.8,5.7,2.1
3.0,4.1,7.5,4.7,5.5,1.8
4.0,4.0,7.3,4.8,5.4,1.7
5.0,3.9,6.9,4.8,5.2,1.5
6.0,3.8,6.1,4.8,4.9,1.1
7.0,4.0,5.4,4.8,4.8,0.7
8.0,4.5,5.0,5.0,4.9,0.3
9.0,5.6,5.1,5.3,5.3,0.2
10.0,7.6,5.5,5.6,6.2,1.2
11.0,10.7,5.9,12.2,9.6,3.3
12.0,24.4,20.1,26.6,23.7,3.3
13.0,43.5,47.3,50.4,47.1,3.4
14.0,68.8,69.8,72.9,70.5,2.1
15.0,88.9,93.1,93.9,92.0,2.7
16.0,101.8,110.2,106.3,106.1,4.2
17.0,111.2,123.1,113.2,115.8,6.3
18.0,117.2,132.0,118.2,122.5,8.3
19.0,118.9,132.5,120.1,123.8,7.5
20.0,117.2,134.0,119.9,123.7,9.0
21.0,117.3,131.8,117.8,122.3,8.3
22.0,114.3,129.9,116.2,120.1,8.5
23.0,108.6,128.8,114.9,117.4,10.3
24.0,106.0,124.3,109.9,113.4,9.6
25.0,104.3,121.7,107.1,111.0,9.4
26.0,101.2,115.3,103.4,106.6,7.6
27.0,98.9,115.0,101.8,105.2,8.5
28.0,94.8,109.6,99.8,101.4,7.5
29.0,90.8,109.5,97.6,99.3,9.4
30.0,86.7,106.2,97.4,96.8,9.7
31.0,85.6,105.6,95.9,95.7,10.0
32.0,83.1,102.1,94.1,93.1,9.5
33.0,81.0,99.9,92.3,91.1,9.5
34.0,80.1,97.1,92.5,89.9,8.8
35.0,76.5,96.3,90.1,87.6,10.1
36.0,76.3,94.1,87.6,86.0,9.0
37.0,76.1,91.6,86.5,84.7,7.9
38.0,74.1,91.3,84.3,83.3,8.6
39.0,74.0,90.8,83.1,82.6,8.4
40.0,74.8,88.5,82.2,81.8,6.8
41.0,74.0,84.1,80.3,79.4,5.1
42.0,73.6,83.0,79.7,78.8,4.8
43.0,73.3,82.3,78.6,78.0,4.5
44.0,72.2,80.1,79.2,77.2,4.4
45.0,72.6,79.9,77.9,76.8,3.8
46.0,71.6,77.0,77.9,75.5,3.4
47.0,72.2,76.3,76.1,74.9,2.3
48.0,70.9,75.5,75.4,74.0,2.6
49.0,71.3,74.4,74.3,73.4,1.7
50.0,72.1,73.0,72.8,72.6,0.5
51.0,72.9,72.1,71.5,72.2,0.7
52.0,72.1,71.3,69.3,70.9,1.5
53.0,72.1,70.3,67.3,69.9,2.5
54.0,71.3,69.1,65.2,68.5,3.1
55.0,70.7,68.6,64.2,67.9,3.3
56.0,69.7,67.3,63.2,66.7,3.3
57.0,69.9,67.6,62.2,66.6,4.0
58.0,68.4,66.6,60.6,65.2,4.1
59.0,67.6,66.5,59.9,64.7,4.2
60.0,66.5,65.5,58.0,63.3,4.6
61.0,65.4,65.7,57.5,62.9,4.7
62.0,63.6,65.2,56.1,61.6,4.9
63.0,62.7,64.5,55.3,60.8,4.9
64.0,61.8,64.6,54.7,60.3,5.1
65.0,61.9,63.6,54.3,59.9,5.0
66.0,60.1,62.7,53.1,58.6,5.0
67.0,59.1,62.1,52.9,58.0,4.7
68.0,58.3,62.5,51.6,57.5,5.5
69.0,56.0,61.3,51.6,56.3,4.9
70.0,55.8,61.5,51.0,56.1,5.3
71.0,55.3,60.4,50.6,55.4,4.9
72.0,53.9,60.0,50.7,54.9,4.7
73.0,53.7,59.3,50.2,54.4,4.6
74.0,53.4,59.8,50.1,54.4,4.9
75.0,52.8,59.7,48.9,53.8,5.4
76.0,53.2,58.8,48.3,53.4,5.2
77.0,52.6,57.9,48.6,53.1,4.7
78.0,51.6,57.2,48.0,52.3,4.7
79.0,50.9,57.0,47.5,51.8,4.8
80.0,51.0,57.7,47.8,52.2,5.1
81.0,49.4,56.9,46.7,51.0,5.3
82.0,48.9,57.4,46.8,51.0,5.6
83.0,48.5,56.9,46.7,50.7,5.4
84.0,47.5,56.8,44.6,49.6,6.4
85.0,45.8,56.0,44.8,48.9,6.2
86.0,45.2,55.2,44.9,48.4,5.9
87.0,43.9,55.1,45.1,48.0,6.1
88.0,43.2,54.4,44.1,47.2,6.2
89.0,41.9,54.6,44.5,47.0,6.7
90.0,40.6,54.0,43.5,46.0,7.1
91.0,40.8,54.4,43.4,46.2,7.2
92.0,40.0,53.2,43.3,45.5,6.9
93.0,39.3,52.0,42.9,44.7,6.5
94.0,38.7,52.0,42.4,44.3,6.9
95.0,38.2,50.8,42.4,43.8,6.4
96.0,37.7,49.5,42.1,43.1,6.0
97.0,37.4,48.9,42.6,42.9,5.8
98.0,36.0,47.9,41.2,41.7,6.0
99.0,35.9,47.3,42.8,42.0,5.8
100.0,35.5,45.8,41.4,40.9,5.1
101.0,35.0,45.4,41.0,40.5,5.2
102.0,35.2,44.3,41.3,40.3,4.6
103.0,35.5,44.5,39.8,39.9,4.5
104.0,36.0,43.5,39.5,39.7,3.8
105.0,36.0,43.8,39.5,39.8,3.9
106.0,35.7,42.6,39.8,39.4,3.5
107.0,34.9,43.1,40.0,39.3,4.2
108.0,34.8,42.8,39.3,39.0,4.0
109.0,33.9,42.2,39.3,38.4,4.2
110.0,34.2,41.7,39.1,38.3,3.8
111.0,34.1,40.4,38.5,37.7,3.3
112.0,33.4,39.7,38.3,37.2,3.3
113.0,33.2,39.1,37.6,36.6,3.1
114.0,33.4,38.0,37.2,36.2,2.4
115.0,33.0,37.2,36.5,35.6,2.2
116.0,32.9,37.6,36.7,35.8,2.5
117.0,33.6,37.6,37.1,36.1,2.2
118.0,33.3,37.8,35.5,35.5,2.2
119.0,34.0,36.9,35.7,35.6,1.4
120.0,33.8,36.3,34.6,34.9,1.3
121.0,33.7,36.6,34.2,34.8,1.6
122.0,33.4,36.0,33.4,34.3,1.5
123.0,32.8,36.5,31.9,33.7,2.4
124.0,33.2,36.1,31.7,33.7,2.2
125.0,33.0,36.0,30.2,33.1,2.9
126.0,33.9,36.5,29.5,33.3,3.5
127.0,33.0,36.1,29.0,32.7,3.6
128.0,32.7,36.0,28.9,32.6,3.5
129.0,32.1,35.6,28.7,32.1,3.4
130.0,31.6,35.4,29.1,32.0,3.2
131.0,31.1,35.4,29.1,31.9,3.2
132.0,30.5,34.2,29.7,31.5,2.4
133.0,30.3,34.6,30.2,31.7,2.5
134.0,29.4,33.9,30.5,31.3,2.4
135.0,28.6,33.0,30.9,30.8,2.2
136.0,27.0,33.4,31.0,30.5,3.3
137.0,27.1,32.1,31.3,30.2,2.7
138.0,26.4,31.8,31.2,29.8,3.0
139.0,25.8,31.1,,28.4,3.7
140.0,25.8,30.6,,28.2,3.4
141.0,24.7,,,24.7,
142.0,24.3,,,24.3,
143.0,23.9,,,23.9,
144.0,23.7,,,23.7,
145.0,23.2,,,23.2,
146.0,22.3,,,22.3,
147.0,22.0,,,22.0,
148.0,21.3,,,21.3,
149.0,21.5,,,21.5,
150.0,21.2,,,21.2,
151.0,21.1,,,21.1,
152.0,21.0,,,21.0,
153.0,21.1,,,21.1,
154.0,20.8,,,20.8,
155.0,20.9,,,20.9,
156.0,21.0,,,21.0,
157.0,21.3,,,21.3,
158.0,20.8,,,20.8,
159.0,20.3,,,20.3,
160.0,19.9,,,19.9,
161.0,19.3,,,19.3,
162.0,19.2,,,19.2,
163.0,18.9,,,18.9,
164.0,18.8,,,18.8,
165.0,18.4,,,18.4,
166.0,18.1,,,18.1,
167.0,17.9,,,17.9,
168.0,18.1,,,18.1,
169.0,18.3,,,18.3,
170.0,18.2,,,18.2,
171.0,18.2,,,18.2,
172.0,18.4,,,18.4,
173.0,17.8,,,17.8,
174.0,17.7,,,17.7,
175.0,17.4,,,17.4,
176.0,17.4,,,17.4,
177.0,17.1,,,17.1,
178.0,16.9,,,16.9,
179.0,17.0,,,17.0,
180.0,17.2,,,17.2,
181.0,17.0,,,17.0,
182.0,17.0,,,17.0,
183.0,17.0,,,17.0,
184.0,16.9,,,16.9,
185.0,16.9,,,16.9,
186.0,16.7,,,16.7,
187.0,16.3,,,16.3,
188.0,16.0,,,16.0,
189.0,16.1,,,16.1,
190.0,16.3,,,16.3,
191.0,16.7,,,16.7,
192.0,16.7,,,16.7,
193.0,16.9,,,16.9,
194.0,16.5,,,16.5,
195.0,16.2,,,16.2,
196.0,16.4,,,16.4,
197.0,16.1,,,16.1,
198.0,15.9,,,15.9,
199.0,15.8,,,15.8,
200.0,15.7,,,15.7,
201.0,15.8,,,15.8,
202.0,15.6,,,15.6,
203.0,15.7,,,15.7,
204.0,16.2,,,16.2,
205.0,16.3,,,16.3,
206.0,16.1,,,16.1,
207.0,16.2,,,16.2,
208.0,16.2,,,16.2,
209.0,16.4,,,16.4,
210.0,16.2,,,16.2,
211.0,16.3,,,16.3,
212.0,16.6,,,16.6,
213.0,16.8,,,16.8,
214.0,16.4,,,16.4,
215.0,16.5,,,16.5,
216.0,16.2,,,16.2,
217.0,16.8,,,16.8,
218.0,17.0,,,17.0,
219.0,16.7,,,16.7,
220.0,16.5,,,16.5,
221.0,16.2,,,16.2,
222.0,16.2,,,16.2,
223.0,16.2,,,16.2,
224.0,16.2,,,16.2,
225.0,15.9,,,15.9,
226.0,16.3,,,16.3,
227.0,16.3,,,16.3,
228.0,16.1,,,16.1,
229.0,16.1,,,16.1,
230.0,16.3,,,16.3,
230.75,16.3,,,16.3,

File: Cellulose_Insulation_HRRPUA_50.csv
Time after Ignition,Cellulose_Insulation_R1,Cellulose_Insulation_R2,Cellulose_Insulation_R3,Mean,Std. Dev.
0.0,1.0,0.0,1.8,0.9,0.9
1.25,1.0,0.1,1.7,0.9,0.8
2.5,0.7,0.4,2.0,1.0,0.8
3.75,0.2,0.8,2.3,1.1,1.1
5.0,-0.0,1.0,2.7,1.3,1.4
6.25,0.2,1.2,2.7,1.4,1.3
7.5,0.3,1.3,2.4,1.4,1.0
8.75,0.8,1.3,2.1,1.4,0.7
10.0,3.0,1.9,2.0,2.3,0.6
11.25,17.5,5.0,5.6,9.4,7.0
12.5,44.9,26.3,22.7,31.3,11.9
13.75,86.6,64.6,67.7,73.0,11.9
15.0,123.5,118.6,112.1,118.1,5.7
16.25,144.7,154.5,136.1,145.1,9.2
17.5,159.9,172.1,161.7,164.6,6.6
18.75,168.5,183.2,176.3,176.0,7.3
20.0,176.8,190.5,179.4,182.2,7.3
21.25,177.3,190.9,182.6,183.6,6.9
22.5,171.6,191.3,179.3,180.8,9.9
23.75,170.4,184.8,176.7,177.3,7.2
25.0,167.6,178.3,171.8,172.6,5.4
26.25,164.0,172.0,165.1,167.0,4.3
27.5,158.7,166.9,159.5,161.7,4.6
28.75,156.7,161.4,152.9,157.0,4.3
30.0,148.4,155.0,149.2,150.9,3.6
31.25,143.9,146.6,141.5,144.0,2.6
32.5,138.3,142.6,141.4,140.8,2.2
33.75,136.9,137.2,135.6,136.6,0.9
35.0,132.6,135.6,129.5,132.6,3.1
36.25,127.7,127.2,126.8,127.2,0.5
37.5,123.1,122.0,123.3,122.8,0.7
38.75,122.6,118.9,120.2,120.6,1.9
40.0,118.7,115.5,117.6,117.3,1.6
41.25,116.4,112.9,114.4,114.6,1.7
42.5,113.6,110.8,112.9,112.4,1.4
43.75,111.7,107.3,111.1,110.1,2.4
45.0,108.1,106.4,109.4,108.0,1.5
46.25,107.1,102.1,106.1,105.1,2.7
47.5,104.1,99.9,104.3,102.8,2.5
48.75,101.2,97.9,101.2,100.1,1.9
50.0,99.7,97.0,98.4,98.4,1.4
51.25,96.5,93.2,97.0,95.6,2.1
52.5,94.0,93.5,96.5,94.7,1.6
53.75,91.3,90.4,95.0,92.2,2.4
55.0,89.8,89.7,93.2,90.9,2.0
56.25,88.4,87.5,89.9,88.6,1.2
57.5,85.5,87.1,89.1,87.3,1.8
58.75,84.4,85.7,87.8,86.0,1.7
60.0,83.1,84.1,85.6,84.3,1.2
61.25,83.2,82.4,85.3,83.7,1.5
62.5,81.5,80.8,83.2,81.8,1.3
63.75,80.2,82.1,83.6,82.0,1.7
65.0,78.9,81.7,82.7,81.1,2.0
66.25,77.5,79.9,82.0,79.8,2.2
67.5,77.1,80.1,79.4,78.8,1.5
68.75,76.6,79.5,78.5,78.2,1.5
70.0,76.2,79.8,78.3,78.1,1.8
71.25,76.1,78.9,78.0,77.7,1.4
72.5,74.4,77.2,77.3,76.3,1.6
73.75,74.3,76.5,76.8,75.8,1.4
75.0,73.2,76.2,76.0,75.1,1.7
76.25,74.5,76.6,75.0,75.4,1.1
77.5,73.7,75.5,75.2,74.8,0.9
78.75,73.5,74.0,74.8,74.1,0.6
80.0,72.0,72.3,72.4,72.2,0.2
81.25,72.6,71.6,72.6,72.3,0.6
82.5,71.7,71.6,71.8,71.7,0.1
83.75,71.1,71.0,70.9,71.0,0.1
85.0,70.2,70.0,70.9,70.4,0.5
86.25,70.7,71.0,71.1,70.9,0.2
87.5,69.5,70.6,70.0,70.0,0.6
88.75,67.7,69.6,70.8,69.3,1.6
90.0,67.7,69.3,69.8,69.0,1.1
91.25,66.6,70.7,69.8,69.0,2.2
92.5,66.7,69.3,69.3,68.4,1.5
93.75,66.2,69.7,68.2,68.0,1.8
95.0,66.3,68.9,68.4,67.9,1.4
96.25,66.1,69.0,67.5,67.5,1.5
97.5,65.8,69.5,67.9,67.8,1.8
98.75,65.8,68.3,67.7,67.3,1.3
100.0,64.2,66.2,68.1,66.2,1.9
101.25,65.9,68.4,66.3,66.9,1.3
102.5,66.1,66.8,66.7,66.5,0.4
103.75,66.3,66.1,65.8,66.1,0.2
105.0,65.1,67.4,64.7,65.7,1.5
106.25,64.5,66.1,65.2,65.3,0.8
107.5,64.7,65.2,64.4,64.8,0.4
108.75,63.9,65.5,64.0,64.4,0.9
110.0,64.3,63.8,63.6,63.9,0.4
111.25,62.6,64.5,63.2,63.4,0.9
112.5,62.3,64.9,62.0,63.0,1.6
113.75,62.1,64.1,62.8,63.0,1.0
115.0,61.2,63.9,62.0,62.4,1.4
116.25,62.5,64.2,61.3,62.7,1.5
117.5,61.0,63.6,60.1,61.6,1.8
118.75,60.8,65.6,59.0,61.8,3.4
120.0,60.6,63.6,59.0,61.1,2.3
121.25,59.5,64.5,58.7,60.9,3.2
122.5,58.2,64.3,58.4,60.3,3.5
123.75,58.4,64.6,58.3,60.4,3.6
125.0,58.5,63.0,58.9,60.1,2.5
126.25,58.3,63.6,58.5,60.1,3.0
127.5,57.4,63.7,58.3,59.8,3.4
128.75,58.2,63.9,57.9,60.0,3.4
130.0,57.4,64.8,57.0,59.7,4.4
131.25,58.2,62.9,56.8,59.3,3.2
132.5,57.9,61.9,58.6,59.5,2.1
133.75,57.9,62.6,56.9,59.1,3.0
135.0,57.6,63.2,56.7,59.1,3.5
136.25,57.2,62.5,58.1,59.2,2.8
137.5,57.6,61.4,56.3,58.5,2.6
138.75,56.3,62.3,56.5,58.3,3.4
140.0,56.9,61.9,56.5,58.4,3.0
141.25,57.0,61.0,56.2,58.1,2.5
142.5,58.2,60.5,54.9,57.8,2.8
143.75,57.0,61.7,54.2,57.6,3.8
145.0,57.6,61.6,53.8,57.6,3.9
146.25,56.9,61.6,53.8,57.4,3.9
147.5,57.3,62.0,54.1,57.8,4.0
148.75,57.5,60.4,52.7,56.9,3.9
150.0,57.7,60.6,52.8,57.1,3.9
151.25,58.0,60.5,52.3,57.0,4.2
152.5,57.5,60.3,51.5,56.4,4.5
153.75,57.7,60.6,52.2,56.8,4.3
155.0,58.4,59.4,51.2,56.3,4.5
156.25,57.5,59.9,51.4,56.3,4.4
157.5,56.9,57.2,50.9,55.0,3.6
158.75,57.6,57.1,49.9,54.8,4.3
160.0,56.2,56.5,50.4,54.4,3.4
161.25,57.7,56.4,50.3,54.8,3.9
162.5,57.4,56.5,50.2,54.7,4.0
163.75,57.4,57.6,49.0,54.7,4.9
165.0,56.8,58.2,49.0,54.6,4.9
166.25,56.3,58.3,49.6,54.8,4.6
167.5,57.2,58.3,48.6,54.7,5.3
168.75,56.0,57.2,48.9,54.0,4.5
170.0,56.2,56.6,49.5,54.1,4.0
171.25,57.1,56.7,49.3,54.4,4.4
172.5,56.9,55.7,49.1,53.9,4.2
173.75,57.0,56.1,48.0,53.7,5.0
175.0,56.1,56.6,49.0,53.9,4.2
176.25,56.3,56.1,48.7,53.7,4.3
177.5,56.1,55.8,48.8,53.6,4.1
178.75,56.3,56.8,48.9,54.0,4.4
180.0,55.2,55.3,47.0,52.5,4.7
181.25,55.7,55.1,48.4,53.1,4.1
182.5,54.8,55.2,48.8,52.9,3.6
183.75,55.1,54.4,48.3,52.6,3.8
185.0,54.3,54.0,48.1,52.1,3.5
186.25,54.8,54.3,48.1,52.4,3.8
187.5,55.4,54.2,48.2,52.6,3.9
188.75,54.8,54.9,48.5,52.7,3.7
190.0,55.1,55.6,47.8,52.8,4.4
191.25,55.3,55.9,48.3,53.2,4.2
192.5,54.8,56.9,48.3,53.3,4.5
193.75,53.8,56.6,48.8,53.1,3.9
195.0,54.0,56.2,48.8,53.0,3.8
196.25,54.2,55.8,48.1,52.7,4.1
197.5,53.8,55.6,48.5,52.6,3.7
198.75,53.2,55.2,47.8,52.1,3.8
200.0,53.2,55.3,47.5,52.0,4.1
201.25,52.7,55.2,48.2,52.0,3.5
202.5,52.7,53.9,48.5,51.7,2.8
203.75,53.1,54.0,47.6,51.6,3.5
205.0,53.1,53.6,47.8,51.5,3.2
206.25,52.8,54.7,46.8,51.4,4.1
207.5,54.1,54.9,47.2,52.1,4.3
208.75,54.3,55.9,47.8,52.7,4.3
210.0,53.6,55.3,48.8,52.6,3.4
211.25,53.3,54.5,48.9,52.2,3.0
212.5,52.4,56.1,49.6,52.7,3.3
213.75,52.6,55.4,50.0,52.7,2.7
215.0,52.1,56.0,50.1,52.7,3.0
216.25,52.7,55.3,49.3,52.4,3.0
217.5,52.7,55.3,48.6,52.2,3.4
218.75,52.2,55.6,49.3,52.3,3.1
220.0,52.2,57.0,49.2,52.8,3.9
221.25,51.3,55.8,49.3,52.1,3.3
222.5,51.8,56.0,49.1,52.3,3.5
223.75,51.9,56.4,48.5,52.3,3.9
225.0,51.7,56.5,48.3,52.2,4.1
226.25,50.4,55.5,48.3,51.4,3.7
227.5,51.3,55.5,48.1,51.6,3.7
228.75,51.2,54.7,47.4,51.1,3.6
230.0,51.0,54.7,47.8,51.1,3.4
231.25,51.4,54.2,47.3,51.0,3.5
232.5,50.5,52.7,48.1,50.4,2.3
233.75,50.9,52.7,47.7,50.4,2.5
235.0,51.2,52.1,47.9,50.4,2.2
236.25,51.6,51.6,47.6,50.3,2.3
237.5,51.2,52.6,47.4,50.4,2.7
238.75,51.6,51.4,47.6,50.2,2.3
240.0,50.8,51.7,46.8,49.8,2.6
241.25,50.3,51.7,46.6,49.6,2.7
242.5,50.0,51.8,46.7,49.5,2.6
243.75,51.1,52.4,46.6,50.0,3.0
245.0,49.5,52.2,47.1,49.6,2.6
246.25,49.7,51.6,46.7,49.3,2.5
247.5,49.8,51.5,47.3,49.5,2.1
248.75,50.0,51.9,47.0,49.6,2.5
250.0,50.0,51.8,46.3,49.4,2.8
251.25,50.5,51.7,47.0,49.7,2.5
252.5,50.1,52.3,47.2,49.8,2.5
253.75,50.3,51.4,47.1,49.6,2.3
255.0,49.7,52.0,46.2,49.3,2.9
256.25,50.4,51.0,46.9,49.4,2.2
257.5,50.3,51.3,47.9,49.8,1.8
258.75,50.0,50.1,47.5,49.2,1.5
260.0,49.8,51.3,47.9,49.7,1.7
261.25,50.2,51.1,48.0,49.8,1.6
262.5,50.4,50.5,47.7,49.5,1.6
263.75,50.4,50.9,47.2,49.5,2.0
265.0,49.1,49.7,46.9,48.6,1.5
266.25,49.1,49.9,46.7,48.6,1.7
267.5,49.6,50.2,47.1,48.9,1.6
268.75,49.1,50.9,47.8,49.3,1.6
270.0,49.1,50.2,48.7,49.4,0.8
271.25,49.3,49.5,47.5,48.7,1.1
272.5,48.9,49.9,48.1,49.0,0.9
273.75,48.6,50.7,47.7,49.0,1.6
275.0,49.1,50.0,48.4,49.1,0.8
276.25,48.3,48.6,48.8,48.5,0.3
277.5,47.6,48.9,48.0,48.2,0.6
278.75,48.1,48.6,48.4,48.4,0.3
280.0,47.6,47.8,48.6,48.0,0.5
281.25,46.3,47.3,48.3,47.3,1.0
282.5,46.7,46.5,49.8,47.7,1.8
283.75,45.4,46.6,49.0,47.0,1.8
285.0,46.7,45.8,48.5,47.0,1.4
286.25,46.4,46.0,48.3,46.9,1.2
287.5,45.7,44.7,48.6,46.3,2.0
288.75,46.4,45.3,48.8,46.8,1.8
290.0,46.4,45.5,48.7,46.8,1.6
291.25,45.9,46.2,47.8,46.6,1.0
292.5,46.0,46.4,48.7,47.0,1.5
293.75,45.0,47.4,48.6,47.0,1.8
295.0,44.2,47.0,47.3,46.2,1.7
296.25,44.2,46.4,48.0,46.2,1.9
297.5,45.3,46.6,47.3,46.4,1.0
298.75,44.2,47.1,46.9,46.1,1.6
300.0,43.5,46.6,46.4,45.5,1.7
301.25,42.9,47.1,46.5,45.5,2.3
302.5,44.1,47.2,47.0,46.1,1.7
303.75,43.9,46.3,46.2,45.5,1.4
305.0,43.6,46.3,45.6,45.2,1.4
306.25,44.1,46.8,45.5,45.5,1.4
307.5,43.9,46.6,45.0,45.2,1.4
308.75,42.9,45.5,44.1,44.2,1.3
310.0,42.7,44.8,43.5,43.7,1.1
311.25,43.8,45.1,42.6,43.8,1.2
312.5,43.3,45.6,41.6,43.5,2.0
313.75,43.6,45.4,42.0,43.7,1.7
315.0,42.6,45.2,41.8,43.2,1.8
316.25,42.9,45.6,42.0,43.5,1.8
317.5,42.2,44.2,42.1,42.8,1.2
318.75,42.1,44.4,41.8,42.8,1.4
320.0,42.0,44.4,41.1,42.5,1.7
321.25,40.7,43.7,40.8,41.7,1.7
322.5,40.4,44.7,41.5,42.2,2.2
323.75,40.4,44.5,41.0,42.0,2.2
325.0,40.3,44.1,40.4,41.6,2.2
326.25,40.5,43.3,40.6,41.4,1.6
327.5,40.4,42.9,41.0,41.4,1.3
328.75,40.8,42.7,42.1,41.9,1.0
330.0,42.1,42.1,41.7,42.0,0.3
331.25,42.2,42.1,42.9,42.4,0.4
332.5,42.2,42.6,42.5,42.4,0.2
333.75,43.9,42.5,41.9,42.8,1.0
335.0,43.3,42.5,41.8,42.6,0.7
336.25,43.7,42.4,40.8,42.3,1.5
337.5,43.5,41.7,40.4,41.9,1.5
338.75,43.0,41.1,40.4,41.5,1.3
340.0,42.0,40.8,40.3,41.0,0.9
341.25,41.8,40.4,39.2,40.4,1.3
342.5,41.6,39.6,38.9,40.1,1.4
343.75,41.3,39.6,38.5,39.8,1.4
345.0,42.0,39.2,38.2,39.8,2.0
346.25,41.2,39.1,38.7,39.7,1.3
347.5,40.9,38.3,38.0,39.0,1.6
348.75,40.6,38.0,38.3,39.0,1.4
350.0,40.4,39.0,37.7,39.0,1.3
351.25,39.3,38.7,37.5,38.5,0.9
351.5,38.8,38.6,37.2,38.2,0.9