Folder: fsri_materials_database/01_Data/Cellulose_Insulation/Cone (part 2)

File: Cellulose_Insulation_Cone_HF25Scan_230613_R3.csv
Names,Time,Stack TC,Smoke TC,Exh Press,Smoke Comp,Smoke Meas,CO Meter,CO2 Meter,O2 Meter,Sample Mass,Ext Coeff,Start Test,Flame Verif
Chan Gain,,500,500,1,1,1,1,1,1,1,1,1.0,1.0
Offset,,0,0,0.142142,0,0,0,0,0,0,0,0.0,0.0
Gain,,1,1,25.011,13.3129,15.7223,1,1,1,1.00097,1.04429,1.0,1.0
Units,sec,C,C,Pa,%,%,%,%,%,g,/m,,
Baseline,,27.2667,28.7692,157.095,100.159,100.28,4.95676e-05,0.0450485,20.9656,-445.076,-0.0110743,,
12,2.75,23.1645,24.6872,156.034,99.9113,99.6372,9.71078e-05,0.049728,20.9571,55.6937,0.0251645,0.0,0.0
24,5.75,24.8489,25.1821,155.56,100.155,98.6742,7.22045e-05,0.050197,20.9576,55.5836,0.136451,0.0,0.0
36,8.75,24.4145,25.5814,157.769,100.362,96.7814,2.62363e-05,0.0513178,20.9566,55.3133,0.332811,0.0,0.0
48,11.75,26.4015,30.9868,143.855,100.578,101.25,0.000101691,0.051836,20.9563,54.973,-0.0610303,0.0,1.0
60,14.75,26.9007,32.996,149.245,100.736,101.007,0.000149415,0.0517664,20.9562,54.6927,-0.0246119,0.0,0.0
72,17.75,28.3925,34.9095,145.433,100.825,101.608,0.000155948,0.0869243,20.9555,54.4125,-0.0709228,0.0,0.0
84,20.75,29.2186,36.3835,149.041,100.868,101.332,0.00059612,0.189706,20.9353,54.1422,-0.0419876,0.0,0.0
96,23.75,29.5695,36.3453,147.221,100.84,101.312,0.00118616,0.243323,20.8,53.912,-0.0427863,0.0,0.0
108,26.75,30.1326,37.0919,152.916,100.76,101.812,0.0013106,0.244607,20.7365,53.6718,-0.0951227,0.0,0.0
120,29.75,30.5565,36.5585,150.709,100.628,101.161,0.00129295,0.230042,20.7317,53.5616,-0.0484393,0.0,0.0
132,32.75,30.854,37.2267,147.18,100.464,101.127,0.00152972,0.215032,20.7458,53.3815,-0.0602773,0.0,0.0
144,35.75,30.968,37.0169,150.652,100.297,100.74,0.00169058,0.206277,20.7638,53.1713,-0.040368,0.0,0.0
156,38.75,30.9293,36.6568,156.467,100.1,100.333,0.00179267,0.196971,20.7731,53.0111,-0.0213096,0.0,0.0
168,41.75,31.3665,37.1187,154.151,99.9645,100.372,0.001936,0.188929,20.7832,52.841,-0.0372892,0.0,0.0
180,44.75,31.7234,36.7192,151.113,100.117,100.492,0.00232543,0.181056,20.7918,52.6808,-0.034236,0.0,0.0
192,47.75,31.3277,36.5301,149.672,100.298,100.737,0.00292449,0.174584,20.8018,52.5407,-0.0399572,0.0,0.0
204,50.75,31.6135,36.3002,152.232,100.374,100.476,0.00315141,0.170655,20.8098,52.4105,-0.00932939,0.0,0.0
216,53.75,31.6776,35.9866,153,100.336,100.736,0.00358742,0.167048,20.814,52.2504,-0.036463,0.0,0.0
228,56.75,31.8416,35.7525,151.581,100.218,100.725,0.00360843,0.160607,20.8177,52.1203,-0.0462972,0.0,0.0
240,59.75,31.7178,35.4451,153.496,99.997,100.43,0.00351445,0.152378,20.8258,52.0001,-0.0395646,0.0,0.0
252,62.75,31.7495,35.4589,151.948,99.761,100.062,0.00385698,0.14638,20.836,51.82,-0.0275857,0.0,0.0
264,65.75,31.4255,35.4886,159.097,99.6159,100.317,0.00423873,0.141347,20.8438,51.6898,-0.0642078,0.0,0.0
276,68.75,31.8636,35.0638,157.206,99.6907,100.319,0.0048211,0.137427,20.8508,51.5897,-0.0575555,0.0,0.0
288,71.75,31.3791,34.7917,149.951,99.7967,100.143,0.00528996,0.134198,20.8567,51.3996,-0.0317669,0.0,0.0
300,74.75,31.1133,34.79,154.008,99.9487,100.262,0.00550834,0.129954,20.8607,51.3295,-0.0287085,0.0,0.0
312,77.75,31.0685,34.5152,154.262,100.081,100.558,0.0059751,0.127092,20.8653,51.1894,-0.043585,0.0,0.0
324,80.75,31.5568,34.3271,154.031,100.193,100.663,0.00652653,0.124958,20.8672,51.0092,-0.0428444,0.0,0.0
336,83.75,30.7536,33.9284,153.954,100.26,100.434,0.00671928,0.121754,20.8695,50.8991,-0.0159101,0.0,0.0
348,86.75,30.7326,32.9995,153.08,100.321,101.004,0.00690075,0.120538,20.8718,50.849,-0.0621874,0.0,0.0
360,89.75,31.293,34.2597,152.87,100.32,100.513,0.00698147,0.119131,20.8739,50.7189,-0.0175555,0.0,0.0
372,92.75,30.7001,34.0106,152.276,100.308,101.24,0.00719794,0.117224,20.8765,50.5988,-0.0846777,0.0,0.0
384,95.75,30.4534,33.6848,157.588,100.266,100.684,0.00739877,0.115625,20.8785,50.4587,-0.0381253,0.0,0.0
396,98.75,31.1956,33.5188,152.043,100.227,100.754,0.00739989,0.11468,20.8806,50.2885,-0.0480605,0.0,0.0
408,101.75,30.8087,32.5065,155.16,100.148,100.272,0.00722414,0.113462,20.882,50.2485,-0.0112775,0.0,0.0
420,104.75,30.5255,32.3007,150.705,100.059,99.9745,0.00740475,0.111711,20.8837,50.0983,0.00771723,0.0,0.0
432,107.75,30.553,32.8383,158.843,99.997,99.928,0.00801516,0.108384,20.8845,49.9582,0.00632708,0.0,0.0
444,110.75,30.4005,32.6302,156.496,99.93,99.8109,0.00913907,0.104616,20.8868,49.8781,0.0109223,0.0,0.0
456,113.75,29.5711,32.3869,155.425,99.8666,99.7989,0.0102225,0.103017,20.8888,49.768,0.00621141,0.0,0.0
468,116.75,29.8936,32.2331,152.893,99.8166,100.091,0.0109259,0.101924,20.8888,49.6779,-0.0251107,0.0,0.0
480,119.75,29.9536,32.302,153.788,99.7748,99.5532,0.0109627,0.0996022,20.8907,49.5678,0.0203629,0.0,0.0
492,122.75,29.7887,31.568,155.064,99.7362,99.0053,0.010888,0.0976813,20.8935,49.4877,0.0673762,0.0,0.0
504,125.75,29.427,31.5513,155.148,99.7122,99.6799,0.0115517,0.0947911,20.8952,49.3476,0.00296759,0.0,0.0
516,128.75,28.9976,31.185,153.584,99.6952,99.3311,0.0126228,0.0892735,20.8978,49.2375,0.0335123,0.0,0.0
528,131.75,29.4382,30.9537,156.274,99.648,99.5412,0.0140345,0.0838812,20.9032,49.1674,0.0098206,0.0,0.0
540,134.75,29.0877,31.0573,156.401,99.6265,99.441,0.0153555,0.0821385,20.9076,49.0773,0.017074,0.0,0.0
552,137.75,28.9471,30.9469,153.398,99.6135,99.3877,0.0161288,0.0829115,20.91,48.9572,0.0207857,0.0,0.0
564,140.75,28.6624,30.9168,151.454,99.609,99.6314,0.0165394,0.0852641,20.9087,48.8571,-0.00206248,0.0,0.0
576,143.75,29.2581,31.3058,152.721,99.6151,99.1358,0.0166321,0.0868425,20.9063,48.747,0.0441818,0.0,0.0
588,146.75,28.8393,30.9089,154.328,99.6127,98.799,0.016653,0.0869463,20.9053,48.6869,0.0751333,0.0,0.0
600,149.75,27.2096,28.9726,152.967,99.6277,99.2889,0.0165508,0.0871374,20.905,48.5768,0.0312087,0.0,0.0
612,152.75,27.0903,28.9078,154.78,99.6314,98.7707,0.0163498,0.0872938,20.9065,48.4667,0.0794776,0.0,0.0
624,155.75,26.7108,28.5667,158.778,99.6444,98.9923,0.0163418,0.0859332,20.907,48.3867,0.0601377,0.0,0.0
636,158.75,26.303,28.7692,154.479,99.6647,99.1497,0.0170293,0.0843049,20.9074,48.2766,0.0474534,0.0,0.0
648,161.75,27.2243,28.423,155.244,99.6822,99.2231,0.0177463,0.0832154,20.9108,48.1965,0.0422787,0.0,0.0
660,164.75,26.8518,28.2883,153.27,99.7094,99.1449,0.0180672,0.0820764,20.9121,48.0964,0.052003,0.0,0.0
672,167.75,26.9607,28.7149,154.526,99.7207,99.1325,0.018379,0.0804123,20.9125,47.9963,0.0542005,0.0,0.0
684,170.75,26.5547,28.6681,151.054,99.7533,99.1075,0.0185106,0.0772927,20.914,47.9062,0.0594921,0.0,0.0
696,173.75,26.7906,28.2121,152.787,99.7756,99.1315,0.0185541,0.0739355,20.9184,47.8061,0.0593262,0.0,0.0
708,176.75,26.5013,28.0352,156.907,99.8211,99.3263,0.0184107,0.0714008,20.9226,47.726,0.0455205,0.0,0.0
720,179.75,26.6564,28.0978,157.788,99.8434,99.4184,0.0182978,0.07003,20.9256,47.6259,0.039078,0.0,0.0
732,182.75,25.8196,28.6574,154.301,99.882,99.1464,0.018268,0.0686598,20.9277,47.5158,0.0677199,0.0,0.0
744,185.75,26.5192,27.8669,154.896,99.9089,99.049,0.0183063,0.0679895,20.927,47.4458,0.0791821,0.0,0.0
756,188.75,26.3341,28.3601,152.374,99.9235,99.4016,0.0182986,0.067119,20.9271,47.3256,0.0479661,0.0,0.0
768,191.75,26.208,28.5216,153.838,99.9511,99.1526,0.018096,0.066715,20.9293,47.2456,0.0734761,0.0,0.0
780,194.75,26.2476,28.0435,156.387,99.9787,99.5369,0.0176711,0.0663608,20.9309,47.1655,0.0405698,0.0,0.0
792,197.75,26.171,27.6674,157.968,100.011,99.5067,0.0177578,0.0670494,20.9299,47.0554,0.046292,0.0,0.0
804,200.75,26.1312,28.1467,152.859,100.027,99.6396,0.0184306,0.0671861,20.9293,46.9653,0.0355163,0.0,0.0
816,203.75,26.0241,28.0065,155.838,100.056,99.5417,0.0185937,0.0673282,20.9288,46.8552,0.0471611,0.0,0.0
828,206.75,26.4599,28.0134,158.915,100.068,100.168,0.0183511,0.0671549,20.9286,46.7751,-0.00912771,0.0,0.0
840,209.75,26.6466,28.333,156.199,100.089,99.5513,0.0183333,0.067209,20.929,46.705,0.0493641,0.0,0.0
852,212.75,26.162,27.9247,154.194,100.123,99.7509,0.0184306,0.0671525,20.9291,46.5949,0.034064,0.0,0.0
864,215.75,26.5093,28.2564,155.673,100.137,99.7236,0.0184295,0.0668207,20.9291,46.5048,0.0379145,0.0,0.0
876,218.75,25.5926,28.3748,154.766,100.16,99.7634,0.0183168,0.0668205,20.9291,46.4348,0.0363756,0.0,0.0
888,221.75,26.2487,28.2337,155.686,100.175,99.845,0.0183884,0.0666056,20.9296,46.3347,0.030264,0.0,0.0
900,224.75,25.9227,28.1867,152.49,100.203,99.7029,0.0183114,0.0665526,20.9307,46.2446,0.0457911,0.0,0.0
912,227.75,26.401,27.9742,154.469,100.208,99.5806,0.0181483,0.0670355,20.9296,46.1545,0.0575597,0.0,0.0
924,230.75,25.7461,28.3948,158.892,100.225,100.001,0.0179946,0.0672137,20.9305,46.0844,0.0204632,0.0,0.0
936,233.75,26.0733,28.0026,154.102,100.242,99.6425,0.0179749,0.0675,20.93,46.0044,0.0549875,0.0,0.0
948,236.75,26.0482,27.8776,156.559,100.25,99.8968,0.0179136,0.0675255,20.9294,45.8943,0.0323067,0.0,0.0
960,239.75,26.6445,28.3398,156.111,100.259,100.263,0.0179804,0.0683125,20.9292,45.8142,-0.000392584,0.0,0.0
972,242.75,25.8056,27.8049,159.662,100.279,100.189,0.01828,0.0692761,20.9272,45.7341,0.00814274,0.0,0.0
984,245.75,26.0481,27.7837,152.685,100.297,99.7979,0.0184951,0.0693561,20.9252,45.654,0.0456803,0.0,0.0
996,248.75,26.3317,27.8808,152.213,100.311,99.8402,0.0185753,0.0689231,20.9246,45.594,0.0430667,0.0,0.0
1008,251.75,25.7814,27.7127,151.245,100.328,99.8013,0.0186919,0.068073,20.9259,45.4638,0.048229,0.0,0.0
1020,254.75,25.8926,28.3018,156.627,100.32,99.9966,0.0185522,0.0676138,20.9281,45.4038,0.0295805,0.0,0.0
1032,257.75,26.0601,27.9258,153.369,100.345,100.303,0.0183516,0.0671621,20.9293,45.3137,0.00384305,0.0,0.0
1044,260.75,25.8782,28.3026,155.349,100.344,99.7816,0.0180721,0.0668589,20.9296,45.2336,0.0515177,0.0,0.0
1056,263.75,26.0515,27.8371,156.437,100.347,100.061,0.0178902,0.0664309,20.9297,45.1435,0.0261337,0.0,0.0
1068,266.75,25.8663,27.8717,157.365,100.337,99.9841,0.0178709,0.0661816,20.9298,45.0735,0.0322806,0.0,0.0
1069,267,25.8312,27.8924,151.977,100.352,99.8776,0.0178531,0.0661577,20.9298,45.0635,0.0434177,0.0,0.0

File: Cellulose_Insulation_Cone_HF50Scalar_230615_R2.csv
LABORATORY,FSRI
TEST IDENT,Cellulose_In_HF50_R2
OPERATOR,Marino
MATERIAL,Cellulose Insulation
ORIENTATION,Horizontal
HEAT FLUX,50
SURF AREA,0.01
C FACTOR,0.040763
SPEC HOLDER DIFF,-566
SPECIMEN MASS,25.65
SCAN TIME,0.25
O2 DELAY TIME,11
CO DELAY TIME,11
CO2 DELAY TIME,8
FLOW FACTOR,1
SCAN COUNT,2017
TIME TO IGN,1.25
END OF TEST SCAN,1537
END OF TEST TIME,384.25
TEST STATUS,1
PRE TEST CMT,5 cm depth tray filled without compression
POST TEST CMT,"Test started manually using ""start test"" button. Ignition occured less than 1 second after the shutter opened. Sample's surface area and height reduced as it was consumed. Sample charred and smoldered."

File: Cellulose_Insulation_Cone_HF50Scan_230615_R1.csv
Names,Time,Stack TC,Smoke TC,Exh Press,Smoke Comp,Smoke Meas,CO Meter,CO2 Meter,O2 Meter,Sample Mass,Ext Coeff,Start Test,Flame Verif
Chan Gain,,500,500,1,1,1,1,1,1,1,1,1.0,1.0
Offset,,0,0,0.245636,0,0,0,0,0,0,0,0.0,0.0
Gain,,1,1,25.011,13.9157,15.2004,1,1,1,1.00094,1.03834,1.0,1.0
Units,sec,C,C,Pa,%,%,%,%,%,g,/m,,
Baseline,,35.2106,37.9312,142.895,100.186,100.149,0.000424615,0.0475598,20.9555,-445.561,0.0033282,,
20,4.75,33.998,39.1875,128.686,101.15,101.807,0.000182028,0.0499422,20.9541,74.4802,-0.0589817,0.0,1.0
40,9.75,37.2632,46.3544,127.433,101.155,101.635,3.67772e-05,0.0649962,20.9548,73.6594,-0.0430712,0.0,0.0
60,14.75,40.1909,50.8267,127.481,101.185,101.74,0.000699455,0.277712,20.8606,73.0289,-0.0497879,0.0,0.0
80,19.75,42.6504,53.3281,129.983,101.19,101.88,0.00194006,0.366517,20.6179,72.4583,-0.0619001,0.0,0.0
100,24.75,43.4575,55.2393,129.746,101.166,101.947,0.00197979,0.351519,20.5922,71.8978,-0.0700496,0.0,0.0
120,29.75,45.1299,55.6632,131.274,101.106,101.656,0.00175696,0.322782,20.6209,71.4073,-0.0494189,0.0,0.0
140,34.75,46.1293,55.7013,130.949,100.985,101.486,0.00172773,0.29394,20.6633,70.9369,-0.0451012,0.0,0.0
160,39.75,46.4374,55.5178,131.654,100.805,101.345,0.00165121,0.268829,20.6962,70.5165,-0.0486536,0.0,0.0
180,44.75,46.6432,54.575,136.097,100.565,100.958,0.0017045,0.25016,20.7202,70.1361,-0.0356025,0.0,0.0
200,49.75,46.5458,53.8301,134.11,100.345,100.675,0.00207726,0.231988,20.7383,69.7858,-0.0299028,0.0,0.0
220,54.75,47.0167,53.2001,137.82,100.146,100.472,0.0025734,0.215424,20.7619,69.3254,-0.0296414,0.0,0.0
240,59.75,46.6263,53.3539,134.904,99.982,100.419,0.00258827,0.203478,20.7777,69.0351,-0.0397254,0.0,0.0
260,64.75,46.1996,52.9029,134.803,99.9446,100.551,0.0030642,0.195715,20.7862,68.7849,-0.0550723,0.0,0.0
280,69.75,46.9362,52.0655,133.762,100.06,100.577,0.00349311,0.189482,20.7945,68.4245,-0.0469454,0.0,0.0
300,74.75,46.4808,52.3569,135.76,100.32,100.988,0.0037946,0.184184,20.8013,68.1042,-0.0604238,0.0,0.0
320,79.75,46.5722,52.2533,138.881,100.682,101.191,0.00402241,0.182028,20.8045,67.7339,-0.0459387,0.0,0.0
340,84.75,46.2652,51.8287,137.24,101.066,101.403,0.00447857,0.17843,20.8079,67.4836,-0.0303745,0.0,0.0
360,89.75,46.4306,51.4375,138.906,101.41,101.578,0.00490088,0.172848,20.8133,67.1433,-0.0150419,0.0,0.0
380,94.75,46.1535,51.432,136.1,101.651,101.95,0.00497743,0.168774,20.8178,66.9131,-0.0267796,0.0,0.0
400,99.75,46.1379,51.522,139.636,101.77,101.917,0.00535647,0.165803,20.8212,66.6629,-0.0131889,0.0,0.0
420,104.75,45.662,50.7746,139.679,101.677,101.998,0.00582144,0.16579,20.8208,66.3726,-0.0286474,0.0,0.0
440,109.75,46.0828,50.7749,137.938,101.521,102.074,0.00577963,0.162401,20.8227,66.0923,-0.0494516,0.0,0.0
460,114.75,45.6905,50.0466,135.316,101.33,101.973,0.00617427,0.159094,20.8266,65.762,-0.0576267,0.0,0.0
480,119.75,45.6357,50.4842,136.245,101.167,101.455,0.00645342,0.15653,20.8296,65.5218,-0.0258562,0.0,0.0
500,124.75,45.8126,50.5073,132.633,101.01,101.419,0.00652788,0.153722,20.8339,65.2515,-0.036806,0.0,0.0
520,129.75,45.8656,49.9901,136.065,100.898,101.34,0.00654275,0.151922,20.8371,64.9813,-0.0397985,0.0,0.0
540,134.75,45.3755,50.1985,138.616,100.839,101.202,0.00686226,0.151636,20.837,64.721,-0.0327721,0.0,0.0
560,139.75,45.6293,49.6832,140.58,100.842,101.072,0.0067083,0.150506,20.8384,64.4708,-0.0206882,0.0,0.0
580,144.75,45.4219,49.9677,141.963,100.943,101.338,0.00698412,0.151836,20.8379,64.2206,-0.0355654,0.0,0.0
600,149.75,45.5024,50.362,135.583,101.012,101.268,0.00663399,0.151225,20.837,63.9403,-0.0230626,0.0,0.0
620,154.75,45.3223,50.245,134.599,101.067,101.279,0.00658486,0.150824,20.8363,63.7501,-0.0191664,0.0,0.0
640,159.75,45.3231,49.3941,136.844,101.061,101.373,0.00641323,0.150041,20.8384,63.4899,-0.0280456,0.0,0.0
660,164.75,45.5186,48.7313,139.459,101.069,101.27,0.00636854,0.149815,20.8385,63.2596,-0.0181023,0.0,0.0
680,169.75,45.2055,49.712,139.532,101.075,101.523,0.00658065,0.148657,20.839,63.0194,-0.0402734,0.0,0.0
700,174.75,46.0909,49.6637,138.37,101.086,101.317,0.00638143,0.148594,20.8389,62.7592,-0.0207432,0.0,0.0
720,179.75,45.0508,49.9686,137.359,101.076,101.31,0.00684957,0.147919,20.8405,62.599,-0.0209978,0.0,0.0
740,184.75,45.5208,49.8266,133.627,101.047,101.398,0.00724049,0.146322,20.8413,62.2787,-0.0316389,0.0,0.0
760,189.75,44.9051,49.7925,139.582,100.999,101.154,0.00739447,0.145643,20.8428,62.1486,-0.0139413,0.0,0.0
780,194.75,45.3987,49.8047,139.163,100.957,101.169,0.00716363,0.145532,20.8437,61.9184,-0.0190696,0.0,0.0
800,199.75,45.1792,49.7394,137.257,100.894,101.17,0.00697658,0.143548,20.8451,61.6782,-0.0249089,0.0,0.0
820,204.75,45.4024,49.4094,135.448,100.843,101.113,0.00647217,0.144437,20.8466,61.478,-0.0244114,0.0,0.0
840,209.75,45.8013,49.3242,138.828,100.865,101.035,0.00641915,0.144457,20.8448,61.2778,-0.0153519,0.0,0.0
860,214.75,45.7166,49.545,134.514,100.926,101.271,0.00674537,0.14397,20.8468,61.0776,-0.0310118,0.0,0.0
880,219.75,45.2925,49.6897,137.54,100.988,101.37,0.00671022,0.142775,20.8474,60.8674,-0.0343812,0.0,0.0
900,224.75,45.8605,49.6928,136.428,101.033,101.286,0.0065565,0.141307,20.8488,60.6572,-0.0227365,0.0,0.0
920,229.75,45.4825,49.654,135.942,101.093,101.303,0.00623462,0.140905,20.8497,60.457,-0.0188411,0.0,0.0
940,234.75,45.7529,49.8194,132.136,101.179,101.738,0.00621953,0.14122,20.8498,60.2768,-0.0501913,0.0,0.0
960,239.75,45.4516,49.7606,135.697,101.242,101.51,0.00594397,0.139258,20.8498,60.1067,-0.0240799,0.0,0.0
980,244.75,44.9176,49.4188,134.144,101.307,101.843,0.00539604,0.139363,20.8518,59.9165,-0.0479965,0.0,0.0
1000,249.75,45.749,49.5593,136.165,101.381,101.693,0.00584321,0.138296,20.8528,59.7463,-0.0280249,0.0,0.0
1020,254.75,45.3435,49.1923,138.127,101.471,101.92,0.00585824,0.138417,20.853,59.5962,-0.0401954,0.0,0.0
1040,259.75,45.6089,50.0029,138.24,101.558,101.87,0.00623409,0.138912,20.8525,59.376,-0.0280249,0.0,0.0
1060,264.75,45.2067,49.6156,139.907,101.651,101.964,0.0059835,0.137039,20.8529,59.2359,-0.0280233,0.0,0.0
1080,269.75,45.3894,50.0357,136.948,101.715,102.01,0.00561941,0.134868,20.8536,58.9956,-0.0264192,0.0,0.0
1100,274.75,45.1023,49.2183,137.144,101.771,102.273,0.00539852,0.133176,20.855,58.8155,-0.0447749,0.0,0.0
1120,279.75,45.6072,49.1868,135.501,101.764,102.25,0.0059057,0.130974,20.857,58.6953,-0.0433969,0.0,0.0
1140,284.75,45.0721,49.538,140.665,101.701,101.985,0.00624494,0.131209,20.8608,58.5552,-0.0254773,0.0,0.0
1160,289.75,45.1164,49.454,133.66,101.598,101.881,0.00614846,0.131006,20.8604,58.3851,-0.0253227,0.0,0.0
1180,294.75,45.2831,48.8052,136.243,101.479,101.751,0.00601535,0.128218,20.8608,58.2149,-0.0243281,0.0,0.0
1200,299.75,44.7669,48.9758,142.155,101.282,101.398,0.00610192,0.125254,20.8641,58.0948,-0.0104149,0.0,0.0
1220,304.75,44.7081,49.2686,139.087,101.076,101.241,0.006017,0.125507,20.8657,57.9747,-0.0148195,0.0,0.0
1240,309.75,44.9558,48.2746,139.023,100.838,101.118,0.00612003,0.125042,20.866,57.9046,-0.0252889,0.0,0.0
1260,314.75,44.8294,47.9731,136.485,100.602,101.024,0.00629115,0.124079,20.8665,57.6143,-0.0380789,0.0,0.0
1280,319.75,45,48.6388,139.459,100.388,100.773,0.00640702,0.122423,20.8696,57.6243,-0.0349038,0.0,0.0
1300,324.75,44.6807,48.2653,135.544,100.206,100.574,0.00664986,0.120754,20.8721,57.5242,-0.0334439,0.0,0.0
1320,329.75,44.833,48.3263,135.458,100.063,100.375,0.006708,0.121567,20.872,57.4141,-0.0283838,0.0,0.0
1340,334.75,44.3373,48.1676,136.466,100.004,100.307,0.00653144,0.123872,20.8688,57.304,-0.0275686,0.0,0.0
1360,339.75,43.9913,48.0001,139.648,100.04,100.195,0.0068622,0.1213,20.8672,57.2039,-0.0141208,0.0,0.0
1380,344.75,44.1307,47.899,138.78,100.17,100.361,0.00689792,0.119206,20.8707,57.0938,-0.0173386,0.0,0.0
1400,349.75,44.2192,47.8976,137.541,100.373,100.53,0.00706814,0.116508,20.8719,57.1038,-0.0142524,0.0,0.0
1420,354.75,42.8311,45.7746,139.911,100.588,100.816,0.007615,0.113641,20.8768,56.9037,-0.0205919,0.0,0.0
1440,359.75,42.6941,45.6687,140.588,100.81,100.92,0.00797633,0.108571,20.8811,56.8436,-0.00996539,0.0,0.0
1460,364.75,42.1977,45.3557,142.852,100.963,101.257,0.00841352,0.105084,20.884,56.7735,-0.0264262,0.0,0.0
1480,369.75,41.9979,44.9444,136.355,101.083,101.571,0.00861932,0.102681,20.8858,56.7335,-0.0438349,0.0,0.0
1500,374.75,41.9895,45.2883,139.248,101.157,101.4,0.00871318,0.102711,20.8866,56.6134,-0.0218582,0.0,0.0
1520,379.75,41.8404,45.4663,140.534,101.183,101.446,0.00908349,0.10212,20.8849,56.6134,-0.0236537,0.0,0.0
1540,384.75,42.0694,45.1933,138.305,101.206,101.45,0.00975764,0.101152,20.885,56.6134,-0.0219197,0.0,0.0
1560,389.75,41.6311,44.9114,135.069,101.213,101.533,0.00941478,0.0981977,20.8887,56.5934,-0.028759,0.0,0.0
1580,394.75,41.5855,44.5107,138.42,101.205,101.534,0.00877906,0.0968588,20.8914,56.4532,-0.0296109,0.0,0.0
1600,399.75,40.6735,44.4943,140.556,101.193,101.418,0.00858294,0.0970405,20.893,56.4933,-0.0202333,0.0,0.0
1620,404.75,40.8072,43.7326,142.02,101.185,101.374,0.00876953,0.0975094,20.8934,56.3832,-0.0169628,0.0,0.0
1640,409.75,41.4105,43.7609,136.513,101.14,101.31,0.00883165,0.0962094,20.8949,56.3832,-0.0152589,0.0,0.0
1660,414.75,41.3027,44.6105,136.129,101.117,101.401,0.00902955,0.0964606,20.8951,56.3131,-0.025578,0.0,0.0
1680,419.75,41.4412,44.0334,142.384,101.104,101.379,0.00890893,0.0970376,20.8952,56.213,-0.0248017,0.0,0.0
1700,424.75,40.36,44.0065,141.34,101.064,101.222,0.00889709,0.0965959,20.8925,56.183,-0.0142632,0.0,0.0
1720,429.75,40.9642,43.8175,138.508,100.963,101.55,0.00888074,0.0948577,20.8939,56.1229,-0.0528016,0.0,0.0
1740,434.75,41.1018,43.8756,136.822,100.896,101.162,0.00880988,0.0960115,20.8962,56.163,-0.0239661,0.0,0.0
1760,439.75,40.3987,44.4586,136.709,100.807,101.079,0.00917893,0.0971125,20.8935,56.0529,-0.024579,0.0,0.0
1780,444.75,41.1354,43.9525,138.209,100.723,100.803,0.00899829,0.0971324,20.8928,55.9928,-0.00727443,0.0,0.0
1800,449.75,40.578,44.1552,139.618,100.619,100.871,0.00861858,0.0972306,20.8915,55.9828,-0.0228481,0.0,0.0
1820,454.75,39.355,43.8476,136.94,100.508,100.693,0.00816261,0.0946402,20.8944,55.8927,-0.0167082,0.0,0.0
1840,459.75,40.7464,43.6495,133.408,100.383,100.518,0.00868483,0.094865,20.8964,55.8727,-0.0121967,0.0,0.0
1860,464.75,40.7726,43.5548,136.23,100.301,100.654,0.00857314,0.0949389,20.8963,55.8427,-0.0319859,0.0,0.0
1880,469.75,40.9715,43.8501,136.974,100.186,100.412,0.00833598,0.0948453,20.8971,55.7826,-0.0205854,0.0,0.0
1895,473.5,40.5156,43.9258,139.414,100.115,100.284,0.00828421,0.0947176,20.8961,55.7426,-0.0153339,0.0,0.0