Folder: fsri_materials_database/01_Data/Bean_Bag_Chair_Outer_Cover/FTIR/IS

Note: README.md
# Materials and Products Database
### Repository of materials and products properties and fire test data to improve fire modeling and fire investigation.

This project was supported in part by Award No. 2019-DU-BX-0018, awarded by the National Institute of Justice, Office of Justice Programs, U.S. Department of Justice. The opinions, findings, and conclusions or recommendations expressed in this publication / program / exhibition are those of the author(s) and do not necessarily reflect those of the Department of Justice.

***
***

__Cite this database:__ "McKinnon, M., Weinschenk, C., Dow, N., DiDomizio, M., and Madrzykowski, D. Materials and Products Database (Version 1.0.0), Fire Safety Research Institute, UL Research Institutes. Columbia, MD 21045, 2023."

__Cite the Technical Reference Guide:__ "McKinnon, M., Weinschenk, C., and Madrzykowski, D. Materials and Products Database - Technical Reference Guide, Fire Safety Research Institute, UL Research Institutes. Columbia, MD 21045, 2023."

__Cite the User Guide:__ "McKinnon, M., and Weinschenk, C. Materials and Products Database - User Guide, Fire Safety Research Institute, UL Research Institutes. Columbia, MD 21045, 2023."

***
***

## Database Structure

## 01_Data/
Raw data generated from each apparatus are included here in plain-text format. The data is organized first by material, next by the short name of test apparatus used, and where applicable additional filtering by test settings.

### Test Apparatus and Data File Structure
- __Cone Calorimeter__ (Cone)
    + Data file structure includes the material, the short name for the apparatus, heat flux setting and scan/scalar, date of test, and replicate number. Scan is for the raw output data and scalar is for the initial conditions and high-level test parameters. 
        * Example: __MDF_Cone_HF25scalar_210323_R1__ stands for the first replicate of scalar data generated from a medium density fiber board test in cone calorimeter exposed to 25 kW/m<sup>2</sup> on March 23, 2021.
    + A _Cone_Notes.csv_ is generated for each material from the __plot_Cone_data.py__ script. For materials whose experiments deviated from typical behavior relevant pictures are included in the respective material directory.
- __Fourier Transform Infrared Spectrometer__ (FTIR)
    + The FTIR directory contains subdirectories for the Attenuated Total Reflectance method (ATR) and the Integrating Sphere (IS)
    + Data file structure for the ATR experiment files includes the material, the abbreviated name for the apparatus, date of test, and replicate number. 
        * Example: __MDF_ATR_210323_R5__ stands for the fifth replicate of data collected with the ATR accessory conducted on June 8, 2021.
    + Data file structure for the IS experiment files includes the material, the abbreviated name for the apparatus, the measurand, whether the test is a sample measurement or standard reference, date of test, and replicate number.
        * Example: __OSB_IS_REFLECT_MEAS_2

File: Bean_Bag_Chair_Outer_Cover_IS_S_220909_R1.dpt
7497.03,0.81428
7473.89,0.80168
7450.74,0.79973
7427.6,0.78987
7404.45,0.77373
7381.31,0.76517
7358.16,0.74783
7335.02,0.74449
7311.87,0.73039
7288.73,0.72806
7265.58,0.72536
7242.44,0.73235
7219.29,0.72755
7196.15,0.72066
7173,0.72130
7149.86,0.70328
7126.71,0.68425
7103.57,0.66564
7080.42,0.64658
7057.28,0.63150
7034.13,0.60952
7010.99,0.59053
6987.84,0.58088
6964.7,0.56807
6941.55,0.56398
6918.41,0.55074
6895.26,0.54984
6872.12,0.54302
6848.97,0.53466
6825.83,0.53080
6802.68,0.52022
6779.54,0.51231
6756.39,0.50901
6733.25,0.51174
6710.1,0.51009
6686.96,0.51136
6663.82,0.51135
6640.67,0.51543
6617.53,0.52436
6594.38,0.53079
6571.24,0.52787
6548.09,0.53211
6524.95,0.53135
6501.8,0.53411
6478.66,0.53392
6455.51,0.53414
6432.37,0.53375
6409.22,0.53439
6386.08,0.53468
6362.93,0.54146
6339.79,0.53896
6316.64,0.53806
6293.5,0.54689
6270.35,0.54924
6247.21,0.55722
6224.06,0.56327
6200.92,0.57728
6177.77,0.58482
6154.63,0.59787
6131.48,0.60584
6108.34,0.61292
6085.19,0.61754
6062.05,0.62962
6038.9,0.63629
6015.76,0.64394
5992.61,0.64947
5969.47,0.64880
5946.32,0.64707
5923.18,0.64468
5900.03,0.63887
5876.89,0.62809
5853.74,0.62656
5830.6,0.62598
5807.45,0.62275
5784.31,0.61980
5761.16,0.61697
5738.02,0.61460
5714.87,0.61450
5691.73,0.60989
5668.58,0.60786
5645.44,0.60207
5622.29,0.60336
5599.15,0.60262
5576,0.60537
5552.86,0.60758
5529.71,0.60833
5506.57,0.60920
5483.42,0.61071
5460.28,0.60993
5437.13,0.61462
5413.99,0.61981
5390.84,0.62683
5367.7,0.62768
5344.55,0.61544
5321.41,0.60879
5298.26,0.58563
5275.12,0.55053
5251.97,0.50655
5228.83,0.47146
5205.68,0.45058
5182.54,0.44383
5159.39,0.44778
5136.25,0.45621
5113.1,0.46808
5089.96,0.47943
5066.81,0.49191
5043.67,0.50330
5020.52,0.51287
4997.38,0.52054
4974.23,0.52067
4951.09,0.51414
4927.94,0.50191
4904.8,0.47865
4881.65,0.45370
4858.51,0.43424
4835.36,0.41716
4812.22,0.40224
4789.07,0.39205
4765.93,0.38567
4742.78,0.38586
4719.64,0.39390
4696.49,0.40435
4673.35,0.41651
4650.2,0.42599
4627.06,0.43472
4603.92,0.44546
4580.77,0.45495
4557.63,0.46495
4534.48,0.47258
4511.34,0.47925
4488.19,0.48199
4465.05,0.47803
4441.9,0.45618
4418.76,0.41782
4395.61,0.39616
4372.47,0.40920
4349.32,0.40509
4326.18,0.39132
4303.03,0.37797
4279.89,0.36602
4256.74,0.36511
4233.6,0.36689
4210.45,0.37023
4187.31,0.37635
4164.16,0.37783
4141.02,0.36989
4117.87,0.35822
4094.73,0.33545
4071.58,0.31033
4048.44,0.28262
4025.29,0.26702
4002.15,0.26901
3979,0.27739
3955.86,0.28286
3932.71,0.29287
3909.57,0.30560
3886.42,0.31289
3863.28,0.32246
3840.13,0.33200
3816.99,0.33444
3793.84,0.33649
3770.7,0.33027
3747.55,0.31693
3724.41,0.30175
3701.26,0.26908
3678.12,0.21332
3654.97,0.14283
3631.83,0.09259
3608.68,0.06101
3585.54,0.04404
3562.39,0.03522
3539.25,0.02928
3516.1,0.02577
3492.96,0.02362
3469.81,0.02458
3446.67,0.02529
3423.52,0.02601
3400.38,0.02561
3377.23,0.02653
3354.09,0.02680
3330.94,0.02828
3307.8,0.02874
3284.65,0.02964
3261.51,0.03104
3238.36,0.03143
3215.22,0.03287
3192.07,0.03428
3168.93,0.03645
3145.78,0.03915
3122.64,0.04424
3099.49,0.04987
3076.35,0.05737
3053.2,0.06604
3030.06,0.07481
3006.91,0.08215
2983.77,0.07246
2960.62,0.05548
2937.48,0.04602
2914.33,0.04006
2891.19,0.03933
2868.04,0.04556
2844.9,0.05697
2821.75,0.07239
2798.61,0.08681
2775.46,0.09567
2752.32,0.10034
2729.17,0.10147
2706.03,0.10971
2682.88,0.12349
2659.74,0.13444
2636.59,0.14583
2613.45,0.15455
2590.3,0.16166
2567.16,0.16450
2544.02,0.16293
2520.87,0.16605
2497.73,0.17747
2474.58,0.18937
2451.44,0.19908
2428.29,0.21223
2405.15,0.22366
2382,0.23235
2358.86,0.24257
2335.71,0.25201
2312.57,0.25428
2289.42,0.25019
2266.28,0.23970
2243.13,0.22748
2219.99,0.22459
2196.84,0.22322
2173.7,0.20968
2150.55,0.19794
2127.41,0.19572
2104.26,0.20703
2081.12,0.21507
2057.97,0.21397
2034.83,0.21920
2011.68,0.24020
1988.54,0.24766
1965.39,0.25936
1942.25,0.27333
1919.1,0.28381
1895.96,0.28903
1872.81,0.28686
1849.67,0.27863
1826.52,0.26551
1803.38,0.25220
1780.23,0.23658
1757.09,0.21978
1733.94,0.19431
1710.8,0.16497
1687.65,0.12239
1664.51,0.08565
1641.36,0.07579
1618.22,0.09078
1595.07,0.10932
1571.93,0.11973
1548.78,0.12142
1525.64,0.11503
1502.49,0.09602
1479.35,0.05835
1456.2,0.03985
1433.06,0.03263
1409.91,0.03831
1386.77,0.03243
1363.62,0.02873
1340.48,0.03050
1317.33,0.03014
1294.19,0.03950
1271.04,0.03872
1247.9,0.03974
1224.75,0.03685
1201.61,0.02776
1178.46,0.02382
1155.32,0.02863
1132.17,0.02000
1109.03,0.02870
1085.88,0.03220
1062.74,0.04766
1039.59,0.04121
1016.45,0.04708
993.304,0.05110
970.159,0.07182
947.014,0.10556
923.869,0.10608
900.724,0.06713
877.579,0.10547
854.434,0.10867
831.289,0.09530
808.144,0.08092
784.999,0.06905
761.854,0.05761
738.709,0.04617
715.565,0.03853
692.42,0.03797
669.275,0.03612
646.13,0.03582
622.985,0.03244
599.84,0.03617

File: Bean_Bag_Chair_Outer_Cover_IS_S_220909_R2.dpt
7497.03,0.81604
7473.89,0.80281
7450.74,0.80275
7427.6,0.78744
7404.45,0.78543
7381.31,0.76209
7358.16,0.75897
7335.02,0.74458
7311.87,0.73381
7288.73,0.72874
7265.58,0.72196
7242.44,0.73395
7219.29,0.73077
7196.15,0.72512
7173,0.71706
7149.86,0.70841
7126.71,0.69182
7103.57,0.67584
7080.42,0.65563
7057.28,0.62689
7034.13,0.61246
7010.99,0.59346
6987.84,0.58220
6964.7,0.57857
6941.55,0.56065
6918.41,0.55996
6895.26,0.55510
6872.12,0.54842
6848.97,0.54566
6825.83,0.53488
6802.68,0.52203
6779.54,0.52263
6756.39,0.51025
6733.25,0.51095
6710.1,0.51583
6686.96,0.51608
6663.82,0.51914
6640.67,0.52417
6617.53,0.52374
6594.38,0.53132
6571.24,0.53243
6548.09,0.53517
6524.95,0.53281
6501.8,0.53548
6478.66,0.53010
6455.51,0.53193
6432.37,0.53651
6409.22,0.53507
6386.08,0.53710
6362.93,0.54290
6339.79,0.54467
6316.64,0.54313
6293.5,0.54676
6270.35,0.55386
6247.21,0.56222
6224.06,0.57053
6200.92,0.58047
6177.77,0.58857
6154.63,0.59928
6131.48,0.60769
6108.34,0.61595
6085.19,0.62243
6062.05,0.63169
6038.9,0.63811
6015.76,0.64671
5992.61,0.64970
5969.47,0.65624
5946.32,0.65043
5923.18,0.64678
5900.03,0.64227
5876.89,0.63153
5853.74,0.62952
5830.6,0.62857
5807.45,0.62619
5784.31,0.62396
5761.16,0.62291
5738.02,0.61832
5714.87,0.61449
5691.73,0.61316
5668.58,0.60913
5645.44,0.60989
5622.29,0.60668
5599.15,0.60918
5576,0.60829
5552.86,0.60975
5529.71,0.61292
5506.57,0.61311
5483.42,0.61123
5460.28,0.61578
5437.13,0.62051
5413.99,0.62756
5390.84,0.63088
5367.7,0.63083
5344.55,0.62580
5321.41,0.61529
5298.26,0.59333
5275.12,0.55804
5251.97,0.51664
5228.83,0.48147
5205.68,0.46233
5182.54,0.45463
5159.39,0.45839
5136.25,0.46591
5113.1,0.47694
5089.96,0.48957
5066.81,0.50026
5043.67,0.51230
5020.52,0.52155
4997.38,0.52749
4974.23,0.52819
4951.09,0.52100
4927.94,0.50707
4904.8,0.48453
4881.65,0.45780
4858.51,0.43546
4835.36,0.41841
4812.22,0.40264
4789.07,0.39255
4765.93,0.38830
4742.78,0.38887
4719.64,0.39576
4696.49,0.40611
4673.35,0.41766
4650.2,0.42798
4627.06,0.43725
4603.92,0.44699
4580.77,0.45718
4557.63,0.46817
4534.48,0.47518
4511.34,0.48155
4488.19,0.48376
4465.05,0.48053
4441.9,0.45896
4418.76,0.41969
4395.61,0.39857
4372.47,0.40981
4349.32,0.40662
4326.18,0.39359
4303.03,0.37975
4279.89,0.36780
4256.74,0.36699
4233.6,0.36879
4210.45,0.37282
4187.31,0.37826
4164.16,0.38083
4141.02,0.37242
4117.87,0.36165
4094.73,0.33730
4071.58,0.31225
4048.44,0.28399
4025.29,0.26829
4002.15,0.27143
3979,0.28016
3955.86,0.28559
3932.71,0.29679
3909.57,0.30850
3886.42,0.31862
3863.28,0.33043
3840.13,0.34318
3816.99,0.34475
3793.84,0.34175
3770.7,0.33731
3747.55,0.32991
3724.41,0.31120
3701.26,0.27687
3678.12,0.22266
3654.97,0.14972
3631.83,0.09860
3608.68,0.06432
3585.54,0.04602
3562.39,0.03636
3539.25,0.03020
3516.1,0.02562
3492.96,0.02428
3469.81,0.02336
3446.67,0.02528
3423.52,0.02607
3400.38,0.02578
3377.23,0.02623
3354.09,0.02620
3330.94,0.02877
3307.8,0.02915
3284.65,0.02967
3261.51,0.03145
3238.36,0.03211
3215.22,0.03343
3192.07,0.03464
3168.93,0.03687
3145.78,0.04025
3122.64,0.04492
3099.49,0.05162
3076.35,0.05930
3053.2,0.06784
3030.06,0.07733
3006.91,0.08374
2983.77,0.07380
2960.62,0.05660
2937.48,0.04611
2914.33,0.03995
2891.19,0.03955
2868.04,0.04605
2844.9,0.05766
2821.75,0.07314
2798.61,0.08724
2775.46,0.09649
2752.32,0.10168
2729.17,0.10222
2706.03,0.11058
2682.88,0.12436
2659.74,0.13513
2636.59,0.14675
2613.45,0.15607
2590.3,0.16293
2567.16,0.16596
2544.02,0.16392
2520.87,0.16725
2497.73,0.17856
2474.58,0.19002
2451.44,0.19991
2428.29,0.21387
2405.15,0.22524
2382,0.23399
2358.86,0.24309
2335.71,0.25283
2312.57,0.25707
2289.42,0.25346
2266.28,0.24283
2243.13,0.23058
2219.99,0.22770
2196.84,0.22657
2173.7,0.21299
2150.55,0.20086
2127.41,0.19845
2104.26,0.21007
2081.12,0.21849
2057.97,0.21713
2034.83,0.22213
2011.68,0.24364
1988.54,0.25168
1965.39,0.26330
1942.25,0.27822
1919.1,0.28870
1895.96,0.29404
1872.81,0.29201
1849.67,0.28309
1826.52,0.27160
1803.38,0.25770
1780.23,0.24258
1757.09,0.22542
1733.94,0.20254
1710.8,0.17132
1687.65,0.12901
1664.51,0.09008
1641.36,0.07927
1618.22,0.09457
1595.07,0.11282
1571.93,0.12321
1548.78,0.12500
1525.64,0.11969
1502.49,0.09816
1479.35,0.05906
1456.2,0.04071
1433.06,0.03342
1409.91,0.03829
1386.77,0.03268
1363.62,0.02902
1340.48,0.03113
1317.33,0.03083
1294.19,0.03978
1271.04,0.03834
1247.9,0.03911
1224.75,0.03651
1201.61,0.02828
1178.46,0.02422
1155.32,0.02899
1132.17,0.02001
1109.03,0.02913
1085.88,0.03119
1062.74,0.04712
1039.59,0.04098
1016.45,0.04666
993.304,0.05128
970.159,0.07210
947.014,0.10640
923.869,0.10781
900.724,0.06904
877.579,0.10788
854.434,0.11164
831.289,0.09865
808.144,0.08445
784.999,0.07154
761.854,0.05920
738.709,0.04727
715.565,0.03867
692.42,0.03743
669.275,0.03629
646.13,0.03646
622.985,0.03301
599.84,0.03811

File: Bean_Bag_Chair_Outer_Cover_IS_S_220909_R3.dpt
7497.03,0.81320
7473.89,0.81184
7450.74,0.79785
7427.6,0.78842
7404.45,0.78322
7381.31,0.77066
7358.16,0.75962
7335.02,0.74164
7311.87,0.74348
7288.73,0.74642
7265.58,0.73638
7242.44,0.72969
7219.29,0.73506
7196.15,0.72674
7173,0.72468
7149.86,0.71143
7126.71,0.69730
7103.57,0.67910
7080.42,0.65726
7057.28,0.62958
7034.13,0.61248
7010.99,0.59841
6987.84,0.58143
6964.7,0.56980
6941.55,0.57070
6918.41,0.55671
6895.26,0.55597
6872.12,0.54751
6848.97,0.53971
6825.83,0.53572
6802.68,0.53122
6779.54,0.52172
6756.39,0.51282
6733.25,0.50923
6710.1,0.51241
6686.96,0.51638
6663.82,0.51545
6640.67,0.52091
6617.53,0.52547
6594.38,0.53274
6571.24,0.53663
6548.09,0.53286
6524.95,0.53139
6501.8,0.53163
6478.66,0.53212
6455.51,0.53357
6432.37,0.53708
6409.22,0.54061
6386.08,0.54047
6362.93,0.54005
6339.79,0.54404
6316.64,0.54639
6293.5,0.54646
6270.35,0.55417
6247.21,0.56089
6224.06,0.56948
6200.92,0.57993
6177.77,0.59618
6154.63,0.60251
6131.48,0.61039
6108.34,0.61889
6085.19,0.62455
6062.05,0.63229
6038.9,0.64054
6015.76,0.64417
5992.61,0.65102
5969.47,0.65811
5946.32,0.65315
5923.18,0.65111
5900.03,0.64306
5876.89,0.63107
5853.74,0.62933
5830.6,0.62756
5807.45,0.62626
5784.31,0.62502
5761.16,0.62107
5738.02,0.61869
5714.87,0.61668
5691.73,0.61553
5668.58,0.60923
5645.44,0.61057
5622.29,0.60878
5599.15,0.60855
5576,0.61058
5552.86,0.61202
5529.71,0.61197
5506.57,0.61259
5483.42,0.61310
5460.28,0.61506
5437.13,0.62104
5413.99,0.62640
5390.84,0.63267
5367.7,0.63236
5344.55,0.62937
5321.41,0.61764
5298.26,0.59656
5275.12,0.56089
5251.97,0.51915
5228.83,0.48636
5205.68,0.46786
5182.54,0.46161
5159.39,0.46237
5136.25,0.47062
5113.1,0.48326
5089.96,0.49474
5066.81,0.50551
5043.67,0.51809
5020.52,0.52602
4997.38,0.53105
4974.23,0.53186
4951.09,0.52403
4927.94,0.50877
4904.8,0.48555
4881.65,0.45808
4858.51,0.43660
4835.36,0.41863
4812.22,0.40281
4789.07,0.39313
4765.93,0.38761
4742.78,0.38867
4719.64,0.39600
4696.49,0.40582
4673.35,0.41879
4650.2,0.42784
4627.06,0.43786
4603.92,0.44794
4580.77,0.45753
4557.63,0.46855
4534.48,0.47637
4511.34,0.48240
4488.19,0.48413
4465.05,0.48052
4441.9,0.45814
4418.76,0.42039
4395.61,0.39897
4372.47,0.40963
4349.32,0.40720
4326.18,0.39323
4303.03,0.37971
4279.89,0.36908
4256.74,0.36666
4233.6,0.36933
4210.45,0.37262
4187.31,0.37943
4164.16,0.38139
4141.02,0.37282
4117.87,0.36133
4094.73,0.33777
4071.58,0.31196
4048.44,0.28504
4025.29,0.26946
4002.15,0.27100
3979,0.28045
3955.86,0.28674
3932.71,0.29754
3909.57,0.30892
3886.42,0.31973
3863.28,0.33234
3840.13,0.34537
3816.99,0.34726
3793.84,0.34379
3770.7,0.34019
3747.55,0.33269
3724.41,0.31443
3701.26,0.28052
3678.12,0.22706
3654.97,0.15494
3631.83,0.10065
3608.68,0.06739
3585.54,0.04775
3562.39,0.03727
3539.25,0.03095
3516.1,0.02694
3492.96,0.02359
3469.81,0.02462
3446.67,0.02480
3423.52,0.02623
3400.38,0.02546
3377.23,0.02623
3354.09,0.02646
3330.94,0.02805
3307.8,0.02866
3284.65,0.02985
3261.51,0.03065
3238.36,0.03272
3215.22,0.03355
3192.07,0.03504
3168.93,0.03758
3145.78,0.04029
3122.64,0.04554
3099.49,0.05165
3076.35,0.05981
3053.2,0.06933
3030.06,0.07826
3006.91,0.08599
2983.77,0.07439
2960.62,0.05630
2937.48,0.04632
2914.33,0.03988
2891.19,0.03936
2868.04,0.04503
2844.9,0.05740
2821.75,0.07295
2798.61,0.08751
2775.46,0.09721
2752.32,0.10193
2729.17,0.10287
2706.03,0.11129
2682.88,0.12494
2659.74,0.13563
2636.59,0.14710
2613.45,0.15626
2590.3,0.16319
2567.16,0.16620
2544.02,0.16442
2520.87,0.16756
2497.73,0.17872
2474.58,0.19094
2451.44,0.20107
2428.29,0.21441
2405.15,0.22590
2382,0.23505
2358.86,0.24275
2335.71,0.25331
2312.57,0.25818
2289.42,0.25486
2266.28,0.24430
2243.13,0.23287
2219.99,0.22963
2196.84,0.22871
2173.7,0.21470
2150.55,0.20272
2127.41,0.20059
2104.26,0.21183
2081.12,0.22039
2057.97,0.21882
2034.83,0.22402
2011.68,0.24598
1988.54,0.25369
1965.39,0.26532
1942.25,0.28059
1919.1,0.29137
1895.96,0.29602
1872.81,0.29444
1849.67,0.28538
1826.52,0.27355
1803.38,0.25952
1780.23,0.24463
1757.09,0.22830
1733.94,0.20547
1710.8,0.17476
1687.65,0.13284
1664.51,0.09320
1641.36,0.08217
1618.22,0.09654
1595.07,0.11440
1571.93,0.12503
1548.78,0.12665
1525.64,0.12094
1502.49,0.09951
1479.35,0.05948
1456.2,0.04129
1433.06,0.03274
1409.91,0.03866
1386.77,0.03265
1363.62,0.02944
1340.48,0.03086
1317.33,0.03055
1294.19,0.03945
1271.04,0.03852
1247.9,0.03943
1224.75,0.03686
1201.61,0.02762
1178.46,0.02429
1155.32,0.02940
1132.17,0.01992
1109.03,0.02895
1085.88,0.03160
1062.74,0.04745
1039.59,0.04153
1016.45,0.04673
993.304,0.05070
970.159,0.07240
947.014,0.10670
923.869,0.10839
900.724,0.06847
877.579,0.10924
854.434,0.11447
831.289,0.10004
808.144,0.08657
784.999,0.07330
761.854,0.06044
738.709,0.04846
715.565,0.03953
692.42,0.03879
669.275,0.03444
646.13,0.03647
622.985,0.03191
599.84,0.03533

File: Bean_Bag_Chair_Outer_Cover_IS_S_220909_R4.dpt
7497.03,0.81222
7473.89,0.80730
7450.74,0.79743
7427.6,0.78728
7404.45,0.77999
7381.31,0.77612
7358.16,0.76415
7335.02,0.73782
7311.87,0.74465
7288.73,0.73760
7265.58,0.73281
7242.44,0.73302
7219.29,0.72700
7196.15,0.72889
7173,0.72262
7149.86,0.71126
7126.71,0.69627
7103.57,0.68307
7080.42,0.65758
7057.28,0.63988
7034.13,0.61779
7010.99,0.59465
6987.84,0.58745
6964.7,0.57832
6941.55,0.56048
6918.41,0.56262
6895.26,0.55194
6872.12,0.54424
6848.97,0.54441
6825.83,0.53568
6802.68,0.52420
6779.54,0.52433
6756.39,0.51453
6733.25,0.51692
6710.1,0.51651
6686.96,0.52295
6663.82,0.51937
6640.67,0.51881
6617.53,0.52730
6594.38,0.52493
6571.24,0.53413
6548.09,0.53134
6524.95,0.53554
6501.8,0.53319
6478.66,0.53833
6455.51,0.53793
6432.37,0.54019
6409.22,0.54184
6386.08,0.54433
6362.93,0.54224
6339.79,0.54253
6316.64,0.54305
6293.5,0.54821
6270.35,0.55446
6247.21,0.56377
6224.06,0.57172
6200.92,0.58094
6177.77,0.59201
6154.63,0.60228
6131.48,0.61026
6108.34,0.61869
6085.19,0.62861
6062.05,0.63580
6038.9,0.64059
6015.76,0.64864
5992.61,0.65706
5969.47,0.65535
5946.32,0.65519
5923.18,0.64912
5900.03,0.64484
5876.89,0.63386
5853.74,0.63283
5830.6,0.63194
5807.45,0.62869
5784.31,0.62518
5761.16,0.62403
5738.02,0.62290
5714.87,0.62070
5691.73,0.61655
5668.58,0.61067
5645.44,0.61072
5622.29,0.61055
5599.15,0.61108
5576,0.61266
5552.86,0.61407
5529.71,0.61449
5506.57,0.61559
5483.42,0.61420
5460.28,0.61613
5437.13,0.62490
5413.99,0.62993
5390.84,0.63399
5367.7,0.63701
5344.55,0.63219
5321.41,0.62108
5298.26,0.59995
5275.12,0.56526
5251.97,0.52479
5228.83,0.49379
5205.68,0.47247
5182.54,0.46498
5159.39,0.46864
5136.25,0.47634
5113.1,0.48949
5089.96,0.49993
5066.81,0.51028
5043.67,0.52155
5020.52,0.53043
4997.38,0.53554
4974.23,0.53536
4951.09,0.52661
4927.94,0.51253
4904.8,0.48722
4881.65,0.46104
4858.51,0.43796
4835.36,0.42021
4812.22,0.40355
4789.07,0.39446
4765.93,0.38972
4742.78,0.38943
4719.64,0.39869
4696.49,0.40641
4673.35,0.42014
4650.2,0.42877
4627.06,0.43941
4603.92,0.44961
4580.77,0.45905
4557.63,0.46996
4534.48,0.47805
4511.34,0.48369
4488.19,0.48630
4465.05,0.48217
4441.9,0.46038
4418.76,0.42045
4395.61,0.39995
4372.47,0.41072
4349.32,0.40769
4326.18,0.39442
4303.03,0.38137
4279.89,0.36904
4256.74,0.36824
4233.6,0.37145
4210.45,0.37388
4187.31,0.38140
4164.16,0.38272
4141.02,0.37462
4117.87,0.36281
4094.73,0.33916
4071.58,0.31392
4048.44,0.28568
4025.29,0.26883
4002.15,0.27261
3979,0.28140
3955.86,0.28760
3932.71,0.29845
3909.57,0.31081
3886.42,0.32139
3863.28,0.33320
3840.13,0.34800
3816.99,0.34801
3793.84,0.34633
3770.7,0.34368
3747.55,0.33536
3724.41,0.31752
3701.26,0.28428
3678.12,0.23125
3654.97,0.15831
3631.83,0.10313
3608.68,0.06849
3585.54,0.04853
3562.39,0.03672
3539.25,0.03031
3516.1,0.02597
3492.96,0.02433
3469.81,0.02446
3446.67,0.02563
3423.52,0.02619
3400.38,0.02585
3377.23,0.02685
3354.09,0.02649
3330.94,0.02873
3307.8,0.02807
3284.65,0.02940
3261.51,0.03073
3238.36,0.03248
3215.22,0.03404
3192.07,0.03497
3168.93,0.03736
3145.78,0.04018
3122.64,0.04527
3099.49,0.05280
3076.35,0.06100
3053.2,0.07033
3030.06,0.08026
3006.91,0.08691
2983.77,0.07555
2960.62,0.05677
2937.48,0.04660
2914.33,0.04027
2891.19,0.03909
2868.04,0.04585
2844.9,0.05773
2821.75,0.07362
2798.61,0.08837
2775.46,0.09763
2752.32,0.10265
2729.17,0.10340
2706.03,0.11159
2682.88,0.12500
2659.74,0.13612
2636.59,0.14752
2613.45,0.15695
2590.3,0.16407
2567.16,0.16732
2544.02,0.16518
2520.87,0.16829
2497.73,0.17977
2474.58,0.19176
2451.44,0.20221
2428.29,0.21536
2405.15,0.22723
2382,0.23630
2358.86,0.24485
2335.71,0.25451
2312.57,0.25998
2289.42,0.25684
2266.28,0.24671
2243.13,0.23456
2219.99,0.23182
2196.84,0.23090
2173.7,0.21719
2150.55,0.20459
2127.41,0.20245
2104.26,0.21402
2081.12,0.22252
2057.97,0.22100
2034.83,0.22619
2011.68,0.24827
1988.54,0.25608
1965.39,0.26792
1942.25,0.28251
1919.1,0.29357
1895.96,0.29875
1872.81,0.29669
1849.67,0.28802
1826.52,0.27630
1803.38,0.26207
1780.23,0.24738
1757.09,0.23047
1733.94,0.20813
1710.8,0.17817
1687.65,0.13608
1664.51,0.09537
1641.36,0.08388
1618.22,0.09950
1595.07,0.11635
1571.93,0.12679
1548.78,0.12836
1525.64,0.12222
1502.49,0.10002
1479.35,0.06008
1456.2,0.04045
1433.06,0.03317
1409.91,0.03831
1386.77,0.03271
1363.62,0.02913
1340.48,0.03077
1317.33,0.03066
1294.19,0.04012
1271.04,0.03874
1247.9,0.03893
1224.75,0.03600
1201.61,0.02764
1178.46,0.02418
1155.32,0.02940
1132.17,0.01981
1109.03,0.02949
1085.88,0.03180
1062.74,0.04797
1039.59,0.04139
1016.45,0.04675
993.304,0.05129
970.159,0.07240
947.014,0.10811
923.869,0.10969
900.724,0.06897
877.579,0.11085
854.434,0.11672
831.289,0.10129
808.144,0.08827
784.999,0.07539
761.854,0.06178
738.709,0.04912
715.565,0.04022
692.42,0.03902
669.275,0.03659
646.13,0.03734
622.985,0.03353
599.84,0.04060