Folder: fsri_materials_database/01_Data/Bean_Bag_Chair_Outer_Cover/FTIR/IS (part 2)

File: Bean_Bag_Chair_Outer_Cover_IS_S_220909_R5.dpt
7497.03,0.80633
7473.89,0.81136
7450.74,0.79677
7427.6,0.78512
7404.45,0.77647
7381.31,0.78295
7358.16,0.75618
7335.02,0.75605
7311.87,0.73505
7288.73,0.74095
7265.58,0.73509
7242.44,0.73821
7219.29,0.73442
7196.15,0.72651
7173,0.72107
7149.86,0.71098
7126.71,0.69579
7103.57,0.68596
7080.42,0.66024
7057.28,0.63591
7034.13,0.61729
7010.99,0.59502
6987.84,0.58288
6964.7,0.57178
6941.55,0.56826
6918.41,0.55647
6895.26,0.55710
6872.12,0.55142
6848.97,0.54185
6825.83,0.53919
6802.68,0.52753
6779.54,0.52384
6756.39,0.51850
6733.25,0.51512
6710.1,0.51559
6686.96,0.51764
6663.82,0.51394
6640.67,0.53109
6617.53,0.52724
6594.38,0.53406
6571.24,0.53591
6548.09,0.53542
6524.95,0.53637
6501.8,0.53620
6478.66,0.53522
6455.51,0.53479
6432.37,0.53772
6409.22,0.53766
6386.08,0.54385
6362.93,0.54151
6339.79,0.54450
6316.64,0.54622
6293.5,0.55099
6270.35,0.55525
6247.21,0.55933
6224.06,0.57202
6200.92,0.58128
6177.77,0.59182
6154.63,0.60087
6131.48,0.61023
6108.34,0.61860
6085.19,0.62706
6062.05,0.63544
6038.9,0.64140
6015.76,0.64909
5992.61,0.65037
5969.47,0.65640
5946.32,0.65379
5923.18,0.65112
5900.03,0.64519
5876.89,0.63144
5853.74,0.62952
5830.6,0.63217
5807.45,0.62702
5784.31,0.62597
5761.16,0.62368
5738.02,0.62126
5714.87,0.61903
5691.73,0.61472
5668.58,0.61235
5645.44,0.61034
5622.29,0.60868
5599.15,0.60793
5576,0.61288
5552.86,0.61458
5529.71,0.61284
5506.57,0.61398
5483.42,0.61451
5460.28,0.61830
5437.13,0.62222
5413.99,0.62871
5390.84,0.63240
5367.7,0.63305
5344.55,0.63101
5321.41,0.62255
5298.26,0.60132
5275.12,0.56606
5251.97,0.52763
5228.83,0.49595
5205.68,0.47476
5182.54,0.46929
5159.39,0.47139
5136.25,0.48095
5113.1,0.49117
5089.96,0.50199
5066.81,0.51468
5043.67,0.52439
5020.52,0.53343
4997.38,0.53917
4974.23,0.53609
4951.09,0.52917
4927.94,0.50979
4904.8,0.48646
4881.65,0.45949
4858.51,0.43729
4835.36,0.41987
4812.22,0.40341
4789.07,0.39388
4765.93,0.38827
4742.78,0.38856
4719.64,0.39688
4696.49,0.40553
4673.35,0.41823
4650.2,0.42761
4627.06,0.43774
4603.92,0.44742
4580.77,0.45852
4557.63,0.46935
4534.48,0.47645
4511.34,0.48243
4488.19,0.48487
4465.05,0.48069
4441.9,0.45881
4418.76,0.42036
4395.61,0.39873
4372.47,0.41045
4349.32,0.40660
4326.18,0.39330
4303.03,0.37942
4279.89,0.36806
4256.74,0.36706
4233.6,0.37051
4210.45,0.37347
4187.31,0.37978
4164.16,0.38180
4141.02,0.37493
4117.87,0.36223
4094.73,0.33946
4071.58,0.31367
4048.44,0.28549
4025.29,0.26895
4002.15,0.27195
3979,0.28076
3955.86,0.28714
3932.71,0.29882
3909.57,0.31104
3886.42,0.32130
3863.28,0.33436
3840.13,0.34749
3816.99,0.34923
3793.84,0.34735
3770.7,0.34361
3747.55,0.33761
3724.41,0.31893
3701.26,0.28646
3678.12,0.23423
3654.97,0.16136
3631.83,0.10628
3608.68,0.06998
3585.54,0.04987
3562.39,0.03767
3539.25,0.03028
3516.1,0.02641
3492.96,0.02416
3469.81,0.02469
3446.67,0.02549
3423.52,0.02603
3400.38,0.02571
3377.23,0.02595
3354.09,0.02714
3330.94,0.02833
3307.8,0.02933
3284.65,0.02927
3261.51,0.03062
3238.36,0.03182
3215.22,0.03410
3192.07,0.03471
3168.93,0.03715
3145.78,0.04100
3122.64,0.04622
3099.49,0.05308
3076.35,0.06146
3053.2,0.07124
3030.06,0.08044
3006.91,0.08716
2983.77,0.07602
2960.62,0.05709
2937.48,0.04659
2914.33,0.03962
2891.19,0.03946
2868.04,0.04568
2844.9,0.05776
2821.75,0.07380
2798.61,0.08826
2775.46,0.09729
2752.32,0.10277
2729.17,0.10350
2706.03,0.11204
2682.88,0.12490
2659.74,0.13652
2636.59,0.14764
2613.45,0.15664
2590.3,0.16387
2567.16,0.16703
2544.02,0.16504
2520.87,0.16798
2497.73,0.17931
2474.58,0.19182
2451.44,0.20182
2428.29,0.21497
2405.15,0.22726
2382,0.23616
2358.86,0.24472
2335.71,0.25551
2312.57,0.26003
2289.42,0.25729
2266.28,0.24693
2243.13,0.23510
2219.99,0.23259
2196.84,0.23154
2173.7,0.21745
2150.55,0.20577
2127.41,0.20322
2104.26,0.21514
2081.12,0.22311
2057.97,0.22168
2034.83,0.22658
2011.68,0.24891
1988.54,0.25686
1965.39,0.26851
1942.25,0.28359
1919.1,0.29483
1895.96,0.29991
1872.81,0.29795
1849.67,0.28910
1826.52,0.27777
1803.38,0.26311
1780.23,0.24806
1757.09,0.23180
1733.94,0.21000
1710.8,0.18008
1687.65,0.13909
1664.51,0.09812
1641.36,0.08613
1618.22,0.10077
1595.07,0.11744
1571.93,0.12786
1548.78,0.12855
1525.64,0.12299
1502.49,0.10072
1479.35,0.06024
1456.2,0.04113
1433.06,0.03296
1409.91,0.03850
1386.77,0.03268
1363.62,0.02919
1340.48,0.03085
1317.33,0.03047
1294.19,0.03956
1271.04,0.03889
1247.9,0.03925
1224.75,0.03614
1201.61,0.02791
1178.46,0.02396
1155.32,0.02935
1132.17,0.01960
1109.03,0.02917
1085.88,0.03161
1062.74,0.04800
1039.59,0.04202
1016.45,0.04680
993.304,0.05127
970.159,0.07231
947.014,0.10766
923.869,0.11021
900.724,0.06994
877.579,0.11165
854.434,0.11847
831.289,0.10359
808.144,0.08983
784.999,0.07681
761.854,0.06220
738.709,0.04986
715.565,0.03966
692.42,0.03948
669.275,0.03542
646.13,0.03646
622.985,0.03521
599.84,0.03859

File: Bean_Bag_Chair_Outer_Cover_IS_S_220909_R6.dpt
7497.03,0.79677
7473.89,0.79886
7450.74,0.79825
7427.6,0.79185
7404.45,0.78644
7381.31,0.77690
7358.16,0.75532
7335.02,0.74608
7311.87,0.74827
7288.73,0.73965
7265.58,0.74131
7242.44,0.73751
7219.29,0.73407
7196.15,0.73004
7173,0.73022
7149.86,0.71579
7126.71,0.69608
7103.57,0.68297
7080.42,0.66127
7057.28,0.63262
7034.13,0.61474
7010.99,0.60437
6987.84,0.58718
6964.7,0.57038
6941.55,0.57216
6918.41,0.55645
6895.26,0.55553
6872.12,0.55054
6848.97,0.53672
6825.83,0.53806
6802.68,0.53384
6779.54,0.52349
6756.39,0.51121
6733.25,0.51538
6710.1,0.51582
6686.96,0.51517
6663.82,0.51625
6640.67,0.52171
6617.53,0.52859
6594.38,0.53181
6571.24,0.53445
6548.09,0.53333
6524.95,0.53484
6501.8,0.53774
6478.66,0.53469
6455.51,0.54243
6432.37,0.54303
6409.22,0.54124
6386.08,0.54384
6362.93,0.53973
6339.79,0.54234
6316.64,0.54548
6293.5,0.54960
6270.35,0.55293
6247.21,0.55969
6224.06,0.57226
6200.92,0.58400
6177.77,0.59568
6154.63,0.60503
6131.48,0.61112
6108.34,0.62073
6085.19,0.62651
6062.05,0.63576
6038.9,0.64168
6015.76,0.64653
5992.61,0.65591
5969.47,0.65820
5946.32,0.65589
5923.18,0.64987
5900.03,0.64509
5876.89,0.63569
5853.74,0.63285
5830.6,0.62902
5807.45,0.62701
5784.31,0.62495
5761.16,0.62570
5738.02,0.62261
5714.87,0.61961
5691.73,0.61636
5668.58,0.61415
5645.44,0.61280
5622.29,0.60816
5599.15,0.61246
5576,0.61368
5552.86,0.61531
5529.71,0.61573
5506.57,0.61577
5483.42,0.61551
5460.28,0.61633
5437.13,0.62340
5413.99,0.63074
5390.84,0.63450
5367.7,0.63520
5344.55,0.63212
5321.41,0.62245
5298.26,0.60172
5275.12,0.57012
5251.97,0.53099
5228.83,0.49935
5205.68,0.47812
5182.54,0.47192
5159.39,0.47554
5136.25,0.48315
5113.1,0.49617
5089.96,0.50782
5066.81,0.51937
5043.67,0.52772
5020.52,0.53714
4997.38,0.54097
4974.23,0.53956
4951.09,0.53063
4927.94,0.51226
4904.8,0.48912
4881.65,0.46212
4858.51,0.43792
4835.36,0.42033
4812.22,0.40332
4789.07,0.39412
4765.93,0.38941
4742.78,0.39002
4719.64,0.39747
4696.49,0.40657
4673.35,0.41928
4650.2,0.43016
4627.06,0.43999
4603.92,0.44903
4580.77,0.45840
4557.63,0.47004
4534.48,0.47828
4511.34,0.48337
4488.19,0.48639
4465.05,0.48366
4441.9,0.45932
4418.76,0.42076
4395.61,0.39901
4372.47,0.41096
4349.32,0.40855
4326.18,0.39415
4303.03,0.38077
4279.89,0.36909
4256.74,0.36822
4233.6,0.37102
4210.45,0.37381
4187.31,0.38031
4164.16,0.38333
4141.02,0.37502
4117.87,0.36312
4094.73,0.33986
4071.58,0.31403
4048.44,0.28660
4025.29,0.26991
4002.15,0.27293
3979,0.28121
3955.86,0.28774
3932.71,0.29995
3909.57,0.31264
3886.42,0.32197
3863.28,0.33464
3840.13,0.34886
3816.99,0.34951
3793.84,0.34868
3770.7,0.34545
3747.55,0.33786
3724.41,0.32159
3701.26,0.28849
3678.12,0.23611
3654.97,0.16379
3631.83,0.10799
3608.68,0.07180
3585.54,0.04981
3562.39,0.03792
3539.25,0.03090
3516.1,0.02642
3492.96,0.02391
3469.81,0.02396
3446.67,0.02531
3423.52,0.02588
3400.38,0.02575
3377.23,0.02669
3354.09,0.02633
3330.94,0.02898
3307.8,0.02953
3284.65,0.02932
3261.51,0.03090
3238.36,0.03203
3215.22,0.03355
3192.07,0.03547
3168.93,0.03728
3145.78,0.04044
3122.64,0.04689
3099.49,0.05412
3076.35,0.06193
3053.2,0.07231
3030.06,0.08139
3006.91,0.08859
2983.77,0.07616
2960.62,0.05672
2937.48,0.04610
2914.33,0.03976
2891.19,0.03954
2868.04,0.04583
2844.9,0.05798
2821.75,0.07409
2798.61,0.08830
2775.46,0.09754
2752.32,0.10329
2729.17,0.10365
2706.03,0.11255
2682.88,0.12566
2659.74,0.13647
2636.59,0.14822
2613.45,0.15713
2590.3,0.16401
2567.16,0.16737
2544.02,0.16559
2520.87,0.16856
2497.73,0.17982
2474.58,0.19209
2451.44,0.20265
2428.29,0.21610
2405.15,0.22792
2382,0.23688
2358.86,0.24540
2335.71,0.25614
2312.57,0.26128
2289.42,0.25864
2266.28,0.24861
2243.13,0.23669
2219.99,0.23432
2196.84,0.23325
2173.7,0.21909
2150.55,0.20696
2127.41,0.20483
2104.26,0.21627
2081.12,0.22487
2057.97,0.22309
2034.83,0.22841
2011.68,0.25028
1988.54,0.25816
1965.39,0.27025
1942.25,0.28509
1919.1,0.29662
1895.96,0.30162
1872.81,0.29996
1849.67,0.29078
1826.52,0.27888
1803.38,0.26505
1780.23,0.24986
1757.09,0.23375
1733.94,0.21160
1710.8,0.18262
1687.65,0.14169
1664.51,0.10033
1641.36,0.08807
1618.22,0.10221
1595.07,0.11881
1571.93,0.12910
1548.78,0.13026
1525.64,0.12413
1502.49,0.10150
1479.35,0.06007
1456.2,0.04107
1433.06,0.03323
1409.91,0.03818
1386.77,0.03285
1363.62,0.02919
1340.48,0.03137
1317.33,0.03029
1294.19,0.03990
1271.04,0.03860
1247.9,0.03919
1224.75,0.03685
1201.61,0.02805
1178.46,0.02494
1155.32,0.02966
1132.17,0.01953
1109.03,0.02874
1085.88,0.03184
1062.74,0.04821
1039.59,0.04227
1016.45,0.04723
993.304,0.05087
970.159,0.07277
947.014,0.10848
923.869,0.11013
900.724,0.07053
877.579,0.11256
854.434,0.11965
831.289,0.10533
808.144,0.09175
784.999,0.07802
761.854,0.06365
738.709,0.05102
715.565,0.04045
692.42,0.03933
669.275,0.03655
646.13,0.03639
622.985,0.03368
599.84,0.03732

File: Bean_Bag_Chair_Outer_Cover_IS_S_220909_R7.dpt
7497.03,0.81321
7473.89,0.80176
7450.74,0.79412
7427.6,0.78785
7404.45,0.78923
7381.31,0.77320
7358.16,0.75795
7335.02,0.74899
7311.87,0.73668
7288.73,0.73536
7265.58,0.73711
7242.44,0.72880
7219.29,0.73872
7196.15,0.73049
7173,0.71415
7149.86,0.70610
7126.71,0.70495
7103.57,0.68294
7080.42,0.66084
7057.28,0.64140
7034.13,0.61252
7010.99,0.59956
6987.84,0.59028
6964.7,0.58161
6941.55,0.56904
6918.41,0.56262
6895.26,0.55375
6872.12,0.54815
6848.97,0.54455
6825.83,0.53350
6802.68,0.53016
6779.54,0.52142
6756.39,0.51381
6733.25,0.52126
6710.1,0.52516
6686.96,0.51838
6663.82,0.52021
6640.67,0.52158
6617.53,0.52773
6594.38,0.52845
6571.24,0.53787
6548.09,0.53462
6524.95,0.53534
6501.8,0.53758
6478.66,0.53699
6455.51,0.53699
6432.37,0.54064
6409.22,0.53994
6386.08,0.54285
6362.93,0.54300
6339.79,0.54379
6316.64,0.54736
6293.5,0.54797
6270.35,0.55595
6247.21,0.56272
6224.06,0.57334
6200.92,0.58426
6177.77,0.59242
6154.63,0.60508
6131.48,0.61212
6108.34,0.61909
6085.19,0.62552
6062.05,0.63212
6038.9,0.64172
6015.76,0.64739
5992.61,0.65534
5969.47,0.65793
5946.32,0.65230
5923.18,0.65149
5900.03,0.64500
5876.89,0.63166
5853.74,0.63314
5830.6,0.63074
5807.45,0.62665
5784.31,0.62596
5761.16,0.62436
5738.02,0.62078
5714.87,0.61859
5691.73,0.61542
5668.58,0.61119
5645.44,0.60803
5622.29,0.60888
5599.15,0.60889
5576,0.61108
5552.86,0.61255
5529.71,0.61387
5506.57,0.61462
5483.42,0.61407
5460.28,0.61603
5437.13,0.62159
5413.99,0.62941
5390.84,0.63450
5367.7,0.63479
5344.55,0.63105
5321.41,0.62205
5298.26,0.60355
5275.12,0.57062
5251.97,0.53119
5228.83,0.50033
5205.68,0.48071
5182.54,0.47470
5159.39,0.47671
5136.25,0.48609
5113.1,0.49740
5089.96,0.50813
5066.81,0.52008
5043.67,0.53050
5020.52,0.53766
4997.38,0.54256
4974.23,0.54038
4951.09,0.53103
4927.94,0.51377
4904.8,0.48783
4881.65,0.45898
4858.51,0.43664
4835.36,0.41990
4812.22,0.40356
4789.07,0.39304
4765.93,0.38771
4742.78,0.38854
4719.64,0.39612
4696.49,0.40548
4673.35,0.41821
4650.2,0.42836
4627.06,0.43864
4603.92,0.44839
4580.77,0.45798
4557.63,0.46873
4534.48,0.47722
4511.34,0.48339
4488.19,0.48549
4465.05,0.48192
4441.9,0.45866
4418.76,0.41994
4395.61,0.39832
4372.47,0.41039
4349.32,0.40685
4326.18,0.39393
4303.03,0.37988
4279.89,0.36875
4256.74,0.36729
4233.6,0.37012
4210.45,0.37400
4187.31,0.37970
4164.16,0.38269
4141.02,0.37486
4117.87,0.36318
4094.73,0.33975
4071.58,0.31319
4048.44,0.28549
4025.29,0.26960
4002.15,0.27234
3979,0.28165
3955.86,0.28737
3932.71,0.30009
3909.57,0.31135
3886.42,0.32181
3863.28,0.33405
3840.13,0.34757
3816.99,0.34987
3793.84,0.34783
3770.7,0.34554
3747.55,0.33839
3724.41,0.32118
3701.26,0.28888
3678.12,0.23803
3654.97,0.16610
3631.83,0.10992
3608.68,0.07297
3585.54,0.05087
3562.39,0.03881
3539.25,0.03100
3516.1,0.02630
3492.96,0.02440
3469.81,0.02398
3446.67,0.02605
3423.52,0.02625
3400.38,0.02582
3377.23,0.02537
3354.09,0.02696
3330.94,0.02845
3307.8,0.02880
3284.65,0.02974
3261.51,0.03078
3238.36,0.03290
3215.22,0.03352
3192.07,0.03566
3168.93,0.03796
3145.78,0.04156
3122.64,0.04678
3099.49,0.05393
3076.35,0.06277
3053.2,0.07220
3030.06,0.08197
3006.91,0.08895
2983.77,0.07692
2960.62,0.05685
2937.48,0.04595
2914.33,0.04051
2891.19,0.03928
2868.04,0.04553
2844.9,0.05832
2821.75,0.07445
2798.61,0.08888
2775.46,0.09789
2752.32,0.10311
2729.17,0.10326
2706.03,0.11216
2682.88,0.12598
2659.74,0.13677
2636.59,0.14790
2613.45,0.15675
2590.3,0.16375
2567.16,0.16720
2544.02,0.16538
2520.87,0.16831
2497.73,0.17992
2474.58,0.19212
2451.44,0.20162
2428.29,0.21585
2405.15,0.22801
2382,0.23664
2358.86,0.24536
2335.71,0.25607
2312.57,0.26167
2289.42,0.25897
2266.28,0.24867
2243.13,0.23685
2219.99,0.23416
2196.84,0.23385
2173.7,0.21934
2150.55,0.20728
2127.41,0.20494
2104.26,0.21694
2081.12,0.22568
2057.97,0.22321
2034.83,0.22899
2011.68,0.25067
1988.54,0.25871
1965.39,0.27031
1942.25,0.28574
1919.1,0.29660
1895.96,0.30191
1872.81,0.29994
1849.67,0.29118
1826.52,0.27928
1803.38,0.26538
1780.23,0.25023
1757.09,0.23425
1733.94,0.21209
1710.8,0.18391
1687.65,0.14286
1664.51,0.10131
1641.36,0.08870
1618.22,0.10350
1595.07,0.11935
1571.93,0.12988
1548.78,0.13071
1525.64,0.12413
1502.49,0.10140
1479.35,0.05986
1456.2,0.04115
1433.06,0.03265
1409.91,0.03873
1386.77,0.03298
1363.62,0.02904
1340.48,0.03053
1317.33,0.03022
1294.19,0.03983
1271.04,0.03866
1247.9,0.03923
1224.75,0.03658
1201.61,0.02781
1178.46,0.02444
1155.32,0.02930
1132.17,0.02034
1109.03,0.02932
1085.88,0.03175
1062.74,0.04884
1039.59,0.04196
1016.45,0.04680
993.304,0.05089
970.159,0.07234
947.014,0.10787
923.869,0.11051
900.724,0.07055
877.579,0.11308
854.434,0.12028
831.289,0.10584
808.144,0.09179
784.999,0.07850
761.854,0.06408
738.709,0.05049
715.565,0.04090
692.42,0.03956
669.275,0.03721
646.13,0.03812
622.985,0.03509
599.84,0.03709

File: Bean_Bag_Chair_Outer_Cover_IS_S_220909_R8.dpt
7497.03,0.81583
7473.89,0.81310
7450.74,0.80191
7427.6,0.80344
7404.45,0.77759
7381.31,0.77643
7358.16,0.75879
7335.02,0.74943
7311.87,0.74505
7288.73,0.73893
7265.58,0.73397
7242.44,0.73022
7219.29,0.73423
7196.15,0.72892
7173,0.72647
7149.86,0.71360
7126.71,0.70652
7103.57,0.68905
7080.42,0.65986
7057.28,0.63968
7034.13,0.61910
7010.99,0.59859
6987.84,0.58449
6964.7,0.57353
6941.55,0.56693
6918.41,0.55617
6895.26,0.56174
6872.12,0.54832
6848.97,0.54744
6825.83,0.53631
6802.68,0.52908
6779.54,0.52524
6756.39,0.51057
6733.25,0.51505
6710.1,0.51571
6686.96,0.51519
6663.82,0.51801
6640.67,0.52187
6617.53,0.53401
6594.38,0.53089
6571.24,0.54029
6548.09,0.53931
6524.95,0.53830
6501.8,0.53422
6478.66,0.54187
6455.51,0.53848
6432.37,0.54070
6409.22,0.54502
6386.08,0.54753
6362.93,0.54606
6339.79,0.54157
6316.64,0.54949
6293.5,0.55070
6270.35,0.55604
6247.21,0.56181
6224.06,0.57624
6200.92,0.58594
6177.77,0.59204
6154.63,0.60567
6131.48,0.61144
6108.34,0.61895
6085.19,0.62703
6062.05,0.63590
6038.9,0.64450
6015.76,0.64921
5992.61,0.65464
5969.47,0.65778
5946.32,0.65617
5923.18,0.65081
5900.03,0.64750
5876.89,0.63314
5853.74,0.63194
5830.6,0.63368
5807.45,0.63064
5784.31,0.62767
5761.16,0.62464
5738.02,0.62352
5714.87,0.61918
5691.73,0.61829
5668.58,0.61306
5645.44,0.61060
5622.29,0.61253
5599.15,0.61334
5576,0.61299
5552.86,0.61588
5529.71,0.61590
5506.57,0.61491
5483.42,0.61643
5460.28,0.61946
5437.13,0.62296
5413.99,0.63149
5390.84,0.63466
5367.7,0.63385
5344.55,0.63490
5321.41,0.62378
5298.26,0.60362
5275.12,0.57386
5251.97,0.53409
5228.83,0.50139
5205.68,0.48283
5182.54,0.47704
5159.39,0.47880
5136.25,0.48955
5113.1,0.49939
5089.96,0.51189
5066.81,0.52248
5043.67,0.53056
5020.52,0.53981
4997.38,0.54568
4974.23,0.54267
4951.09,0.53357
4927.94,0.51432
4904.8,0.48855
4881.65,0.46097
4858.51,0.43801
4835.36,0.41982
4812.22,0.40384
4789.07,0.39429
4765.93,0.38924
4742.78,0.39050
4719.64,0.39709
4696.49,0.40835
4673.35,0.41876
4650.2,0.42824
4627.06,0.43915
4603.92,0.44971
4580.77,0.45901
4557.63,0.46899
4534.48,0.47712
4511.34,0.48380
4488.19,0.48484
4465.05,0.48264
4441.9,0.45970
4418.76,0.42095
4395.61,0.39888
4372.47,0.41062
4349.32,0.40753
4326.18,0.39426
4303.03,0.38018
4279.89,0.36933
4256.74,0.36838
4233.6,0.37050
4210.45,0.37463
4187.31,0.38050
4164.16,0.38302
4141.02,0.37567
4117.87,0.36405
4094.73,0.34051
4071.58,0.31428
4048.44,0.28636
4025.29,0.26957
4002.15,0.27282
3979,0.28178
3955.86,0.28870
3932.71,0.30041
3909.57,0.31172
3886.42,0.32281
3863.28,0.33599
3840.13,0.34873
3816.99,0.35072
3793.84,0.34918
3770.7,0.34587
3747.55,0.33917
3724.41,0.32286
3701.26,0.29054
3678.12,0.23941
3654.97,0.16710
3631.83,0.11075
3608.68,0.07377
3585.54,0.05139
3562.39,0.03863
3539.25,0.03187
3516.1,0.02600
3492.96,0.02504
3469.81,0.02389
3446.67,0.02488
3423.52,0.02605
3400.38,0.02586
3377.23,0.02622
3354.09,0.02658
3330.94,0.02835
3307.8,0.02922
3284.65,0.02963
3261.51,0.03127
3238.36,0.03304
3215.22,0.03354
3192.07,0.03512
3168.93,0.03724
3145.78,0.04201
3122.64,0.04649
3099.49,0.05404
3076.35,0.06275
3053.2,0.07289
3030.06,0.08220
3006.91,0.08899
2983.77,0.07698
2960.62,0.05731
2937.48,0.04696
2914.33,0.04003
2891.19,0.03961
2868.04,0.04569
2844.9,0.05817
2821.75,0.07416
2798.61,0.08897
2775.46,0.09824
2752.32,0.10317
2729.17,0.10415
2706.03,0.11248
2682.88,0.12609
2659.74,0.13717
2636.59,0.14807
2613.45,0.15719
2590.3,0.16433
2567.16,0.16741
2544.02,0.16567
2520.87,0.16867
2497.73,0.18024
2474.58,0.19248
2451.44,0.20239
2428.29,0.21611
2405.15,0.22819
2382,0.23756
2358.86,0.24702
2335.71,0.25696
2312.57,0.26224
2289.42,0.25961
2266.28,0.24944
2243.13,0.23750
2219.99,0.23537
2196.84,0.23459
2173.7,0.22058
2150.55,0.20794
2127.41,0.20564
2104.26,0.21751
2081.12,0.22623
2057.97,0.22472
2034.83,0.22959
2011.68,0.25127
1988.54,0.25951
1965.39,0.27131
1942.25,0.28644
1919.1,0.29796
1895.96,0.30329
1872.81,0.30105
1849.67,0.29234
1826.52,0.28026
1803.38,0.26630
1780.23,0.25132
1757.09,0.23503
1733.94,0.21332
1710.8,0.18499
1687.65,0.14383
1664.51,0.10244
1641.36,0.08988
1618.22,0.10418
1595.07,0.11997
1571.93,0.13028
1548.78,0.13120
1525.64,0.12470
1502.49,0.10164
1479.35,0.06020
1456.2,0.04120
1433.06,0.03257
1409.91,0.03844
1386.77,0.03291
1363.62,0.02896
1340.48,0.03095
1317.33,0.03105
1294.19,0.03997
1271.04,0.03871
1247.9,0.03943
1224.75,0.03644
1201.61,0.02810
1178.46,0.02434
1155.32,0.02958
1132.17,0.01934
1109.03,0.02931
1085.88,0.03217
1062.74,0.04778
1039.59,0.04209
1016.45,0.04685
993.304,0.05105
970.159,0.07222
947.014,0.10835
923.869,0.11096
900.724,0.07085
877.579,0.11370
854.434,0.12108
831.289,0.10690
808.144,0.09311
784.999,0.07863
761.854,0.06415
738.709,0.05078
715.565,0.03985
692.42,0.03966
669.275,0.03533
646.13,0.03766
622.985,0.03335
599.84,0.03997

File: Bean_Bag_Chair_Outer_Cover_IS_T_220909_R8.dpt
7497.03,0.03292
7473.89,0.02876
7450.74,0.02578
7427.6,0.01760
7404.45,0.02210
7381.31,0.01610
7358.16,0.02544
7335.02,0.02331
7311.87,0.02639
7288.73,0.02943
7265.58,0.03303
7242.44,0.01379
7219.29,0.01915
7196.15,0.02149
7173,0.02693
7149.86,0.03111
7126.71,0.02062
7103.57,0.01724
7080.42,0.02317
7057.28,0.02377
7034.13,0.02482
7010.99,0.02485
6987.84,0.02095
6964.7,0.02290
6941.55,0.02661
6918.41,0.02464
6895.26,0.02626
6872.12,0.02161
6848.97,0.02377
6825.83,0.02084
6802.68,0.02577
6779.54,0.02586
6756.39,0.02228
6733.25,0.02320
6710.1,0.02307
6686.96,0.02626
6663.82,0.02196
6640.67,0.02223
6617.53,0.02015
6594.38,0.02236
6571.24,0.02065
6548.09,0.02037
6524.95,0.02020
6501.8,0.01946
6478.66,0.02311
6455.51,0.02284
6432.37,0.02331
6409.22,0.02294
6386.08,0.02436
6362.93,0.02023
6339.79,0.02161
6316.64,0.02140
6293.5,0.02436
6270.35,0.02426
6247.21,0.02159
6224.06,0.02269
6200.92,0.02144
6177.77,0.02473
6154.63,0.02426
6131.48,0.02204
6108.34,0.02141
6085.19,0.02290
6062.05,0.02250
6038.9,0.02401
6015.76,0.02154
5992.61,0.02167
5969.47,0.02413
5946.32,0.02371
5923.18,0.02049
5900.03,0.02109
5876.89,0.02369
5853.74,0.02269
5830.6,0.02280
5807.45,0.02186
5784.31,0.02194
5761.16,0.02090
5738.02,0.02225
5714.87,0.02168
5691.73,0.02113
5668.58,0.02176
5645.44,0.02309
5622.29,0.02271
5599.15,0.02280
5576,0.02237
5552.86,0.02301
5529.71,0.02134
5506.57,0.02208
5483.42,0.02194
5460.28,0.02284
5437.13,0.02228
5413.99,0.02213
5390.84,0.02196
5367.7,0.02116
5344.55,0.02368
5321.41,0.02245
5298.26,0.02179
5275.12,0.02190
5251.97,0.02194
5228.83,0.02086
5205.68,0.02329
5182.54,0.02153
5159.39,0.02195
5136.25,0.02193
5113.1,0.02208
5089.96,0.02231
5066.81,0.02308
5043.67,0.02228
5020.52,0.02162
4997.38,0.02198
4974.23,0.02192
4951.09,0.02239
4927.94,0.02139
4904.8,0.02225
4881.65,0.02200
4858.51,0.02193
4835.36,0.02198
4812.22,0.02224
4789.07,0.02310
4765.93,0.02257
4742.78,0.02245
4719.64,0.02268
4696.49,0.02207
4673.35,0.02347
4650.2,0.02205
4627.06,0.02235
4603.92,0.02251
4580.77,0.02247
4557.63,0.02225
4534.48,0.02294
4511.34,0.02253
4488.19,0.02110
4465.05,0.02229
4441.9,0.02178
4418.76,0.02219
4395.61,0.02254
4372.47,0.02218
4349.32,0.02220
4326.18,0.02194
4303.03,0.02213
4279.89,0.02259
4256.74,0.02202
4233.6,0.02215
4210.45,0.02193
4187.31,0.02262
4164.16,0.02276
4141.02,0.02324
4117.87,0.02315
4094.73,0.02238
4071.58,0.02269
4048.44,0.02203
4025.29,0.02284
4002.15,0.02254
3979,0.02245
3955.86,0.02231
3932.71,0.02351
3909.57,0.02233
3886.42,0.02268
3863.28,0.02309
3840.13,0.02303
3816.99,0.02319
3793.84,0.02299
3770.7,0.02257
3747.55,0.02305
3724.41,0.02297
3701.26,0.02273
3678.12,0.02279
3654.97,0.02245
3631.83,0.02208
3608.68,0.02207
3585.54,0.02252
3562.39,0.02113
3539.25,0.02118
3516.1,0.02121
3492.96,0.02117
3469.81,0.02100
3446.67,0.02053
3423.52,0.02036
3400.38,0.02102
3377.23,0.02100
3354.09,0.02020
3330.94,0.01995
3307.8,0.02062
3284.65,0.01983
3261.51,0.02039
3238.36,0.01985
3215.22,0.02144
3192.07,0.02075
3168.93,0.02125
3145.78,0.02128
3122.64,0.02104
3099.49,0.02062
3076.35,0.02085
3053.2,0.02070
3030.06,0.02024
3006.91,0.02075
2983.77,0.01983
2960.62,0.01973
2937.48,0.01958
2914.33,0.02005
2891.19,0.02077
2868.04,0.02055
2844.9,0.02113
2821.75,0.02155
2798.61,0.02097
2775.46,0.02141
2752.32,0.02122
2729.17,0.02149
2706.03,0.02117
2682.88,0.02161
2659.74,0.02130
2636.59,0.02135
2613.45,0.02097
2590.3,0.02110
2567.16,0.02097
2544.02,0.02113
2520.87,0.02130
2497.73,0.02098
2474.58,0.02132
2451.44,0.02120
2428.29,0.02131
2405.15,0.02158
2382,0.02128
2358.86,0.02202
2335.71,0.02167
2312.57,0.02130
2289.42,0.02140
2266.28,0.02123
2243.13,0.02076
2219.99,0.02117
2196.84,0.02127
2173.7,0.02125
2150.55,0.02096
2127.41,0.02080
2104.26,0.02110
2081.12,0.02122
2057.97,0.02132
2034.83,0.02111
2011.68,0.02079
1988.54,0.02105
1965.39,0.02097
1942.25,0.02111
1919.1,0.02118
1895.96,0.02058
1872.81,0.02048
1849.67,0.02034
1826.52,0.02019
1803.38,0.01988
1780.23,0.01922
1757.09,0.01780
1733.94,0.01973
1710.8,0.02111
1687.65,0.01916
1664.51,0.01885
1641.36,0.01850
1618.22,0.01912
1595.07,0.01862
1571.93,0.01904
1548.78,0.01827
1525.64,0.01858
1502.49,0.01903
1479.35,0.01825
1456.2,0.01871
1433.06,0.01890
1409.91,0.01839
1386.77,0.01829
1363.62,0.01852
1340.48,0.01782
1317.33,0.01749
1294.19,0.01800
1271.04,0.01973
1247.9,0.02058
1224.75,0.01979
1201.61,0.01870
1178.46,0.01809
1155.32,0.01808
1132.17,0.01794
1109.03,0.01874
1085.88,0.01839
1062.74,0.01974
1039.59,0.02004
1016.45,0.01952
993.304,0.02134
970.159,0.02038
947.014,0.01981
923.869,0.01978
900.724,0.01948
877.579,0.01900
854.434,0.01920
831.289,0.01927
808.144,0.01798
784.999,0.01924
761.854,0.01836
738.709,0.01962
715.565,0.01803
692.42,0.01783
669.275,0.01801
646.13,0.01588
622.985,0.01516
599.84,0.01639