Folder: fsri_materials_database/01_Data/Cotton_Rug/Cone

Note: README.md
# Materials and Products Database
### Repository of materials and products properties and fire test data to improve fire modeling and fire investigation.

This project was supported in part by Award No. 2019-DU-BX-0018, awarded by the National Institute of Justice, Office of Justice Programs, U.S. Department of Justice. The opinions, findings, and conclusions or recommendations expressed in this publication / program / exhibition are those of the author(s) and do not necessarily reflect those of the Department of Justice.

***
***

__Cite this database:__ "McKinnon, M., Weinschenk, C., Dow, N., DiDomizio, M., and Madrzykowski, D. Materials and Products Database (Version 1.0.0), Fire Safety Research Institute, UL Research Institutes. Columbia, MD 21045, 2023."

__Cite the Technical Reference Guide:__ "McKinnon, M., Weinschenk, C., and Madrzykowski, D. Materials and Products Database - Technical Reference Guide, Fire Safety Research Institute, UL Research Institutes. Columbia, MD 21045, 2023."

__Cite the User Guide:__ "McKinnon, M., and Weinschenk, C. Materials and Products Database - User Guide, Fire Safety Research Institute, UL Research Institutes. Columbia, MD 21045, 2023."

***
***

## Database Structure

## 01_Data/
Raw data generated from each apparatus are included here in plain-text format. The data is organized first by material, next by the short name of test apparatus used, and where applicable additional filtering by test settings.

### Test Apparatus and Data File Structure
- __Cone Calorimeter__ (Cone)
    + Data file structure includes the material, the short name for the apparatus, heat flux setting and scan/scalar, date of test, and replicate number. Scan is for the raw output data and scalar is for the initial conditions and high-level test parameters. 
        * Example: __MDF_Cone_HF25scalar_210323_R1__ stands for the first replicate of scalar data generated from a medium density fiber board test in cone calorimeter exposed to 25 kW/m<sup>2</sup> on March 23, 2021.
    + A _Cone_Notes.csv_ is generated for each material from the __plot_Cone_data.py__ script. For materials whose experiments deviated from typical behavior relevant pictures are included in the respective material directory.
- __Fourier Transform Infrared Spectrometer__ (FTIR)
    + The FTIR directory contains subdirectories for the Attenuated Total Reflectance method (ATR) and the Integrating Sphere (IS)
    + Data file structure for the ATR experiment files includes the material, the abbreviated name for the apparatus, date of test, and replicate number. 
        * Example: __MDF_ATR_210323_R5__ stands for the fifth replicate of data collected with the ATR accessory conducted on June 8, 2021.
    + Data file structure for the IS experiment files includes the material, the abbreviated name for the apparatus, the measurand, whether the test is a sample measurement or standard reference, date of test, and replicate number.
        * Example: __OSB_IS_REFLECT_MEAS_2

File: Cotton_Rug_HRRPUA_25.csv
Time after Ignition,Cotton_Rug_R1,Cotton_Rug_R2,Cotton_Rug_R3,Mean,Std. Dev.
0.0,55.5,19.1,12.2,28.9,23.2
0.75,75.9,35.9,23.3,45.0,27.4
1.5,93.0,54.6,38.6,62.1,27.9
2.25,112.3,74.1,63.6,83.3,25.6
3.0,137.9,94.5,91.8,108.1,25.9
3.75,156.7,112.1,113.1,127.3,25.5
4.5,178.1,130.8,135.0,148.0,26.2
5.25,198.4,143.1,151.0,164.1,29.9
6.0,210.5,160.0,163.7,178.1,28.1
6.75,228.4,169.7,181.4,193.2,31.1
7.5,235.9,182.2,192.2,203.4,28.6
8.25,253.1,189.3,200.5,214.3,34.1
9.0,263.5,197.5,207.9,223.0,35.5
9.75,272.4,209.0,216.3,232.6,34.7
10.5,274.3,216.0,225.0,238.4,31.4
11.25,276.9,221.6,230.6,243.0,29.7
12.0,287.9,221.7,238.3,249.3,34.4
12.75,287.6,232.7,243.5,254.6,29.1
13.5,294.0,234.0,248.5,258.9,31.3
14.25,299.0,239.2,255.1,264.5,31.0
15.0,301.7,239.3,256.8,265.9,32.2
15.75,305.7,244.0,262.9,270.9,31.6
16.5,314.0,247.4,272.2,277.9,33.7
17.25,314.5,243.8,269.6,276.0,35.8
18.0,321.6,252.5,279.9,284.7,34.8
18.75,321.0,253.3,282.0,285.4,33.9
19.5,332.5,262.1,284.3,293.0,36.0
20.25,327.1,260.5,291.4,293.0,33.3
21.0,333.1,264.4,287.2,294.9,35.0
21.75,340.2,269.5,298.8,302.9,35.5
22.5,337.1,271.5,304.9,304.5,32.8
23.25,348.5,275.4,309.7,311.2,36.6
24.0,346.5,275.9,316.0,312.8,35.4
24.75,350.3,280.8,307.5,312.9,35.1
25.5,346.7,283.4,310.1,313.4,31.8
26.25,339.6,279.8,314.6,311.3,30.1
27.0,348.5,288.6,323.3,320.1,30.1
27.75,344.9,292.3,329.9,322.3,27.1
28.5,339.7,290.4,338.1,322.8,28.0
29.25,347.5,281.0,333.2,320.6,35.0
30.0,352.1,290.7,336.0,326.3,31.8
30.75,343.3,291.3,340.0,324.9,29.1
31.5,348.0,290.7,334.6,324.5,30.0
32.25,340.6,296.3,340.9,325.9,25.7
33.0,346.7,291.1,350.2,329.3,33.1
33.75,340.6,301.0,344.0,328.5,23.9
34.5,345.6,294.1,347.5,329.1,30.3
35.25,346.3,298.7,340.9,328.6,26.1
36.0,338.7,300.1,341.1,326.6,23.0
36.75,346.8,295.2,339.3,327.1,27.9
37.5,343.3,300.5,353.0,332.3,27.9
38.25,335.1,297.7,340.8,324.5,23.4
39.0,338.1,295.5,347.0,326.8,27.5
39.75,333.7,299.2,339.5,324.1,21.8
40.5,333.4,292.9,341.0,322.4,25.9
41.25,325.5,297.8,337.2,320.2,20.2
42.0,329.1,297.1,336.8,321.0,21.1
42.75,325.2,298.0,332.1,318.4,18.0
43.5,325.2,293.4,324.6,314.4,18.2
44.25,322.9,297.2,319.6,313.2,14.0
45.0,320.1,294.3,319.0,311.1,14.6
45.75,314.5,292.0,321.1,309.2,15.3
46.5,316.1,292.6,310.0,306.2,12.2
47.25,308.7,292.2,317.9,306.3,13.1
48.0,300.7,289.3,312.4,300.8,11.5
48.75,305.1,290.1,305.7,300.3,8.8
49.5,294.6,286.6,304.8,295.3,9.1
50.25,289.6,282.9,300.6,291.0,8.9
51.0,288.9,281.8,303.6,291.5,11.1
51.75,285.0,280.4,298.2,287.8,9.3
52.5,281.3,274.8,292.3,282.8,8.8
53.25,272.6,278.3,283.4,278.1,5.4
54.0,267.3,272.3,284.7,274.8,9.0
54.75,264.6,267.6,278.4,270.2,7.3
55.5,261.7,264.3,270.1,265.4,4.3
56.25,256.0,263.0,272.7,263.9,8.4
57.0,249.2,260.2,269.1,259.5,10.0
57.75,250.0,257.4,262.1,256.5,6.1
58.5,242.7,254.9,253.4,250.3,6.6
59.25,238.8,249.6,249.1,245.9,6.1
60.0,234.9,250.9,245.6,243.8,8.2
60.75,226.4,248.1,240.2,238.3,11.0
61.5,220.8,246.3,239.9,235.7,13.3
62.25,214.3,242.1,231.4,229.3,14.0
63.0,206.5,236.1,226.2,223.0,15.1
63.75,205.2,240.3,222.4,222.7,17.5
64.5,198.1,235.3,213.6,215.7,18.7
65.25,197.7,231.1,210.9,213.2,16.8
66.0,188.6,225.9,202.5,205.7,18.9
66.75,182.6,224.7,198.2,201.8,21.3
67.5,179.2,221.4,190.5,197.1,21.8
68.25,174.0,218.3,185.8,192.7,22.9
69.0,167.6,215.8,180.3,187.9,25.0
69.75,162.7,210.4,174.8,182.7,24.8
70.5,159.4,209.3,170.5,179.7,26.2
71.25,155.2,205.3,171.5,177.4,25.5
72.0,153.6,203.5,167.9,175.0,25.7
72.75,149.3,195.8,160.8,168.6,24.2
73.5,144.6,193.2,154.0,163.9,25.8
74.25,140.2,192.0,148.3,160.2,27.9
75.0,135.8,186.3,143.1,155.0,27.3
75.75,128.0,183.1,136.7,149.2,29.6
76.5,123.8,182.5,133.5,146.6,31.5
77.25,121.2,178.6,129.1,143.0,31.1
78.0,119.6,177.3,123.6,140.2,32.2
78.75,116.2,171.2,119.8,135.8,30.8
79.5,111.1,167.4,116.3,131.6,31.1
80.25,107.1,166.1,112.7,128.6,32.5
81.0,103.8,163.0,108.9,125.2,32.8
81.75,100.8,154.9,105.5,120.4,30.0
82.5,99.3,154.9,101.3,118.5,31.5
83.25,95.2,150.0,97.0,114.1,31.1
84.0,94.7,143.4,95.3,111.2,27.9
84.75,92.2,139.4,92.6,108.1,27.2
85.5,90.2,134.2,89.0,104.5,25.7
86.25,87.7,127.0,84.0,99.6,23.8
87.0,85.4,120.5,80.1,95.3,22.0
87.75,83.9,112.7,77.5,91.3,18.7
88.5,80.2,107.7,75.2,87.7,17.5
89.25,78.0,102.7,73.1,84.6,15.9
90.0,76.5,98.7,71.9,82.3,14.3
90.75,75.0,93.4,68.7,79.1,12.8
91.5,71.1,91.0,67.7,76.6,12.6
92.25,70.1,88.3,65.9,74.8,11.9
93.0,68.1,83.2,63.7,71.7,10.2
93.75,68.0,80.9,62.2,70.4,9.6
94.5,66.3,74.9,60.9,67.4,7.0
95.25,63.7,71.9,59.3,65.0,6.4
96.0,61.8,69.8,57.4,63.0,6.2
96.75,61.1,66.7,55.6,61.1,5.6
97.5,60.0,64.6,54.1,59.6,5.3
98.25,57.8,62.3,52.8,57.6,4.7
99.0,57.6,60.2,52.3,56.7,4.0
99.75,55.9,58.0,49.5,54.5,4.5
100.5,55.9,54.5,48.0,52.8,4.2
101.25,54.7,52.8,46.7,51.4,4.2
102.0,54.0,51.3,46.6,50.7,3.7
102.75,52.4,48.1,44.9,48.5,3.8
103.5,51.1,46.4,44.1,47.2,3.6
104.25,50.7,45.0,43.6,46.4,3.7
105.0,50.3,43.4,42.7,45.5,4.2
105.75,49.2,42.4,42.9,44.8,3.8
106.5,48.7,40.9,41.7,43.8,4.3
107.25,49.0,41.0,42.5,44.1,4.3
108.0,47.7,40.2,42.0,43.3,3.9
108.75,47.7,39.1,40.6,42.5,4.6
109.5,47.1,39.4,41.1,42.5,4.0
110.25,46.0,38.8,41.2,42.0,3.7
111.0,45.1,38.0,40.7,41.2,3.6
111.75,45.5,38.3,40.4,41.4,3.7
112.5,45.0,37.9,40.1,41.0,3.7
113.25,44.1,38.3,39.9,40.8,3.0
114.0,43.8,37.4,39.6,40.3,3.3
114.75,43.7,37.6,40.2,40.5,3.0
115.5,43.3,36.7,39.7,39.9,3.3
116.25,43.1,36.0,39.1,39.4,3.5
117.0,42.7,36.1,,39.4,4.7
117.75,42.4,36.0,,39.2,4.5
118.5,41.3,,,41.3,
119.25,41.7,,,41.7,
120.0,40.6,,,40.6,
120.75,41.1,,,41.1,
121.5,40.1,,,40.1,
122.25,40.1,,,40.1,
123.0,39.8,,,39.8,
123.75,39.2,,,39.2,
124.5,39.0,,,39.0,
125.25,38.5,,,38.5,
126.0,39.2,,,39.2,
126.75,38.4,,,38.4,
127.5,37.3,,,37.3,
128.25,37.9,,,37.9,
129.0,37.7,,,37.7,
129.75,37.4,,,37.4,
130.5,37.2,,,37.2,
131.25,36.7,,,36.7,
132.0,37.3,,,37.3,
132.75,37.2,,,37.2,
133.5,36.6,,,36.6,
134.25,36.8,,,36.8,
135.0,35.9,,,35.9,
135.75,36.0,,,36.0,
136.5,35.7,,,35.7,
137.25,35.8,,,35.8,
138.0,35.7,,,35.7,
138.75,35.2,,,35.2,
139.5,35.3,,,35.3,
140.25,34.7,,,34.7,
141.0,34.2,,,34.2,
141.75,33.8,,,33.8,
142.5,33.4,,,33.4,
143.25,33.6,,,33.6,
144.0,33.1,,,33.1,
144.75,32.9,,,32.9,
145.5,32.2,,,32.2,
146.25,32.1,,,32.1,
147.0,31.6,,,31.6,
147.75,32.0,,,32.0,
148.5,32.0,,,32.0,
149.25,32.0,,,32.0,
150.0,31.6,,,31.6,
150.75,31.8,,,31.8,
151.5,31.6,,,31.6,
152.25,31.8,,,31.8,
153.0,32.4,,,32.4,
153.75,32.9,,,32.9,
154.5,33.5,,,33.5,
155.25,33.4,,,33.4,
156.0,33.0,,,33.0,
156.75,33.9,,,33.9,
157.5,34.0,,,34.0,
158.25,33.7,,,33.7,
159.0,34.4,,,34.4,
159.75,34.6,,,34.6,
160.5,34.2,,,34.2,
161.25,33.8,,,33.8,

File: Cotton_Rug_HRRPUA_50.csv
Time after Ignition,Cotton_Rug_R1,Cotton_Rug_R2,Cotton_Rug_R3,Mean,Std. Dev.
0.0,41.2,28.8,33.0,34.3,6.3
0.75,59.6,47.2,50.3,52.3,6.4
1.5,73.9,63.8,74.1,70.6,5.9
2.25,90.9,83.7,95.9,90.2,6.1
3.0,110.2,105.5,115.9,110.5,5.2
3.75,128.3,127.9,138.7,131.7,6.1
4.5,148.4,147.3,158.5,151.4,6.2
5.25,168.2,167.3,174.6,170.0,4.0
6.0,184.5,182.9,195.5,187.6,6.8
6.75,196.3,202.8,215.5,204.9,9.8
7.5,211.1,219.8,229.8,220.2,9.4
8.25,227.7,235.6,249.1,237.5,10.8
9.0,233.0,251.6,260.1,248.2,13.8
9.75,247.9,263.0,272.9,261.3,12.6
10.5,261.7,278.5,291.1,277.1,14.7
11.25,271.7,297.9,308.0,292.5,18.7
12.0,285.0,304.2,320.0,303.1,17.5
12.75,286.8,321.1,339.1,315.7,26.6
13.5,302.1,333.1,362.4,332.5,30.2
14.25,317.3,346.3,375.7,346.4,29.2
15.0,321.3,356.0,397.3,358.2,38.1
15.75,333.0,364.9,395.8,364.6,31.4
16.5,359.9,384.5,414.9,386.4,27.6
17.25,355.6,391.3,420.7,389.2,32.6
18.0,380.4,400.0,432.2,404.2,26.2
18.75,382.4,416.0,457.9,418.8,37.8
19.5,390.3,415.5,449.3,418.3,29.6
20.25,404.4,443.2,479.1,442.2,37.3
21.0,418.1,456.0,485.5,453.2,33.8
21.75,429.1,474.8,507.8,470.6,39.5
22.5,434.2,471.2,522.0,475.8,44.1
23.25,445.7,484.9,520.0,483.5,37.1
24.0,448.8,494.6,544.0,495.8,47.6
24.75,472.2,492.5,547.1,503.9,38.7
25.5,478.5,511.9,550.5,513.6,36.0
26.25,475.8,519.4,551.6,515.6,38.0
27.0,490.1,531.7,573.2,531.7,41.5
27.75,498.0,560.3,580.2,546.2,42.9
28.5,494.2,549.5,581.1,541.6,44.0
29.25,502.8,557.5,576.3,545.5,38.2
30.0,514.8,566.0,578.5,553.1,33.7
30.75,503.4,565.4,587.4,552.1,43.5
31.5,520.6,581.6,573.5,558.6,33.2
32.25,526.2,580.3,589.7,565.4,34.3
33.0,511.7,581.1,579.5,557.4,39.6
33.75,524.3,548.8,586.4,553.2,31.3
34.5,528.3,562.3,584.1,558.2,28.1
35.25,522.7,546.3,570.5,546.5,23.9
36.0,519.5,562.5,560.7,547.6,24.4
36.75,530.7,557.2,546.0,544.6,13.3
37.5,512.9,554.2,534.2,533.7,20.6
38.25,515.7,555.7,538.1,536.5,20.0
39.0,521.3,535.3,540.0,532.2,9.8
39.75,490.7,503.6,533.9,509.4,22.2
40.5,506.0,523.6,511.8,513.8,9.0
41.25,483.3,502.4,489.4,491.7,9.7
42.0,480.8,479.1,491.7,483.9,6.8
42.75,479.1,474.1,488.1,480.5,7.1
43.5,482.1,461.2,468.7,470.7,10.6
44.25,475.6,451.2,458.1,461.6,12.6
45.0,460.2,440.2,433.3,444.6,13.9
45.75,449.8,422.2,429.1,433.7,14.3
46.5,441.4,407.4,409.7,419.5,19.0
47.25,437.6,378.6,401.1,405.8,29.8
48.0,427.9,353.2,378.2,386.4,38.0
48.75,410.9,334.4,352.2,365.8,40.1
49.5,403.2,314.9,328.5,348.9,47.6
50.25,387.7,299.6,306.1,331.1,49.1
51.0,380.5,275.6,280.4,312.2,59.2
51.75,362.9,257.2,265.5,295.2,58.8
52.5,347.9,237.7,238.9,274.8,63.3
53.25,328.7,216.9,225.2,257.0,62.3
54.0,318.1,201.7,209.3,243.0,65.1
54.75,304.4,184.6,187.7,225.6,68.3
55.5,292.1,168.5,170.0,210.2,70.9
56.25,278.5,156.2,153.7,196.1,71.3
57.0,272.5,142.9,142.8,186.1,74.9
57.75,260.5,135.0,132.7,176.1,73.1
58.5,249.5,124.6,122.4,165.5,72.7
59.25,242.3,117.5,112.9,157.6,73.4
60.0,235.7,108.6,104.9,149.7,74.5
60.75,222.4,101.9,99.7,141.3,70.2
61.5,210.3,96.5,92.6,133.1,66.9
62.25,202.6,89.7,89.1,127.2,65.4
63.0,192.7,85.3,83.0,120.3,62.7
63.75,185.2,81.3,77.8,114.8,61.0
64.5,176.7,79.1,78.2,111.3,56.6
65.25,170.1,75.7,74.9,106.9,54.8
66.0,167.1,75.7,71.9,104.9,53.9
66.75,160.2,71.0,68.6,99.9,52.2
67.5,157.4,68.5,68.5,98.1,51.3
68.25,152.0,67.5,65.4,95.0,49.4
69.0,145.2,65.9,64.8,92.0,46.1
69.75,141.4,64.3,63.5,89.8,44.7
70.5,139.4,62.4,63.0,88.3,44.3
71.25,137.9,62.5,63.7,88.0,43.2
72.0,135.8,60.5,62.5,86.3,42.9
72.75,133.7,59.3,61.5,84.8,42.3
73.5,129.3,58.3,62.3,83.3,39.9
74.25,127.1,58.2,61.9,82.4,38.7
75.0,122.8,56.8,61.5,80.4,36.8
75.75,119.3,56.8,62.4,79.5,34.5
76.5,113.2,56.3,60.9,76.8,31.6
77.25,112.0,56.2,61.1,76.5,30.9
78.0,108.0,56.2,60.1,74.8,28.9
78.75,107.7,55.8,59.8,74.4,28.9
79.5,102.9,56.2,60.8,73.3,25.8
80.25,100.0,56.2,60.2,72.1,24.2
81.0,98.7,55.4,59.3,71.1,24.0
81.75,94.5,55.4,58.8,69.6,21.7
82.5,90.8,55.8,57.4,68.0,19.7
83.25,87.9,56.2,57.7,67.3,17.9
84.0,85.7,55.8,56.6,66.0,17.0
84.75,84.1,56.1,56.5,65.6,16.1
85.5,82.4,54.9,55.8,64.3,15.6
86.25,80.9,53.7,56.0,63.5,15.1
87.0,78.8,54.8,55.9,63.1,13.5
87.75,78.3,55.2,55.3,62.9,13.3
88.5,77.1,53.6,55.2,62.0,13.1
89.25,75.5,54.0,53.5,61.0,12.6
90.0,74.0,54.3,54.9,61.1,11.2
90.75,72.9,54.0,54.0,60.3,10.9
91.5,71.8,53.1,53.8,59.6,10.6
92.25,71.3,53.6,54.1,59.6,10.1
93.0,69.9,52.5,53.4,58.6,9.8
93.75,69.1,51.5,53.2,58.0,9.7
94.5,68.3,52.3,52.8,57.8,9.1
95.25,68.4,52.3,52.4,57.7,9.3
96.0,67.0,52.1,52.3,57.1,8.5
96.75,65.6,52.5,51.5,56.5,7.9
97.5,65.2,51.9,51.4,56.2,7.8
98.25,65.9,52.2,51.0,56.4,8.3
99.0,65.3,52.1,51.0,56.1,8.0
99.75,64.5,51.8,50.9,55.7,7.6
100.5,64.0,51.6,50.2,55.3,7.6
101.25,64.1,52.2,50.0,55.5,7.6
102.0,63.5,51.1,50.3,55.0,7.4
102.75,62.3,52.3,50.5,55.0,6.3
103.5,62.1,50.9,51.3,54.8,6.3
104.25,62.0,51.8,50.0,54.6,6.5
105.0,61.6,50.6,51.6,54.6,6.0
105.75,61.8,50.1,51.4,54.4,6.4
106.5,61.3,50.0,51.1,54.1,6.2
107.25,61.2,50.0,51.6,54.3,6.0
108.0,60.9,50.3,52.0,54.4,5.7
108.75,60.5,49.9,51.1,53.8,5.8
109.5,60.8,49.9,51.3,54.0,5.9
110.25,59.6,49.5,52.1,53.7,5.3
111.0,60.0,49.5,52.6,54.0,5.4
111.75,59.9,49.1,52.5,53.8,5.5
112.5,60.4,49.9,52.0,54.1,5.6
113.25,59.1,49.5,52.2,53.6,4.9
114.0,58.9,49.8,52.4,53.7,4.7
114.75,58.8,49.9,52.2,53.6,4.6
115.5,58.9,49.6,52.9,53.8,4.7
116.25,59.0,49.4,52.8,53.7,4.9
117.0,59.2,49.6,52.5,53.8,4.9
117.75,59.0,49.8,51.7,53.5,4.8
118.5,58.4,50.4,52.3,53.7,4.2
119.25,58.6,48.8,51.9,53.1,5.0
120.0,58.8,49.2,51.7,53.2,5.0
120.75,57.4,50.1,51.8,53.1,3.8
121.5,58.2,49.1,50.6,52.6,4.9
122.25,58.5,48.5,51.3,52.8,5.1
123.0,56.7,49.1,51.4,52.4,3.9
123.75,57.6,48.2,51.6,52.5,4.8
124.5,56.2,48.5,51.2,52.0,3.9
125.25,55.6,48.3,50.8,51.6,3.7
126.0,56.0,48.1,51.2,51.7,4.0
126.75,55.5,48.3,50.8,51.5,3.7
127.5,55.6,48.2,50.8,51.5,3.8
128.25,56.1,49.2,51.1,52.1,3.6
129.0,55.3,48.1,50.1,51.2,3.7
129.75,54.8,47.8,50.4,51.0,3.5
130.5,54.4,47.9,49.9,50.7,3.3
131.25,53.7,47.7,49.8,50.4,3.1
132.0,53.0,47.3,50.2,50.2,2.9
132.75,53.4,46.6,49.7,49.9,3.4
133.5,52.7,47.4,49.4,49.9,2.7
134.25,52.5,47.1,49.6,49.7,2.7
135.0,51.8,47.1,49.7,49.5,2.4
135.75,50.7,46.9,50.1,49.2,2.1
136.5,51.5,46.7,49.4,49.2,2.4
137.25,50.6,47.0,48.9,48.8,1.8
138.0,50.8,47.0,48.8,48.8,1.9
138.75,50.2,46.8,48.6,48.5,1.7
139.5,49.5,46.5,48.8,48.3,1.6
140.25,49.4,46.4,49.0,48.3,1.6
141.0,48.6,46.6,49.0,48.1,1.3
141.75,48.4,46.5,48.7,47.9,1.2
142.5,48.4,45.5,48.5,47.5,1.7
143.25,48.6,45.7,49.2,47.8,1.9
144.0,48.7,45.5,48.8,47.7,1.9
144.75,48.5,45.2,48.2,47.3,1.8
145.5,48.0,44.8,48.8,47.2,2.1
146.25,47.4,45.0,48.4,46.9,1.8
147.0,46.7,44.9,48.1,46.5,1.6
147.75,46.2,45.2,48.1,46.5,1.5
148.5,45.6,44.9,48.6,46.4,1.9
149.25,45.1,44.4,47.1,45.5,1.4
150.0,44.9,44.0,47.7,45.5,2.0
150.75,43.9,43.7,47.6,45.1,2.2
151.5,43.9,44.3,46.6,44.9,1.4
152.25,42.9,43.4,46.0,44.1,1.7
153.0,41.9,43.7,46.6,44.1,2.4
153.75,41.9,43.9,46.6,44.1,2.4
154.5,41.0,43.1,46.5,43.5,2.8
155.25,41.2,44.0,46.3,43.8,2.6
156.0,41.1,43.4,47.2,43.9,3.1
156.75,40.1,43.9,45.9,43.3,2.9
157.5,39.4,43.7,45.3,42.8,3.1
158.25,39.2,42.9,45.4,42.5,3.1
159.0,38.2,42.9,45.5,42.2,3.7
159.75,37.9,42.0,46.0,41.9,4.0
160.5,37.2,41.8,46.2,41.7,4.5
161.25,37.3,41.7,45.9,41.6,4.3
162.0,36.7,41.4,44.9,41.0,4.1
162.75,36.9,40.9,44.6,40.8,3.9
163.5,36.7,40.6,44.7,40.7,4.0
164.25,36.5,40.3,44.5,40.4,4.0
165.0,36.2,39.7,45.1,40.3,4.5
165.75,35.5,39.3,44.3,39.7,4.4
166.5,35.7,39.1,43.6,39.5,4.0
167.25,35.0,38.8,44.2,39.3,4.6
168.0,35.3,38.8,43.6,39.2,4.2
168.75,35.4,38.7,43.8,39.3,4.3
169.5,34.4,38.3,43.8,38.8,4.7
170.25,34.9,38.4,43.6,39.0,4.4
171.0,34.3,38.1,43.0,38.4,4.4
171.75,34.3,37.3,43.3,38.3,4.6
172.5,33.8,38.1,42.6,38.2,4.4
173.25,34.5,37.5,43.0,38.3,4.3
174.0,34.4,37.9,42.5,38.3,4.1
174.75,34.1,37.5,42.4,38.0,4.2
175.5,33.3,37.1,42.6,37.7,4.7
176.25,32.6,37.4,41.9,37.3,4.6
177.0,32.1,37.3,42.1,37.2,5.0
177.75,32.5,37.3,42.9,37.6,5.2
178.5,32.2,36.6,41.9,36.9,4.8
179.25,32.1,,41.6,36.8,6.7
180.0,31.6,,42.0,36.8,7.4
180.75,31.5,,41.0,36.3,6.7
181.5,30.9,,40.8,35.8,7.0
182.25,30.7,,40.1,35.4,6.7
183.0,30.3,,40.1,35.2,7.0
183.75,30.1,,39.4,34.8,6.5
184.5,30.2,,40.2,35.2,7.1
185.25,30.0,,39.0,34.5,6.4
186.0,29.6,,39.0,34.3,6.6
186.75,29.4,,38.3,33.8,6.3
187.5,29.0,,38.9,33.9,7.0
188.25,29.0,,38.5,33.7,6.7
189.0,28.6,,39.2,33.9,7.5
189.75,28.6,,38.1,33.3,6.7
190.5,28.5,,38.4,33.4,7.0
191.25,28.4,,37.5,33.0,6.4
192.0,28.6,,38.2,33.4,6.8
192.75,28.1,,37.2,32.7,6.4

File: Cotton_Rug_HRRPUA_75.csv
Time after Ignition,Cotton_Rug_R1,Cotton_Rug_R2,Cotton_Rug_R3,Mean,Std. Dev.
0.0,63.1,54.1,24.4,47.2,20.2
0.75,88.1,83.3,38.9,70.1,27.1
1.5,111.3,114.8,67.8,98.0,26.2
2.25,137.1,147.2,94.9,126.4,27.7
3.0,167.1,177.5,131.2,158.6,24.3
3.75,184.1,210.5,169.6,188.1,20.7
4.5,212.8,226.1,207.6,215.5,9.5
5.25,247.3,254.2,233.9,245.1,10.3
6.0,279.1,281.0,263.0,274.3,9.9
6.75,296.3,305.8,296.8,299.6,5.4
7.5,329.5,335.3,324.9,329.9,5.2
8.25,343.5,346.4,349.9,346.6,3.2
9.0,370.7,374.2,364.2,369.7,5.1
9.75,391.8,394.9,386.3,391.0,4.3
10.5,399.4,405.2,400.9,401.8,3.0
11.25,418.5,438.1,414.0,423.6,12.8
12.0,429.1,466.4,422.7,439.4,23.6
12.75,445.4,479.8,439.9,455.0,21.6
13.5,472.8,501.3,445.9,473.3,27.7
14.25,495.8,538.5,458.2,497.5,40.2
15.0,495.3,546.5,475.0,505.6,36.9
15.75,520.8,577.4,490.0,529.4,44.3
16.5,518.9,622.5,501.8,547.7,65.3
17.25,570.0,614.1,529.5,571.2,42.3
18.0,576.5,651.5,551.8,593.3,51.9
18.75,607.9,692.7,591.6,630.8,54.3
19.5,625.4,679.0,605.8,636.7,37.9
20.25,641.5,715.2,607.7,654.8,55.0
21.0,670.7,713.6,628.7,671.0,42.5
21.75,655.5,753.0,645.0,684.5,59.6
22.5,639.6,725.4,662.5,675.8,44.4
23.25,636.4,769.8,674.9,693.7,68.7
24.0,654.2,774.2,693.5,707.3,61.2
24.75,665.2,777.4,705.9,716.2,56.8
25.5,653.9,779.7,711.6,715.0,63.0
26.25,654.9,761.4,726.0,714.1,54.2
27.0,640.0,757.4,730.4,709.2,61.5
27.75,640.6,754.4,726.8,707.3,59.4
28.5,627.1,747.5,719.6,698.0,63.0
29.25,628.0,764.9,725.4,706.1,70.4
30.0,632.3,739.7,732.2,701.4,60.0
30.75,606.1,761.7,735.0,700.9,83.2
31.5,625.5,719.3,728.2,691.0,56.9
32.25,573.5,709.8,734.8,672.7,86.8
33.0,579.5,702.8,727.9,670.0,79.4
33.75,544.6,686.2,709.1,646.6,89.1
34.5,544.9,647.9,716.2,636.3,86.2
35.25,519.4,619.8,710.9,616.7,95.8
36.0,494.4,597.8,689.1,593.8,97.4
36.75,475.2,569.3,678.1,574.2,101.5
37.5,453.3,544.8,639.6,545.9,93.2
38.25,426.4,512.1,581.3,506.6,77.6
39.0,394.8,495.3,567.4,485.8,86.7
39.75,348.7,464.9,535.8,449.8,94.4
40.5,308.5,436.8,502.8,416.0,98.8
41.25,274.9,398.0,469.6,380.8,98.5
42.0,246.8,363.3,430.8,347.0,93.1
42.75,215.7,334.9,390.2,313.6,89.2
43.5,200.0,305.6,347.9,284.5,76.2
44.25,177.5,283.4,321.6,260.8,74.7
45.0,162.9,262.1,290.7,238.6,67.1
45.75,147.2,246.6,268.9,220.9,64.8
46.5,134.6,230.4,247.5,204.2,60.8
47.25,122.2,222.8,230.2,191.7,60.3
48.0,111.0,209.4,211.1,177.1,57.3
48.75,103.3,198.0,198.2,166.5,54.7
49.5,94.0,186.8,184.1,155.0,52.8
50.25,87.7,178.7,174.6,147.0,51.4
51.0,81.8,170.0,163.1,138.3,49.0
51.75,77.8,165.6,154.0,132.4,47.7
52.5,72.9,158.3,148.0,126.4,46.6
53.25,69.6,155.7,141.4,122.2,46.1
54.0,66.2,148.9,136.7,117.3,44.6
54.75,63.0,146.7,132.7,114.1,44.8
55.5,61.0,140.0,130.7,110.6,43.2
56.25,60.3,134.8,128.5,107.9,41.3
57.0,56.9,131.6,125.5,104.7,41.5
57.75,55.8,126.2,122.4,101.5,39.6
58.5,54.4,121.1,121.7,99.0,38.7
59.25,54.5,118.3,120.4,97.7,37.4
60.0,53.4,115.1,116.8,95.1,36.1
60.75,52.4,114.6,117.0,94.7,36.6
61.5,51.5,109.7,113.4,91.5,34.7
62.25,50.3,105.8,113.0,89.7,34.3
63.0,50.4,104.1,110.0,88.2,32.8
63.75,48.8,102.7,109.3,87.0,33.2
64.5,49.2,101.5,106.1,85.6,31.6
65.25,49.0,99.3,104.1,84.1,30.6
66.0,49.0,99.0,102.3,83.4,29.9
66.75,48.4,97.7,99.9,82.0,29.1
67.5,47.2,95.5,97.4,80.0,28.4
68.25,47.7,93.5,97.0,79.4,27.5
69.0,47.4,92.0,94.2,77.8,26.4
69.75,47.3,89.3,90.8,75.8,24.7
70.5,46.1,88.3,88.8,74.4,24.5
71.25,46.2,87.0,86.0,73.1,23.3
72.0,46.1,84.9,82.5,71.2,21.7
72.75,45.2,85.8,81.3,70.7,22.2
73.5,45.2,83.0,78.1,68.8,20.5
74.25,44.7,81.1,75.2,67.0,19.6
75.0,44.5,81.1,73.9,66.5,19.4
75.75,43.8,80.3,72.0,65.4,19.1
76.5,43.0,79.2,70.2,64.1,18.9
77.25,43.1,77.6,68.4,63.1,17.9
78.0,43.4,76.3,66.8,62.2,16.9
78.75,42.9,75.9,65.2,61.3,16.9
79.5,42.8,74.4,63.3,60.2,16.0
80.25,42.6,72.9,62.7,59.4,15.4
81.0,42.7,72.4,61.9,59.0,15.1
81.75,42.3,72.0,60.2,58.2,15.0
82.5,42.2,71.5,59.3,57.7,14.7
83.25,42.8,69.8,58.5,57.0,13.6
84.0,42.7,70.9,58.9,57.5,14.2
84.75,42.6,69.9,57.4,56.6,13.7
85.5,42.4,68.7,56.8,56.0,13.2
86.25,42.4,67.4,57.1,55.6,12.5
87.0,41.9,67.5,56.5,55.3,12.8
87.75,42.0,67.4,55.6,55.0,12.7
88.5,41.4,66.1,54.6,54.0,12.3
89.25,40.8,67.2,55.3,54.4,13.3
90.0,40.3,66.5,55.8,54.2,13.2
90.75,40.3,65.6,54.2,53.4,12.7
91.5,40.2,65.7,53.1,53.0,12.7
92.25,40.1,65.5,53.0,52.9,12.7
93.0,40.0,65.2,52.3,52.5,12.6
93.75,39.4,65.3,51.3,52.0,12.9
94.5,39.8,65.1,51.4,52.1,12.7
95.25,39.3,65.4,51.0,51.9,13.1
96.0,38.9,65.4,50.9,51.7,13.3
96.75,39.1,64.5,50.4,51.3,12.7
97.5,38.6,62.6,50.6,50.6,12.0
98.25,39.6,63.4,49.4,50.8,12.0
99.0,39.0,61.8,49.5,50.1,11.5
99.75,39.1,62.2,49.2,50.1,11.6
100.5,39.0,61.8,49.2,50.0,11.4
101.25,38.6,60.9,49.5,49.7,11.1
102.0,38.6,60.7,49.2,49.5,11.1
102.75,38.5,59.7,48.4,48.9,10.6
103.5,38.6,59.3,49.2,49.0,10.3
104.25,37.9,58.7,48.6,48.4,10.4
105.0,38.0,59.0,47.9,48.3,10.5
105.75,37.7,58.4,48.2,48.1,10.4
106.5,36.9,57.7,47.7,47.4,10.4
107.25,36.6,57.3,48.1,47.4,10.4
108.0,36.5,56.6,47.6,46.9,10.1
108.75,36.6,56.5,46.9,46.7,10.0
109.5,37.0,56.0,48.2,47.1,9.6
110.25,36.4,55.5,48.7,46.9,9.7
111.0,35.9,55.9,47.9,46.6,10.0
111.75,35.9,55.6,48.6,46.7,10.0
112.5,35.4,55.2,48.5,46.3,10.1
113.25,35.3,55.5,48.8,46.5,10.3
114.0,35.3,55.7,49.3,46.8,10.4
114.75,34.9,56.3,49.1,46.7,10.9
115.5,35.0,56.4,48.5,46.6,10.9
116.25,34.9,56.8,47.8,46.5,11.0
117.0,34.4,56.2,47.7,46.1,11.0
117.75,34.4,55.7,47.5,45.9,10.8
118.5,34.1,54.9,47.7,45.6,10.6
119.25,34.0,55.1,46.5,45.2,10.6
120.0,33.8,54.8,46.7,45.1,10.6
120.75,33.8,54.2,46.9,45.0,10.3
121.5,33.5,54.3,45.0,44.3,10.4
122.25,33.8,52.7,44.4,43.6,9.5
123.0,33.7,53.1,44.2,43.7,9.7
123.75,33.9,53.1,43.9,43.6,9.6
124.5,33.4,,43.7,38.5,7.3
125.25,33.5,,43.4,38.4,7.0
126.0,33.0,,42.8,37.9,7.0
126.75,32.7,,42.9,37.8,7.2
127.5,32.7,,42.9,37.8,7.2
128.25,32.8,,42.5,37.6,6.8
129.0,32.8,,42.0,37.4,6.5
129.75,32.6,,41.3,36.9,6.1
130.5,32.5,,40.8,36.7,5.8
131.25,32.7,,41.0,36.8,5.9
132.0,32.3,,40.2,36.3,5.6
132.75,32.7,,40.3,36.5,5.4
133.5,32.1,,40.4,36.2,5.9
134.25,31.2,,39.6,35.4,5.9
135.0,31.4,,38.7,35.1,5.2
135.75,31.3,,38.5,34.9,5.1
136.5,31.1,,38.7,34.9,5.4
137.25,30.8,,37.4,34.1,4.6
138.0,30.7,,37.7,34.2,5.0
138.75,30.4,,37.8,34.1,5.2
139.5,30.2,,38.0,34.1,5.5
140.25,29.7,,37.5,33.6,5.5
141.0,29.6,,37.3,33.4,5.5
141.75,30.0,,36.9,33.4,4.9
142.5,30.2,,37.1,33.6,4.9
143.25,30.0,,37.4,33.7,5.2
144.0,29.9,,37.7,33.8,5.5
144.75,30.2,,36.8,33.5,4.7
145.5,30.6,,,30.6,
146.25,30.4,,,30.4,
147.0,29.5,,,29.5,
147.75,29.9,,,29.9,
148.5,29.6,,,29.6,
149.25,28.9,,,28.9,
150.0,29.3,,,29.3,
150.75,28.8,,,28.8,
151.5,28.0,,,28.0,
152.25,27.8,,,27.8,
153.0,27.7,,,27.7,
153.75,27.4,,,27.4,
154.5,26.6,,,26.6,
155.25,26.4,,,26.4,
156.0,26.3,,,26.3,
156.75,25.7,,,25.7,
157.5,25.0,,,25.0,
158.25,25.0,,,25.0,
159.0,25.1,,,25.1,
159.75,25.1,,,25.1,
160.5,24.9,,,24.9,
161.25,24.4,,,24.4,
162.0,24.1,,,24.1,
162.75,24.1,,,24.1,
163.5,23.8,,,23.8,
164.25,24.1,,,24.1,
165.0,23.7,,,23.7,
165.75,23.7,,,23.7,
166.5,23.4,,,23.4,
167.25,22.7,,,22.7,
168.0,23.4,,,23.4,
168.75,22.6,,,22.6,
169.5,22.7,,,22.7,
170.25,22.8,,,22.8,
171.0,22.4,,,22.4,
171.75,22.3,,,22.3,
172.5,22.2,,,22.2,
173.25,22.1,,,22.1,
174.0,21.4,,,21.4,
174.75,21.6,,,21.6,
175.5,21.9,,,21.9,
176.25,21.1,,,21.1,
177.0,20.8,,,20.8,
177.75,20.7,,,20.7,
178.5,20.5,,,20.5,
179.25,20.5,,,20.5,
180.0,20.2,,,20.2,
180.75,20.1,,,20.1,
181.5,20.4,,,20.4,
182.25,20.2,,,20.2,
183.0,20.5,,,20.5,
183.75,20.1,,,20.1,
184.5,20.4,,,20.4,
185.25,20.1,,,20.1,
185.5,20.3,,,20.3,