Folder: fsri_materials_database/01_Data/Straw/Cone (part 2)

File: Straw_Cone_HF35Scan_181019_R3.csv
Names,Time,Stack TC,Smoke TC,Exh Press,Smoke Comp,Smoke Meas,CO Meter,CO2 Meter,O2 Meter,Sample Mass,Ext Coeff,Start Test,Flame Verif
Chan Gain,,500,500,1,1,1,1,1,1,1,1,1,1
Offset,,0,0,0.126212,0,0,0,0,0,0,0,0,0
Gain,,1,1,25.011,13.7876,15.8843,1,1,1,1.00085,1.0195,1,1
Units,sec,C,C,Pa,%,%,%,%,%,g,/m,,
Baseline,,34.8727,36.4864,169.99,98.3913,100.301,0.003446453,0.0637158,20.9119,-0.141704,-0.171884,,
10,2.25,33.48,34.4419,169.935,97.9599,100.027,0.003682604,0.0706729,20.9008,930.901,-0.186741,0,0
20,4.75,34.3162,34.8885,166.612,98.0171,100.255,0.003718152,0.0708558,20.901,930.711,-0.201865,0,0
30,7.25,34.1152,35.6046,167.317,98.0895,99.2291,0.004061713,0.0710841,20.8996,930.601,-0.103295,0,0
40,9.75,34.5296,35.709,173.532,98.1509,98.1781,0.00491681,0.0704772,20.9005,930.471,-0.002475787,0,0
50,12.25,34.3124,36.5868,166.431,98.2242,95.6754,0.006266182,0.0707382,20.9012,930.411,0.235124,0,0
60,14.75,34.7855,36.4236,165.521,98.3138,94.5216,0.007813218,0.0723031,20.9017,930.301,0.351775,0,0
70,17.25,34.521,36.9521,173.004,98.4253,93.7824,0.009175027,0.0786783,20.8991,930.211,0.432128,0,0
80,19.75,35.3159,37.9391,155.779,98.5212,101.965,0.008700039,0.131363,20.8163,930.291,-0.307216,0,1
90,22.25,37.7065,41.5298,155.175,98.642,100.992,0.007570163,0.204865,20.7401,929.43,-0.210523,0,1
100,24.75,39.7918,44.1194,159.685,98.7467,100.884,0.006913205,0.241801,20.7108,929.53,-0.191452,0,0
110,27.25,41.0496,45.6359,160.346,98.8439,100.975,0.006746259,0.253105,20.7022,929.27,-0.190728,0,0
120,29.75,41.224,47.6008,159.674,98.9285,101.226,0.006637999,0.259217,20.6982,928.97,-0.205334,0,0
130,32.25,42.5085,48.7242,156.356,99.0181,101.44,0.006579806,0.268429,20.6897,928.75,-0.216059,0,0
140,34.75,43.5612,49.703,161.983,99.1048,102.238,0.006627291,0.27273,20.6866,928.519,-0.278388,0,0
150,37.25,43.6815,50.9404,162.878,99.181,101.334,0.006320439,0.27365,20.6863,928.299,-0.192087,0,0
160,39.75,44.4742,51.7188,156.449,99.2681,101.096,0.006089225,0.274111,20.6853,928.089,-0.163207,0,0
170,42.25,45.0775,51.894,160.829,99.3245,101.397,0.006379392,0.269818,20.6894,927.839,-0.184718,0,0
180,44.75,45.0017,52.2805,158.686,99.3745,103.16,0.007056304,0.264356,20.696,927.609,-0.334328,0,0
190,47.25,45.6491,52.3612,160.216,99.4124,102.868,0.0075534,0.259359,20.7006,927.408,-0.305587,0,0
200,49.75,45.6242,52.5605,158.797,99.4566,102.793,0.007517149,0.253486,20.708,927.208,-0.295121,0,0
210,52.25,45.6055,52.9057,162.155,99.5067,102.134,0.007441679,0.248193,20.7132,926.988,-0.233037,0,0
220,54.75,45.9307,52.6742,160.089,99.5521,101.877,0.007510285,0.244232,20.7178,926.848,-0.206472,0,0
230,57.25,45.7308,53.0287,166.728,99.5832,104.181,0.007515758,0.242477,20.7205,926.538,-0.403673,0,0
240,59.75,46.0162,52.884,157.321,99.6228,102.763,0.007421426,0.240186,20.724,926.378,-0.277532,0,0
250,62.25,45.8613,52.8548,160.238,99.6548,104.063,0.00745456,0.237099,20.7271,926.157,-0.387135,0,0
260,64.75,46.0462,52.9724,157.544,99.6796,102.759,0.007648218,0.234663,20.7294,926.017,-0.272054,0,0
270,67.25,45.9748,52.8458,164.114,99.704,102.968,0.007784824,0.231218,20.7354,925.877,-0.288114,0,0
280,69.75,46.1501,52.4429,161.764,99.7221,101.888,0.007860216,0.227459,20.7394,925.647,-0.192193,0,0
290,72.25,46.0152,52.5117,164.433,99.7389,102.949,0.008035378,0.223655,20.7434,925.457,-0.283255,0,0
300,74.75,46.0988,52.1559,163.092,99.7553,103.646,0.008362477,0.220242,20.747,925.287,-0.342174,0,0
310,77.25,46.1016,52.115,161.989,99.7625,102.852,0.008626532,0.218378,20.7489,925.086,-0.272716,0,0
320,79.75,45.8281,52.0822,161.339,99.7696,101.925,0.008932595,0.215208,20.7519,925.016,-0.191164,0,0
330,82.25,45.711,51.6694,160.496,99.7764,103.112,0.009101897,0.211208,20.7557,924.876,-0.294078,0,0
340,84.75,45.7041,51.0756,161.081,99.7776,101.794,0.009112595,0.206938,20.7603,924.726,-0.178955,0,0
350,87.25,45.5708,51.0258,166.543,99.7839,102.776,0.009313907,0.202974,20.7655,924.616,-0.264216,0,0
360,89.75,45.5442,50.8292,164.881,99.7705,102.343,0.009535707,0.201233,20.7679,924.446,-0.227676,0,0
370,92.25,45.4871,50.429,162.467,99.7692,102.608,0.009464768,0.198627,20.77,924.316,-0.250886,0,0
380,94.75,45.5934,50.1115,166.494,99.7549,102.307,0.009337662,0.19609,20.7716,924.186,-0.225894,0,0
390,97.25,45.2282,50.0403,163.933,99.7499,101.478,0.009401358,0.193113,20.7752,924.056,-0.153635,0,0
400,99.75,45.0519,49.7833,159.513,99.7355,102.131,0.009562206,0.188885,20.7797,923.936,-0.212234,0,0
410,102.25,44.8132,49.6677,169.443,99.7431,102.411,0.009808365,0.184461,20.7841,923.835,-0.236098,0,0
420,104.75,44.8014,48.988,166.15,99.736,101.468,0.0102838,0.17731,20.7913,923.695,-0.15394,0,0
430,107.25,44.7622,48.5823,161.77,99.7276,101.659,0.0108683,0.16909,20.7973,923.575,-0.171512,0,0
440,109.75,44.2302,48.105,162.943,99.7166,101.711,0.0114773,0.161957,20.8018,923.445,-0.177098,0,0
450,112.25,44.1577,47.5375,158.71,99.7015,101.826,0.01235339,0.154968,20.8105,923.385,-0.188595,0,0
460,114.75,43.2404,46.7605,166.99,99.6926,101.48,0.01357,0.144365,20.8232,923.325,-0.158896,0,0
470,117.25,43.1593,46.1943,167.524,99.6779,101.11,0.0146233,0.133095,20.8354,923.255,-0.1276052,0,0
480,119.75,42.4139,45.348,169.786,99.6724,102.188,0.014959,0.12389,20.8439,923.215,-0.222945,0,0
490,122.25,42.2189,44.828,169.296,99.6754,101.634,0.0148048,0.118717,20.8482,923.195,-0.174018,0,0
500,124.75,41.4564,44.1005,165.01,99.6531,102.453,0.01449977,0.115769,20.8516,923.095,-0.247815,0,0
510,127.25,41.2373,43.5667,173.38,99.6341,102.035,0.0140645,0.113852,20.8529,923.045,-0.212924,0,0
520,129.75,40.9307,43.0514,169.04,99.6139,101.319,0.0136092,0.113141,20.852,922.985,-0.151806,0,0
530,132.25,40.5317,43.2568,173.879,99.5862,101.341,0.0127644,0.111867,20.852,923.035,-0.156224,0,0
540,134.75,40.2903,42.7565,174.792,99.5597,101.212,0.0110224,0.104337,20.8626,890.577,-0.147176,0,0
550,137.25,39.6343,40.9721,170.913,99.5285,101.92,0.009392232,0.0942375,20.8735,-0.120102,-0.212333,0,0
560,139.75,38.8302,40.3056,170.024,99.5037,101.612,0.007997968,0.0902441,20.8812,-1.40119,-0.187513,0,0
570,142.25,38.306,39.4337,173.215,99.4688,102.485,0.006463374,0.082462,20.8922,-0.180153,-0.267119,0,0
580,144.75,38.5213,39.0068,165.326,99.4473,101.858,0.005215487,0.0754333,20.9,-0.20017,-0.214186,0,0
590,147.25,38.2976,39.2032,167.142,99.4065,102.343,0.004569384,0.0709406,20.905,-0.190162,-0.260317,0,0
600,149.75,38.18013,39.1512,167.335,99.4048,101.27,0.004201163,0.0681026,20.9068,-0.170145,-0.166234,0,0
610,152.25,38.2548,39.1361,165.839,99.3825,100.783,0.003895436,0.06638363,20.9085,-0.180153,-0.125115,0,0
620,154.75,38.0469,38.8142,168.04,99.3707,101.946,0.003735707,0.0652849,20.9104,-0.180153,-0.228819,0,0
630,157.25,38.061,38.5193,167.818,99.4494,102.047,0.003704619,0.0646842,20.9095,-0.210179,-0.23058,0,0
640,159.75,37.7842,38.8241,167.034,99.5353,101.195,0.003748269,0.0640942,20.9094,-0.20017,-0.147912,0,0
650,162.25,37.6524,38.3362,173.801,99.6114,101.427,0.003798261,0.0637671,20.9083,-0.180153,-0.161569,0,0
660,164.75,37.5805,38.0816,170.875,99.6846,102.042,0.00383939,0.0636271,20.908,-0.180153,-0.208987,0,0
670,167.25,37.3382,38.0175,165.087,99.7507,100.988,0.003826304,0.0635213,20.9093,-0.170145,-0.110266,0,0
680,169.75,37.5768,37.9881,162.746,99.8003,102.464,0.003792628,0.0634727,20.9096,-0.180153,-0.235582,0,0
690,172.25,36.9026,37.9219,169.694,99.8656,101.925,0.003776478,0.0633156,20.9084,-0.190162,-0.182526,0,0
700,174.75,37.3276,37.7755,169.427,99.9156,101.743,0.003743256,0.0632028,20.9088,-0.190162,-0.16208,0,0
710,177.25,36.9276,38.2925,173.414,99.9497,101.963,0.003612212,0.063133,20.9092,-0.190162,-0.178353,0,0
720,179.75,36.9087,37.7437,171.149,99.9674,101.965,0.003587971,0.0632166,20.9103,-0.160136,-0.176899,0,0
730,182.25,36.6905,37.8029,171.145,100.003,101.695,0.003641758,0.0631888,20.9112,-0.160136,-0.150073,0,0
740,184.75,37.0806,37.7281,169.572,100.028,101.789,0.003558134,0.0631885,20.9115,-0.170145,-0.156034,0,0
750,187.25,37.1288,37.8159,165.99,100.059,102.403,0.003492892,0.0631423,20.9116,-0.170145,-0.207087,0,0
760,189.75,36.4486,38.0637,173.743,100.078,102.277,0.003620215,0.0630662,20.9117,-0.160136,-0.194349,0,0
770,192.25,36.6609,37.5051,167.762,100.102,101.96,0.003720794,0.0631229,20.9117,-0.20017,-0.164479,0,0
780,194.75,36.4175,37.987,166.409,100.11,102.835,0.003603085,0.0629947,20.9117,-0.190162,-0.24014,0,0
790,197.25,36.5095,37.6509,166.527,100.124,101.45,0.003698144,0.0629203,20.9117,-0.190162,-0.117647,0,0
800,199.75,36.7536,37.4912,167.093,100.14,102.263,0.003737859,0.0630323,20.9117,-0.230196,-0.187594,0,0
810,202.25,36.3581,37.7098,165.246,100.131,102.41,0.00353052,0.062991,20.912,-0.190162,-0.201176,0,0
820,204.75,36.2561,37.3383,167.947,100.133,102.15,0.003391385,0.0631261,20.9111,-0.190162,-0.178387,0,0
830,207.25,36.0165,37.6489,162.261,100.115,102.231,0.003529244,0.063147,20.9108,-0.230196,-0.187013,0,0
840,209.75,36.5199,37.5516,171.854,100.113,101.772,0.003713842,0.0631745,20.9114,-0.210179,-0.146952,0,0
850,212.25,36.2459,37.4851,164.868,100.093,101.894,0.003800476,0.0632703,20.9124,-0.20017,-0.159522,0,0
860,214.75,36.378,37.454,166.09,100.08,100.866,0.003904022,0.0633645,20.9128,-0.260221,-0.06991066,0,0
870,217.25,36.3869,37.9625,170.877,100.053,101.471,0.003792841,0.06338349,20.9129,-0.180153,-0.125875,0,0
880,219.75,36.2448,37.8693,164.483,100.021,102.04,0.003665431,0.0634137,20.9129,-0.220187,-0.17875,0,0
890,222.25,36.4874,37.5908,174.578,99.9918,102.305,0.003657233,0.0632235,20.913,-0.190162,-0.204555,0,0
900,224.75,36.5262,37.6097,173.577,99.9396,102.202,0.003673844,0.0630936,20.9128,-0.20017,-0.20015,0,0
910,227.25,36.4379,37.9069,166.943,99.8744,102.159,0.00361527,0.063061,20.9121,-0.20017,-0.202297,0,0
920,229.75,36.6767,37.4281,167.232,99.8075,102.124,,0.0630296,,-0.250213,-0.205149,0,0
930,232.25,36.2444,37.3403,165.478,99.7242,101.748,,,,-0.280238,-0.179657,0,0
940,234.75,36.376,37.8832,164.538,99.6118,102.641,,,,-0.20017,-0.267919,0,0
950,237.25,36.4041,38.0879,167.129,99.5151,101.537,,,,-0.250213,-0.17992,0,0
955,238.5,35.9789,37.8353,168.521,99.4679,101.959,,,,-0.280238,-0.221181,0,0

File: Straw_HRRPUA_35.csv
Time after Ignition,Straw_R1,Straw_R2,Straw_R3,Mean,Std. Dev.
0.0,24.8,27.8,25.5,26.0,1.6
0.5,32.8,35.4,37.0,35.0,2.1
1.0,41.9,44.3,47.2,44.5,2.6
1.5,49.7,52.2,57.5,53.1,4.0
2.0,56.8,58.7,67.4,60.9,5.6
2.5,61.4,66.0,72.1,66.5,5.4
3.0,65.5,72.3,80.1,72.6,7.3
3.5,68.9,77.3,84.2,76.8,7.6
4.0,73.3,81.2,89.5,81.3,8.1
4.5,74.3,85.1,93.5,84.3,9.6
5.0,76.2,88.1,96.9,87.1,10.4
5.5,77.9,90.4,98.0,88.7,10.1
6.0,78.1,93.9,99.6,90.5,11.1
6.5,80.4,95.5,102.1,92.6,11.1
7.0,80.1,97.2,101.8,93.0,11.5
7.5,80.3,98.6,102.4,93.8,11.8
8.0,82.1,99.2,103.4,94.9,11.2
8.5,82.0,100.1,103.9,95.3,11.7
9.0,84.0,101.2,105.3,96.8,11.3
9.5,81.9,101.2,104.8,96.0,12.3
10.0,81.2,101.7,105.2,96.0,13.0
10.5,82.7,101.8,104.8,96.4,12.0
11.0,83.4,102.9,105.5,97.3,12.1
11.5,83.3,105.3,106.4,98.4,13.0
12.0,83.2,105.6,106.2,98.3,13.1
12.5,84.4,107.4,107.6,99.8,13.3
13.0,85.9,107.6,110.7,101.4,13.5
13.5,86.5,107.1,108.4,100.7,12.3
14.0,88.4,110.3,110.9,103.2,12.8
14.5,88.3,107.5,110.7,102.2,12.1
15.0,89.5,110.8,112.8,104.4,12.9
15.5,90.2,108.8,110.6,103.2,11.3
16.0,91.1,110.2,111.6,104.3,11.5
16.5,93.2,110.7,110.1,104.7,9.9
17.0,91.9,108.5,112.5,104.3,10.9
17.5,92.6,109.3,111.4,104.4,10.3
18.0,95.4,108.4,110.3,104.7,8.1
18.5,94.3,110.5,112.1,105.6,9.8
19.0,96.1,107.9,112.3,105.4,8.4
19.5,96.1,106.8,111.1,104.7,7.7
20.0,96.7,107.5,112.2,105.4,7.9
20.5,99.4,106.3,111.7,105.8,6.2
21.0,98.2,108.1,110.2,105.5,6.4
21.5,97.2,106.8,111.5,105.2,7.3
22.0,96.9,105.7,111.8,104.8,7.5
22.5,98.0,106.2,112.2,105.4,7.1
23.0,97.6,104.4,108.0,103.3,5.3
23.5,98.1,103.9,109.6,103.8,5.8
24.0,98.8,101.7,109.3,103.3,5.4
24.5,97.1,102.4,108.8,102.7,5.8
25.0,96.6,102.0,108.4,102.3,5.9
25.5,97.3,100.0,105.9,101.1,4.4
26.0,99.1,99.9,105.7,101.6,3.6
26.5,98.6,99.3,106.3,101.4,4.3
27.0,97.8,97.6,105.3,100.2,4.4
27.5,97.4,99.8,105.2,100.8,4.0
28.0,97.1,96.4,103.8,99.1,4.1
28.5,96.6,96.1,103.8,98.8,4.3
29.0,97.1,93.1,103.5,97.9,5.2
29.5,97.9,93.8,102.9,98.2,4.5
30.0,98.3,93.3,100.7,97.4,3.8
30.5,96.3,93.1,101.8,97.0,4.4
31.0,97.1,92.2,99.7,96.3,3.8
31.5,96.3,91.7,100.4,96.1,4.3
32.0,95.2,92.3,99.4,95.6,3.6
32.5,95.3,90.8,99.1,95.1,4.2
33.0,95.4,89.8,97.8,94.3,4.1
33.5,94.7,90.7,98.3,94.5,3.8
34.0,95.6,89.8,97.9,94.5,4.2
34.5,94.0,88.8,97.8,93.6,4.5
35.0,94.2,88.9,94.8,92.6,3.3
35.5,95.8,87.2,94.9,92.6,4.7
36.0,94.5,87.6,95.3,92.5,4.2
36.5,94.3,86.7,96.2,92.4,5.0
37.0,94.1,86.8,93.1,91.3,3.9
37.5,94.6,85.4,93.7,91.2,5.1
38.0,93.9,85.9,94.0,91.3,4.6
38.5,93.0,84.3,96.0,91.1,6.1
39.0,92.9,83.8,94.1,90.3,5.6
39.5,93.3,82.6,94.0,90.0,6.4
40.0,94.4,83.4,93.1,90.3,6.0
40.5,93.9,82.9,94.2,90.3,6.4
41.0,94.0,82.3,91.5,89.3,6.2
41.5,94.6,81.9,93.9,90.1,7.1
42.0,93.5,82.0,90.2,88.6,6.0
42.5,94.1,81.0,92.6,89.2,7.2
43.0,92.8,80.2,90.7,87.9,6.8
43.5,93.1,79.8,90.8,87.9,7.1
44.0,92.4,80.4,90.4,87.8,6.4
44.5,93.9,79.3,89.9,87.7,7.5
45.0,92.3,79.3,90.5,87.4,7.1
45.5,91.0,78.0,90.6,86.5,7.4
46.0,93.1,79.0,88.9,87.0,7.2
46.5,92.0,78.4,89.7,86.7,7.2
47.0,92.7,78.5,87.7,86.3,7.2
47.5,91.6,77.9,87.9,85.8,7.1
48.0,92.0,77.6,88.8,86.1,7.6
48.5,91.8,76.4,87.8,85.4,8.0
49.0,89.2,75.4,87.4,84.0,7.5
49.5,90.4,75.3,85.7,83.8,7.7
50.0,91.3,75.9,86.5,84.6,7.9
50.5,89.4,74.3,86.6,83.4,8.0
51.0,89.8,72.4,85.2,82.5,9.0
51.5,89.3,72.0,85.0,82.1,9.0
52.0,89.3,72.0,83.9,81.7,8.9
52.5,90.0,71.4,83.5,81.7,9.4
53.0,90.7,71.8,83.4,82.0,9.5
53.5,88.5,71.9,83.9,81.4,8.6
54.0,89.9,69.9,82.9,80.9,10.1
54.5,90.4,70.2,83.7,81.4,10.3
55.0,91.3,68.4,83.1,80.9,11.6
55.5,93.6,68.5,83.5,81.9,12.6
56.0,92.7,69.1,81.8,81.2,11.8
56.5,91.3,67.6,81.4,80.1,11.9
57.0,93.1,67.3,82.1,80.8,12.9
57.5,93.5,67.1,81.1,80.5,13.2
58.0,93.4,67.4,80.5,80.4,13.0
58.5,93.7,66.7,80.5,80.3,13.5
59.0,94.5,65.4,81.0,80.3,14.6
59.5,95.3,66.4,80.8,80.8,14.4
60.0,95.9,66.3,81.0,81.0,14.8
60.5,95.3,67.2,78.7,80.4,14.2
61.0,96.4,66.3,78.9,80.5,15.1
61.5,96.5,66.3,79.5,80.8,15.1
62.0,97.1,66.6,78.1,80.6,15.4
62.5,96.1,65.8,78.5,80.1,15.2
63.0,97.0,65.5,78.3,80.3,15.9
63.5,98.6,66.8,76.9,80.8,16.3
64.0,97.6,66.2,77.1,80.3,16.0
64.5,98.6,65.5,76.8,80.3,16.8
65.0,98.8,65.8,76.0,80.2,16.9
65.5,96.8,65.4,75.8,79.3,16.0
66.0,98.1,65.8,74.7,79.5,16.7
66.5,99.8,65.4,75.0,80.0,17.7
67.0,101.1,65.2,74.7,80.3,18.6
67.5,99.1,65.7,75.0,79.9,17.2
68.0,101.7,64.3,72.0,79.3,19.7
68.5,101.3,64.5,73.4,79.7,19.2
69.0,102.1,63.5,72.2,79.3,20.3
69.5,102.7,65.2,72.2,80.0,19.9
70.0,102.2,63.5,73.6,79.8,20.0
70.5,101.8,63.3,71.1,78.7,20.4
71.0,102.9,63.0,71.8,79.3,21.0
71.5,102.1,63.7,72.1,79.3,20.2
72.0,102.6,63.1,70.0,78.6,21.1
72.5,103.7,62.8,70.3,78.9,21.7
73.0,104.2,63.3,70.8,79.4,21.8
73.5,104.5,63.0,70.3,79.3,22.2
74.0,103.5,62.7,69.7,78.6,21.8
74.5,103.5,62.8,71.5,79.3,21.4
75.0,103.6,63.0,70.3,79.0,21.6
75.5,103.3,62.3,70.2,78.6,21.8
76.0,103.1,62.7,70.4,78.7,21.5
76.5,103.6,61.9,68.6,78.0,22.4
77.0,103.0,62.1,68.2,77.8,22.1
77.5,101.8,61.4,68.5,77.2,21.5
78.0,100.4,61.6,67.6,76.5,20.9
78.5,99.3,62.4,68.1,76.6,19.9
79.0,99.0,62.4,67.1,76.2,20.0
79.5,99.4,62.3,66.9,76.2,20.2
80.0,96.7,62.8,65.6,75.0,18.8
80.5,97.1,62.6,66.4,75.4,18.9
81.0,97.3,61.8,65.0,74.7,19.7
81.5,95.1,60.8,65.5,73.8,18.6
82.0,96.5,60.3,65.0,73.9,19.7
82.5,95.3,60.9,64.6,73.6,18.9
83.0,94.5,60.5,64.0,73.0,18.7
83.5,93.3,60.0,64.7,72.7,18.0
84.0,90.9,60.7,63.5,71.7,16.7
84.5,88.9,60.6,62.6,70.7,15.8
85.0,89.0,60.3,61.2,70.2,16.4
85.5,87.4,59.7,60.6,69.2,15.7
86.0,84.5,60.8,60.5,68.6,13.7
86.5,82.5,60.6,59.2,67.5,13.1
87.0,81.3,60.7,59.6,67.2,12.2
87.5,79.9,60.5,58.1,66.2,11.9
88.0,78.2,60.3,57.2,65.2,11.3
88.5,77.1,60.7,56.7,64.9,10.8
89.0,74.8,60.3,56.5,63.9,9.7
89.5,74.0,59.8,55.7,63.2,9.6
90.0,74.6,61.1,55.8,63.8,9.7
90.5,72.8,61.3,55.7,63.3,8.7
91.0,71.2,60.8,54.8,62.3,8.3
91.5,71.3,60.6,54.4,62.1,8.5
92.0,69.6,61.9,53.2,61.6,8.2
92.5,67.5,61.9,53.3,60.9,7.1
93.0,67.4,61.5,52.8,60.6,7.3
93.5,66.4,61.5,49.8,59.2,8.5
94.0,65.0,62.6,49.7,59.1,8.2
94.5,64.4,61.9,48.0,58.1,8.9
95.0,62.3,62.5,47.3,57.4,8.7
95.5,61.5,63.7,45.8,57.0,9.8
96.0,60.9,64.1,44.8,56.6,10.4
96.5,58.6,63.8,43.3,55.2,10.6
97.0,59.2,63.3,41.8,54.8,11.5
97.5,58.4,62.8,40.9,54.0,11.6
98.0,56.6,64.2,39.8,53.6,12.5
98.5,55.5,64.3,38.7,52.8,13.0
99.0,55.6,63.1,38.0,52.2,12.9
99.5,54.5,64.0,36.4,51.7,14.1
100.0,52.3,65.0,35.5,50.9,14.8
100.5,52.3,64.8,,58.6,8.8
101.0,52.1,65.0,,58.5,9.1
101.5,50.6,65.1,,57.9,10.3
102.0,50.1,65.7,,57.9,11.0
102.5,48.7,66.3,,57.5,12.5
103.0,47.3,66.5,,56.9,13.6
103.5,46.4,65.1,,55.7,13.2
104.0,45.3,65.9,,55.6,14.5
104.5,44.9,65.0,,55.0,14.2
105.0,43.9,65.5,,54.7,15.2
105.25,43.1,65.0,,54.0,15.5