Folder: fsri_materials_database/01_Data/Straw/Cone

Note: README.md
# Materials and Products Database
### Repository of materials and products properties and fire test data to improve fire modeling and fire investigation.

This project was supported in part by Award No. 2019-DU-BX-0018, awarded by the National Institute of Justice, Office of Justice Programs, U.S. Department of Justice. The opinions, findings, and conclusions or recommendations expressed in this publication / program / exhibition are those of the author(s) and do not necessarily reflect those of the Department of Justice.

***
***

__Cite this database:__ "McKinnon, M., Weinschenk, C., Dow, N., DiDomizio, M., and Madrzykowski, D. Materials and Products Database (Version 1.0.0), Fire Safety Research Institute, UL Research Institutes. Columbia, MD 21045, 2023."

__Cite the Technical Reference Guide:__ "McKinnon, M., Weinschenk, C., and Madrzykowski, D. Materials and Products Database - Technical Reference Guide, Fire Safety Research Institute, UL Research Institutes. Columbia, MD 21045, 2023."

__Cite the User Guide:__ "McKinnon, M., and Weinschenk, C. Materials and Products Database - User Guide, Fire Safety Research Institute, UL Research Institutes. Columbia, MD 21045, 2023."

***
***

## Database Structure

## 01_Data/
Raw data generated from each apparatus are included here in plain-text format. The data is organized first by material, next by the short name of test apparatus used, and where applicable additional filtering by test settings.

### Test Apparatus and Data File Structure
- __Cone Calorimeter__ (Cone)
    + Data file structure includes the material, the short name for the apparatus, heat flux setting and scan/scalar, date of test, and replicate number. Scan is for the raw output data and scalar is for the initial conditions and high-level test parameters. 
        * Example: __MDF_Cone_HF25scalar_210323_R1__ stands for the first replicate of scalar data generated from a medium density fiber board test in cone calorimeter exposed to 25 kW/m<sup>2</sup> on March 23, 2021.
    + A _Cone_Notes.csv_ is generated for each material from the __plot_Cone_data.py__ script. For materials whose experiments deviated from typical behavior relevant pictures are included in the respective material directory.
- __Fourier Transform Infrared Spectrometer__ (FTIR)
    + The FTIR directory contains subdirectories for the Attenuated Total Reflectance method (ATR) and the Integrating Sphere (IS)
    + Data file structure for the ATR experiment files includes the material, the abbreviated name for the apparatus, date of test, and replicate number. 
        * Example: __MDF_ATR_210323_R5__ stands for the fifth replicate of data collected with the ATR accessory conducted on June 8, 2021.
    + Data file structure for the IS experiment files includes the material, the abbreviated name for the apparatus, the measurand, whether the test is a sample measurement or standard reference, date of test, and replicate number.
        * Example: __OSB_IS_REFLECT_MEAS_2

File: Straw_Cone_HF35Scalar_181018_R1.csv
LABORATORY,FSRI
TEST IDENT,BC_S1
OPERATOR,Dow
MATERIAL,Boot Camp Straw
ORIENTATION,Horizontal
HEAT FLUX,35
SURF AREA,0.01
C FACTOR,0.0399942
SPEC HOLDER DIFF,349.54
SPECIMEN MASS,11.45
SCAN TIME,0.25
O2 DELAY TIME,11
CO DELAY TIME,11
CO2 DELAY TIME,8
FLOW FACTOR,1
SCAN COUNT,939
TIME TO IGN,9.5
END OF TEST SCAN,459
END OF TEST TIME,114.75
TEST STATUS,1
PRE TEST CMT,- weigh system reading -0.88g prior as baseline

File: Straw_Cone_HF35Scalar_181018_R2.csv
LABORATORY,FSRI
TEST IDENT,BC_S2
OPERATOR,Dow
MATERIAL,Boot Camp Straw
ORIENTATION,Horizontal
HEAT FLUX,35
SURF AREA,0.01
C FACTOR,0.039478
SPEC HOLDER DIFF,352.95
SPECIMEN MASS,13.05
SCAN TIME,0.25
O2 DELAY TIME,11
CO DELAY TIME,11
CO2 DELAY TIME,8
FLOW FACTOR,1
SCAN COUNT,1168
TIME TO IGN,16
END OF TEST SCAN,688
END OF TEST TIME,172
TEST STATUS,1

File: Straw_Cone_HF35Scalar_181019_R3.csv
LABORATORY,FSRI
TEST IDENT,BC-S3
OPERATOR,Dow
MATERIAL,Boot Camp Straw
ORIENTATION,Horizontal
HEAT FLUX,35
SURF AREA,0.01
C FACTOR,0.03822
SPEC HOLDER DIFF,352.92
SPECIMEN MASS,15.13
SCAN TIME,0.25
O2 DELAY TIME,11
CO DELAY TIME,11
CO2 DELAY TIME,8
FLOW FACTOR,1
SCAN COUNT,955
TIME TO IGN,18.75
END OF TEST SCAN,475
END OF TEST TIME,118.75
TEST STATUS,1

File: Straw_Cone_HF35Scan_181018_R1.csv
Names,Time,Stack TC,Smoke TC,Exh Press,Smoke Comp,Smoke Meas,CO Meter,CO2 Meter,O2 Meter,Sample Mass,Ext Coeff,Start Test,Flame Verif
Chan Gain,,500,500,1,1,1,1,1,1,1,1,1,1
Offset,,0,0,0.14301,0,0,0,0,0,0,0,0,0
Gain,,1,1,25.011,13.5312,14.6783,1,1,1,1.00099,1.04424,1,1
Units,sec,C,C,Pa,%,%,%,%,%,g,/m,,
Baseline,,39.4811,41.3865,180.83,98.7539,97.5375,0.004117919,0.0528277,20.963,-0.908568,0.113591,,
10,2.25,37.7938,38.9953,178.244,98.4623,97.9306,0.004269773,0.0554183,20.9533,927.111,0.04959441,0,0
20,4.75,38.1534,39.5498,184.18,98.4511,96.7297,0.004192659,0.0573679,20.9503,926.82,0.161583,0,0
30,7.25,38.2857,39.7964,178.155,98.4474,95.0678,0.004539283,0.0591277,20.9491,926.91,0.3199808,0,0
40,9.75,38.8174,40.8932,169.864,98.4363,98.3942,0.005118948,0.073332,20.9085,926.69,0.003911654,0,1
50,12.25,41.1903,44.7254,173.766,98.4482,97.6457,0.005366811,0.109494,20.8443,926.62,0.0749753,0,1
60,14.75,42.3953,46.8346,169.424,98.4387,98.0946,0.005596728,0.139885,20.8196,926.05,0.0320823,0,0
70,17.25,43.9591,48.1851,173.283,98.4272,98.3965,0.005891613,0.159303,20.812,926.1,0.002857211,0,0
80,19.75,44.8506,49.4791,171.134,98.4354,97.2703,0.006051886,0.172724,20.8094,925.939,0.109065,0,0
90,22.25,45.0748,50.8201,171.022,98.4321,97.7331,0.006007296,0.182724,20.804,925.629,0.0652854,0,0
100,24.75,45.6779,51.7343,171.614,98.4313,96.5339,0.006097174,0.192067,20.7957,925.469,0.178295,0,0
110,27.25,46.8446,52.4103,169.713,98.4354,96.5124,0.006480782,0.201548,20.7861,925.279,0.180719,0,0
120,29.75,47.4546,53.9672,175.312,98.4383,98.1241,0.006840801,0.210229,20.7811,925.079,0.0292832,0,0
130,32.25,47.784,54.2871,171.19,98.4259,97.6632,0.00693519,0.216038,20.7785,924.808,0.0712607,0,0
140,34.75,48.4361,54.6387,167.49,98.428,97.5288,0.006982156,0.220047,20.779,924.598,0.0840663,0,0
150,37.25,48.4503,54.7897,173.869,98.409,97.1364,0.007233713,0.222457,20.7797,924.388,0.119227,0,0
160,39.75,49.1072,55.6505,171.921,98.4334,97.9396,0.007512809,0.223379,20.7812,924.208,0.0460673,0,0
170,42.25,48.9234,55.6394,169.832,98.4189,97.7631,0.00756908,0.222845,20.7835,924.008,0.0612437,0,0
180,44.75,49.5972,55.6937,165.821,98.4193,98.2486,0.007527186,0.222076,20.7848,923.797,0.0158982,0,0
190,47.25,49.0624,56.1401,168.801,98.4082,98.2854,0.007608383,0.221365,20.7865,923.627,0.0114366,0,0
200,49.75,49.6458,56.0248,170.691,98.4135,97.6327,0.007694668,0.220716,20.7872,923.427,0.072966,0,0
210,52.25,49.9783,56.0757,174.312,98.4193,97.5611,0.007663326,0.220429,20.787,923.257,0.0802309,0,0
220,54.75,49.6745,56.2956,170.97,98.4239,97.9064,0.007656421,0.219887,20.7886,923.027,0.0482845,0,0
230,57.25,49.9982,56.4098,172.711,98.4173,97.8424,0.007892112,0.218661,20.79,922.846,0.05366407,0,0
240,59.75,50.1485,56.2253,171.618,98.4173,98.3548,0.008268321,0.216817,20.7929,922.656,0.005813928,0,0
250,62.25,50.2532,56.3551,167.981,98.4251,96.2607,0.008506629,0.215017,20.7933,922.476,0.203683,0,0
260,64.75,49.9678,56.8547,170.123,98.404,98.2307,0.008543927,0.21496,20.79,922.296,0.0161468,0,0
270,67.25,50.4282,56.9559,170.371,98.4214,98.0426,0.008617628,0.217165,20.786,922.056,0.0353222,0,0
280,69.75,50.595,56.8317,166.394,98.4107,97.7837,0.008679211,0.219542,20.7829,921.915,0.0585446,0,0
290,72.25,50.5293,57.5823,170.619,98.421,97.5628,0.008530119,0.222195,20.7798,921.695,0.0802158,0,0
300,74.75,51.1977,57.3843,169.995,98.4107,97.4571,0.008308245,0.224963,20.7771,921.495,0.0891859,0,0
310,77.25,51.4246,58.173,174.716,98.4218,97.6524,0.008113086,0.227995,20.7732,921.255,0.0718848,0,0
320,79.75,51.9934,57.8616,171.043,98.4115,97.2269,0.00798287,0.231642,20.7679,921.095,0.110929,0,0
330,82.25,51.9018,58.0347,168.978,98.4259,98.3736,0.008183899,0.23429,20.7659,920.854,0.004868843,0,0
340,84.75,51.7052,58.3047,167.507,98.4197,96.8103,0.008682298,0.235064,20.7668,920.694,0.15103,0,0
350,87.25,51.7985,58.3569,169.016,98.4061,99.0818,0.009190233,0.23404,20.7716,920.504,-0.0626844,0,0
360,89.75,52.0881,57.8641,178.387,98.4135,98.8529,0.009464825,0.231214,20.778,920.314,-0.0408061,0,0
370,92.25,52.0387,57.6362,174.964,98.409,97.5714,0.00996219,0.226897,20.7846,920.164,0.07830181,0,0
380,94.75,52.0161,57.5672,178.415,98.4123,97.0907,0.0106733,0.219834,20.7987,920.054,0.123844,0,0
390,97.25,51.2678,56.5237,183.536,98.4078,97.4925,0.0114597,0.208686,20.815,919.873,0.0855917,0,0
400,99.75,51.063,56.0056,173.674,98.4193,97.3868,0.0123132,0.196879,20.8259,919.753,0.0966054,0,0
410,102.25,49.9434,54.8596,172.958,98.3974,97.8625,0.0132753,0.187076,20.8361,919.693,0.0499322,0,0
420,104.75,49.9028,54.2015,179.37,98.409,97.9512,0.0139417,0.176735,20.8473,919.593,0.0427094,0,0
430,107.25,49.3294,53.5339,171.78,98.3879,97.2193,0.0144165,0.167106,20.856,919.523,0.109455,0,0
440,109.75,48.7381,52.7819,181.729,98.4069,97.0929,0.01536053,0.15775,20.865,919.453,0.123134,0,0
450,112.25,47.9274,51.4652,180.185,98.3838,95.866,0.0163682,0.148412,20.8742,919.363,0.23747,0,0
460,114.75,47.739,50.8482,174.424,98.4065,97.6627,0.017045,0.140262,20.8827,919.263,0.0694977,0,0
470,117.25,46.8067,50.1485,176.143,98.4061,97.0513,0.0169833,0.133405,20.8871,760.205,0.126987,0,0
480,119.75,46.5759,49.1132,178.394,98.4094,96.8891,0.0159944,0.127924,20.8903,56.6963,0.142612,0,0
490,122.25,46.475,48.7596,176.471,98.3991,97.2703,0.01314858,0.122249,20.8996,-0.900895,0.105683,0,0
500,124.75,45.2053,47.6106,184.529,98.4111,97.0876,0.009803623,0.11071,20.9191,-0.900895,0.124025,0,0
510,127.25,44.8941,46.622,178.589,98.4102,97.2797,0.00744024,0.0988076,20.9349,-0.890885,0.105835,0,0
520,129.75,44.4572,45.8427,175.62,98.4028,97.3465,0.006090992,0.08858569,20.9444,-0.910905,0.0988602,0,0
530,132.25,43.5094,45.6692,180.637,98.4119,97.0714,0.005453696,0.0801522,20.9505,-0.920914,0.125623,0,0
540,134.75,43.6037,45.4839,178.526,98.4057,97.4759,0.00504636,0.0739798,20.9541,-0.890885,0.0869569,0,0
550,137.25,43.8302,44.6694,182.104,98.397,97.088,0.004735305,0.0692517,20.9564,-0.900895,0.122676,0,0
560,139.75,43.1464,44.1655,174.896,98.3917,97.3734,0.004395001,0.0656728,20.9581,-0.950944,0.0952936,0,0
570,142.25,42.8007,43.8383,176.022,98.3991,97.415,0.004085021,0.062799,20.9587,-0.9409343,0.0920684,0,0
580,144.75,42.6794,43.4783,178.954,98.402,97.5109,0.004017062,0.0606211,20.9603,-0.930924,0.0833272,0,0
590,147.25,42.5075,43.6199,174.443,98.4098,97.1807,0.004056947,0.0589785,20.9611,-0.930924,0.115124,0,0
600,149.75,42.7688,43.5098,184.496,98.4057,97.0826,0.004030799,0.0578361,20.9615,-0.920914,0.12399,0,0
610,152.25,42.3856,43.5498,180.433,98.4168,97.5337,0.003878256,0.0568229,20.9616,-0.930924,0.0825665,0,0
620,154.75,42.3745,42.8859,185.156,98.404,97.29,0.003819809,0.0559104,20.9617,-0.9409343,0.104289,0,0
630,157.25,41.9805,43.0142,181.021,98.4226,97.2018,0.004004366,0.0552207,20.963,-0.930924,0.11433,0,0
640,159.75,42.4567,42.7125,182.329,98.4131,96.9196,0.004260075,0.0546363,20.9636,-0.950944,0.14008,0,0
650,162.25,41.7434,43.1045,181.053,98.4185,96.8363,0.004172144,0.0540695,20.9639,-0.970964,0.148458,0,0
660,164.75,42.0307,42.5392,179.835,98.4305,97.777,0.003903873,0.0536938,20.9639,-1.011,0.0610192,0,0
670,167.25,41.5629,43.055,180.811,98.4181,97.1216,0.003790273,0.053502,20.964,-0.970964,0.121466,0,0
680,169.75,41.592,42.4143,176.708,98.4189,97.1449,0.003867013,0.0532094,20.9644,-0.960954,0.119347,0,0
690,172.25,41.8776,42.2796,175.654,98.4135,97.5947,0.003988171,0.0530578,20.9655,-0.9409343,0.0765391,0,0
700,174.75,41.3247,42.8156,183.325,98.4148,97.3935,0.00395756,0.0529398,20.966,-0.970964,0.0955508,0,0
710,177.25,41.3165,42.914,172.147,98.4032,97.5494,0.003843786,0.0528667,20.9662,-0.970964,0.079825,0,0
720,179.75,41.8757,42.4925,178.427,98.404,98.0323,0.003821512,0.05282525,20.9662,-0.9409343,0.0346706,0,0
730,182.25,41.4828,43.1105,181.56,98.4135,96.9599,0.003848419,0.0527509,20.9663,-0.950944,0.136309,0,0
740,184.75,41.1216,42.1285,180.274,98.4102,97.4598,0.003963072,0.052617,20.9659,-0.980974,0.088895,0,0
750,187.25,40.9754,42.5717,188.042,98.4061,97.4401,0.00406755,0.0525536,20.9656,-0.980974,0.0903623,0,0
760,189.75,41.3428,42.2506,177.247,98.4073,97.0437,0.004051032,0.0526907,20.9655,-0.9409343,0.127822,0,0
770,192.25,41.348,42.5861,181.266,98.3991,98.1385,0.004093541,0.0526817,20.9654,-0.950944,0.0242944,0,0
780,194.75,41.2243,42.4032,182.163,98.3983,97.4361,0.004102916,0.0526434,20.9645,-0.950944,0.090012,0,0
790,197.25,41.0673,42.7549,180.141,98.4115,96.8018,0.004055766,0.0527396,20.9643,-0.930924,0.151067,0,0
800,199.75,41.0532,42.3632,180.942,98.4073,97.2273,0.004047796,0.0526843,20.9642,-0.930924,0.110503,0,0
810,202.25,40.5412,42.0131,177.641,98.4012,97.4182,0.004128808,0.0526396,20.9642,-0.9409343,0.0919657,0,0
820,204.75,40.5582,41.989,176.215,98.3987,97.4988,0.003986291,0.0526853,20.9638,-0.950944,0.0841571,0,0
830,207.25,40.5947,42.2889,182.288,98.4061,97.5015,0.003842763,0.0525801,20.9635,-0.950944,0.0845953,0,0
840,209.75,40.9947,42.1327,178.287,98.4073,96.9048,0.003781823,0.05258356,20.9634,-0.920914,0.140939,0,0
850,212.25,40.7506,41.9725,178.5,98.4177,97.8979,0.003718007,0.0525696,20.9626,-0.960954,0.0485039,0,0
860,214.75,40.5796,42.0607,177.738,98.404,97.3241,0.003827092,0.0527842,20.9619,-0.950944,0.101084,0,0
870,217.25,40.8959,41.8665,174.886,98.4247,96.7986,0.003973518,0.0529792,20.9621,-0.990984,0.152594,0,0
880,219.75,40.5024,41.9439,181.116,98.428,97.3438,0.003876624,0.0531635,20.9622,-0.990984,0.101458,0,0
890,222.25,41.0504,41.9615,178.811,98.4391,96.8806,0.003801414,0.0534675,20.9623,-0.990984,0.146184,0,0
900,224.75,40.9251,42.1987,179.172,98.4222,96.8564,,0.0536903,,-0.960954,0.146896,0,0
910,227.25,40.8594,41.8101,182.892,98.4495,98.2818,,,,-0.960954,0.0156137,0,0
920,229.75,41.0119,42.124,174.155,98.4396,97.5991,,,,-0.990984,0.07853999,0,0
930,232.25,40.4348,42.3469,179.953,98.4474,97.0723,,,,-0.980974,0.128844,0,0
939,234.5,41.0209,42.1254,183.074,98.4168,96.8246,,,,-0.960954,0.149405,0,0

File: Straw_Cone_HF35Scan_181018_R2.csv
Names,Time,Stack TC,Smoke TC,Exh Press,Smoke Comp,Smoke Meas,CO Meter,CO2 Meter,O2 Meter,Sample Mass,Ext Coeff,Start Test,Flame Verif
Chan Gain,,500,500,1,1,1,1,1,1,1,1,1,1
Offset,,0,0,0.14301,0,0,0,0,0,0,0,0,0
Gain,,1,1,25.011,14.3065,15.6922,1,1,1,1.00094,1.047,1,1
Units,sec,C,C,Pa,%,%,%,%,%,g,/m,,
Baseline,,40.0615,41.7456,167.956,105.052,106.36,0.002629106,0.0506564,20.9569,-0.172036,-0.113628,,
12,2.75,38.7966,40.3811,166.281,105.047,106.895,0.002466436,0.0515581,20.955,933.075,-0.160226,0,0
24,5.75,39.0002,40.7323,168.917,105.045,105.702,0.002724538,0.0516455,20.9552,933.325,-0.0572691,0,0
36,8.75,39.2858,41.4091,166.273,105.051,103.505,0.003554898,0.0525584,20.9537,933.145,0.136177,0,0
48,11.75,39.9127,42.1431,165.096,105.057,102.435,0.005164915,0.054425,20.9511,933.095,0.232177,0,0
60,14.75,40.0345,41.948,165.196,105.051,100.384,0.006777419,0.0609116,20.9331,932.905,0.417406,0,0
72,17.75,41.3201,43.9328,152.037,105.054,107.197,0.006601925,0.102907,20.8483,932.795,-0.185462,0,1
84,20.75,43.8336,47.1583,154.246,105.043,108.138,0.00585113,0.162038,20.7862,932.344,-0.266766,0,1
96,23.75,45.3202,49.6199,162.829,105.042,106.086,0.005757312,0.197152,20.762,932.094,-0.09080828,0,0
108,26.75,46.438,51.1911,158.268,105.048,106.107,0.005766799,0.217316,20.7516,931.784,-0.0921363,0,0
120,29.75,47.4681,53.1595,155.394,105.051,106.429,0.005485613,0.233942,20.7423,931.544,-0.119723,0,0
132,32.75,48.2411,54.5446,154.922,105.041,107.327,0.005220447,0.243877,20.7389,931.253,-0.19772,0,0
144,35.75,48.6946,55.9177,157.913,105.053,106.61,0.00503533,0.24702,20.7439,931.003,-0.135137,0,0
156,38.75,49.7352,56.4464,160.777,105.047,106.032,0.004841967,0.245131,20.7489,930.793,-0.0857405,0,0
168,41.75,49.927,57.331,163.387,105.05,107.015,0.004922346,0.240968,20.7584,930.513,-0.170198,0,0
180,44.75,49.5596,57.0729,159.089,105.04,106.677,0.005196874,0.234531,20.769,930.292,-0.142097,0,0
192,47.75,50.1645,56.4492,160.408,105.043,106.756,0.005454039,0.228278,20.776,930.072,-0.148589,0,0
204,50.75,50.2524,56.4313,161.123,105.04,106.045,0.005372277,0.223402,20.7812,929.842,-0.087395,0,0
216,53.75,49.9891,56.2343,161.94,105.035,107.181,0.005333279,0.217625,20.7879,929.622,-0.185788,0,0
228,56.75,50.1915,56.3845,160.871,105.045,106.175,0.005480877,0.211908,20.7943,929.442,-0.0982876,0,0
240,59.75,49.8762,55.537,160.079,105.035,106.156,0.00561328,0.206574,20.7992,929.251,-0.0975081,0,0
252,62.75,49.8041,55.551,158.212,105.035,106.996,0.00581052,0.202052,20.8029,929.041,-0.169893,0,0
264,65.75,49.2957,55.2907,164.737,105.039,106.583,0.006056637,0.196703,20.8093,928.891,-0.134009,0,0
276,68.75,49.901,55.151,159.148,105.042,105.955,0.006648863,0.190468,20.8162,928.681,-0.0794828,0,0
288,71.75,49.6269,55.0452,159.654,105.039,106.581,0.007278805,0.183834,20.822,928.531,-0.133842,0,0
300,74.75,49.3468,54.2516,160.133,105.039,106.573,0.007568294,0.179108,20.8259,928.331,-0.133181,0,0
312,77.75,49.4477,54.1532,159.767,105.032,106.8694,0.007819603,0.175609,20.8269,928.14,-0.159263,0,0
324,80.75,49.3924,53.7215,160.856,105.046,106.564,0.00801465,0.174513,20.8268,927.94,-0.131786,0,0
336,83.75,49.2679,53.8311,162.345,105.028,106.518,0.0081789,0.173378,20.8288,927.76,-0.12943,0,0
348,86.75,48.7973,54.2244,165.196,105.027,106.349,0.008423972,0.170934,20.8319,927.61,-0.114839,0,0
360,89.75,48.3745,53.8685,164.248,105.002,107.092,0.008708808,0.169017,20.8332,927.42,-0.181054,0,0
372,92.75,48.5282,53.1699,156.977,104.985,106.403,0.008652067,0.167462,20.834,927.28,-0.123178,0,0
384,95.75,49.1232,53.1173,166.514,104.965,105.328,0.008889616,0.167385,20.8342,927.079,-0.03174489,0,0
396,98.75,48.7934,53.6329,162.064,104.942,106.422,0.009251906,0.165509,20.8372,926.899,-0.128571,0,0
408,101.75,49.1814,52.8766,159.469,104.919,106.127,0.009126349,0.163994,20.8384,926.699,-0.105065,0,0
420,104.75,49.1165,52.9628,155.371,104.898,106.828,0.009046572,0.163361,20.8383,926.579,-0.167411,0,0
432,107.75,48.3522,53.3355,161.075,104.853,106.124,0.00917364,0.163217,20.8363,926.469,-0.110669,0,0
444,110.75,48.8779,52.5455,162.277,104.831,105.701,0.008889127,0.165179,20.8337,926.299,-0.07590922,0,0
456,113.75,48.6785,53.1311,160.723,104.799,106.085,0.008468521,0.166914,20.831,926.068,-0.112016,0,0
468,116.75,49.1073,53.1014,165.977,104.781,106.81,0.008183121,0.168713,20.8289,925.948,-0.176175,0,0
480,119.75,48.7596,53.8224,162.233,104.771,105.982,0.008083364,0.169683,20.8281,925.828,-0.105541,0,0
492,122.75,49.064,53.3748,158.965,104.742,106.454,0.008362062,0.170408,20.8276,925.658,-0.148936,0,0
504,125.75,48.8798,53.3693,165.657,104.713,107.31,0.008633188,0.170587,20.8273,925.518,-0.224919,0,0
516,128.75,48.6763,53.5465,160.71,104.701,106.089,0.00860304,0.171096,20.8272,925.418,-0.120999,0,0
528,131.75,49.3895,53.2499,166.66,104.688,105.499,0.008449404,0.171376,20.8272,925.188,-0.0708877,0,0
540,134.75,48.8373,53.2848,163.166,104.665,105.749,0.008526587,0.170644,20.8282,925.057,-0.0946548,0,0
552,137.75,49.1866,53.708,162.172,104.645,105.703,0.008921782,0.168787,20.8297,924.957,-0.0924266,0,0
564,140.75,48.913,52.8279,165.054,104.63,106.259,0.00995751,0.164311,20.8368,924.817,-0.141831,0,0
576,143.75,48.8911,52.5798,163.835,104.634,106.14,0.0107583,0.158227,20.8436,924.677,-0.131174,0,0
588,146.75,48.1934,52.7657,162.621,104.624,106.645,0.011016,0.153462,20.8486,924.587,-0.175669,0,0
600,149.75,48.0066,51.8507,164.466,104.626,106.223,0.0108489,0.149764,20.8516,924.507,-0.139109,0,0
612,152.75,48.6436,51.3897,165.569,104.613,106.797,0.0105854,0.147005,20.8536,924.387,-0.189729,0,0
624,155.75,48.233,50.9711,167.591,104.617,105.955,0.010385,0.14356,20.8576,924.317,-0.116777,0,0
636,158.75,47.5188,50.3146,161.728,104.63,106.535,0.0103367,0.139127,20.8629,924.227,-0.16568,0,0
648,161.75,47.4979,50.3965,164.168,104.698,105.722,0.0102362,0.134473,20.869,924.167,-0.0894555,0,0
660,164.75,47.1785,50.4937,166.003,104.767,106.214,0.01019,0.129747,20.8741,924.036,-0.125993,0,0
672,167.75,46.596,49.7632,163.372,104.843,105.948,0.0110711,0.123283,20.8813,924.017,-0.0963225,0,0
684,170.75,46.1635,48.9808,163.297,104.916,106.944,0.0120683,0.115783,20.8912,923.936,-0.175801,0,0
696,173.75,46.3596,48.3559,166.164,104.976,107.222,0.0126035,0.11001,20.8961,923.896,-0.194433,0,0
708,176.75,45.9597,47.4067,164.689,105.075,105.819,0.0122343,0.106122,20.8979,154.875,-0.0648242,0,0
720,179.75,45.142,47.3618,162.297,105.143,107.157,0.0100637,0.101594,20.9047,-0.150141,-0.174311,0,0
732,182.75,45.3417,46.5391,166.746,105.193,105.792,0.00715248,0.0904296,20.9238,-0.150141,-0.052119,0,0
744,185.75,44.6537,45.9915,164.583,105.227,106.702,0.00525892,0.0812254,20.9328,-0.16015,-0.12784,0,0
756,188.75,43.9512,45.4446,168.149,105.269,106.693,0.004058602,0.0751766,20.9374,-0.17016,-0.123396,0,0
768,191.75,43.9007,45.713,174.523,105.267,106.629,0.003363974,0.0699417,20.9418,-0.190178,-0.118106,0,0
780,194.75,43.1194,45.0665,168.297,105.291,106.623,0.003295172,0.0651463,20.9456,-0.17016,-0.115395,0,0
792,197.75,43.1668,43.8025,166.915,105.316,107.328,0.00322196,0.0614141,20.9511,-0.180169,-0.173784,0,0
804,200.75,43.3772,44.1329,166.547,105.347,106.563,0.002910578,0.0587418,20.9535,-0.16015,-0.105364,0,0
816,203.75,42.5767,43.9198,168.528,105.352,106.505,0.002837838,0.0567961,20.9542,-0.190178,-0.099992,0,0
828,206.75,42.2244,43.5922,165.66,105.36,106.762,0.002878731,0.0554841,20.9544,-0.200188,-0.121453,0,0
840,209.75,42.2612,43.8357,162.394,105.373,106.555,0.002814033,0.0545487,20.9544,-0.220206,-0.102497,0,0
852,212.75,42.3945,43.3363,164.972,105.38,106.599,0.002685667,0.0539009,20.9545,-0.220206,-0.105647,0,0
864,215.75,42.2174,42.8672,167.14,105.396,106.771,0.002654521,0.053546,20.9565,-0.180169,-0.119077,0,0
876,218.75,41.9032,43.4401,169.185,105.399,106.274,0.002730306,0.0531237,20.9575,-0.150141,-0.0759142,0,0
888,221.75,41.6391,43.333,166.976,105.398,106.636,0.002743848,0.0528947,20.9575,-0.140131,-0.107263,0,0
900,224.75,41.9565,43.0614,167.374,105.406,106.881,0.002789697,0.05268782,20.9575,-0.16015,-0.127593,0,0
912,227.75,42.1141,42.8157,171.741,105.413,106.601,0.00280103,0.0526415,20.9577,-0.180169,-0.102958,0,0
924,230.75,41.8337,42.5781,171.747,105.403,106.395,0.002675456,0.0525353,20.9578,-0.17016,-0.0860339,0,0
936,233.75,42.2874,42.6253,167.945,105.43,106.963,0.002524504,0.0525121,20.9578,-0.180169,-0.132573,0,0
948,236.75,41.3287,43.0473,167.436,105.43,106.402,0.002430608,0.05233904,20.9568,-0.17016,-0.0842543,0,0
960,239.75,41.8329,42.7523,168.165,105.451,106.837,0.002473104,0.052477,20.9557,-0.220206,-0.119889,0,0
972,242.75,41.5159,42.1113,162.141,105.464,107.078,0.002361966,0.0526875,20.9554,-0.190178,-0.139507,0,0
984,245.75,41.8701,42.5993,167.489,105.477,106.987,0.002397239,0.0525515,20.9553,-0.200188,-0.130484,0,0
996,248.75,40.7564,42.9429,164.693,105.491,107.376,0.002543636,0.0524522,20.9553,-0.17016,-0.162588,0,0
1008,251.75,41.8755,42.3748,169.88,105.494,107.388,0.002631823,0.0524358,20.9553,-0.150141,-0.163383,0,0
1020,254.75,41.8551,42.9357,164.997,105.519,107.403,0.002513966,0.0524888,20.9553,-0.150141,-0.162527,0,0
1032,257.75,41.2805,42.5458,166.874,105.515,106.541,0.002553928,0.0525277,20.9553,-0.17016,-0.0888232,0,0
1044,260.75,41.7413,42.163,166.785,105.519,106.974,0.002893573,0.05258099,20.9557,-0.150141,-0.125762,0,0
1056,263.75,41.1074,41.9861,169.989,105.518,106.87,0.003069216,0.0524801,20.9558,-0.140131,-0.116991,0,0
1068,266.75,40.9818,41.8013,163.341,105.526,107.486,0.00296128,0.0522499,20.9559,-0.150141,-0.168964,0,0
1080,269.75,40.733,42.1312,168.87,105.536,106.912,0.002841957,0.0522178,20.9556,-0.150141,-0.119054,0,0
1092,272.75,41.0855,41.8516,165.415,105.553,107.216,0.002713336,0.0522884,20.9552,-0.180169,-0.143617,0,0
1104,275.75,41.2258,41.7284,168.441,105.563,107.112,0.002638562,0.0522577,20.9551,-0.17016,-0.133838,0,0
1116,278.75,40.5029,42.6244,166.714,105.563,107.056,0.00263785,0.0522249,20.9551,-0.180169,-0.128991,0,0
1128,281.75,41.3306,42.2503,164.261,105.586,106.85,,0.0521959,,-0.16015,-0.109336,0,0
1140,284.75,40.689,41.9959,166.044,105.578,107.443,,,,-0.17016,-0.1608,0,0
1152,287.75,40.5492,42.1928,168.497,105.584,106.617,,,,-0.16015,-0.08934167,0,0
1164,290.75,40.4379,42.1227,165.773,105.587,106.431,,,,-0.190178,-0.0730935,0,0
1168,291.75,40.6114,41.7494,167.988,105.583,106.426,,,,-0.220206,-0.0730632,0,0