Folder: fsri_materials_database/01_Data/Straw/MCC (part 2)

File: Straw_MCC_30K_min_220318_R3.txt
Sample ID:	C:\MCC\MCC Cal\Test\Straw_MCC_30K_220318_R3.txt
Sample Weight (mg):	4.63
Heating Rate (C/s):	0.5
Combustor Temp (C):	900
N2 Flow Rate (cc/min):	80
O2 Flow Rate (cc/min):	20
Calibration File:	C:\MCC\MCC Cal\Coeff1 JN10440_30_210304.txt.txt
T Correction Coefficients:	0	1.024463	0
Time Shift (s):	14
*
Time (s)	Temperature (C)	N2 flow rate (cc/min)	O2 flow rate (cc/min)	Flow Rate (cc/min)	Oxygen (%)	HRR (W/g)	Heating rate (C/s)
0.000	112.550	80.003	19.994	103.741	20.044	0.151	0.021
7.500	112.551	80.004	19.994	103.738	20.043	0.261	0.012
15.000	112.561	80.005	19.994	103.843	20.038	0.553	0.016
22.500	112.848	80.006	19.994	103.876	20.023	1.632	0.059
30.001	113.504	80.002	19.993	103.922	20.011	2.476	0.126
37.500	114.615	80.003	19.994	103.951	20.009	2.643	0.215
45.000	116.014	80.003	19.995	103.935	20.003	3.008	0.209
52.500	117.805	80.004	19.994	103.954	20.003	3.027	0.237
60.000	119.820	80.000	19.995	103.976	20.002	3.092	0.303
67.501	122.128	80.002	19.996	103.965	19.999	3.325	0.346
75.000	124.686	80.005	19.995	103.966	20.003	3.009	0.361
82.501	127.324	80.004	19.994	103.963	20.001	3.164	0.352
90.000	130.198	80.005	19.994	103.969	20.002	3.120	0.366
97.500	133.259	80.006	19.994	103.971	20.003	3.052	0.411
105.000	136.423	80.004	19.993	103.972	20.001	3.187	0.428
112.500	139.707	80.002	19.994	103.975	20.003	3.031	0.438
120.001	143.147	80.004	19.994	103.975	20.003	3.027	0.475
127.501	146.649	80.003	19.993	103.975	20.001	3.176	0.486
135.000	150.189	80.003	19.996	103.964	20.001	3.164	0.442
142.500	153.839	80.003	19.995	103.957	20.002	3.096	0.506
150.000	157.429	80.003	19.994	103.954	20.003	3.038	0.488
157.500	161.141	80.004	19.995	103.951	19.997	3.471	0.507
165.000	164.827	80.004	19.995	103.961	20.002	3.140	0.481
172.500	168.588	80.003	19.996	103.944	20.006	2.852	0.518
180.000	172.307	80.007	19.994	103.934	19.997	3.473	0.501
187.500	176.080	80.003	19.995	103.934	20.001	3.173	0.480
195.000	179.798	80.003	19.993	103.936	19.999	3.293	0.478
202.500	183.542	80.003	19.995	103.927	19.997	3.447	0.475
210.000	187.301	80.002	19.995	103.927	19.996	3.529	0.498
217.500	190.970	80.003	19.995	103.930	19.989	4.019	0.487
225.000	194.642	80.002	19.995	103.929	19.987	4.143	0.519
232.500	198.297	80.004	19.995	103.933	19.985	4.300	0.492
240.000	201.927	80.004	19.995	103.924	19.972	5.196	0.506
247.500	205.545	80.004	19.995	103.934	19.963	5.839	0.467
255.000	209.151	80.003	19.994	103.937	19.958	6.195	0.489
262.500	212.796	80.006	19.994	103.934	19.946	7.060	0.474
270.000	216.467	80.003	19.995	103.939	19.934	7.842	0.455
277.500	220.158	80.003	19.993	103.939	19.923	8.665	0.500
285.000	223.836	80.004	19.995	103.950	19.912	9.382	0.515
292.500	227.530	80.005	19.995	103.957	19.899	10.316	0.488
300.000	231.303	80.003	19.995	103.956	19.891	10.909	0.506
307.500	235.001	80.002	19.995	103.953	19.883	11.450	0.467
315.000	238.748	80.004	19.995	103.944	19.878	11.789	0.481
322.500	242.476	80.005	19.994	103.948	19.871	12.271	0.485
330.000	246.207	80.002	19.994	103.941	19.864	12.773	0.512
337.500	250.043	80.005	19.993	103.949	19.854	13.450	0.545
345.000	253.678	80.006	19.996	103.945	19.842	14.295	0.478
352.500	257.434	80.002	19.996	103.956	19.831	15.102	0.474
360.000	261.083	80.003	19.995	103.966	19.811	16.483	0.458
367.500	264.785	80.004	19.994	103.975	19.795	17.617	0.514
375.000	268.461	80.005	19.994	103.998	19.761	20.003	0.485
382.500	272.218	80.004	19.993	104.014	19.732	22.028	0.491
390.000	275.947	80.004	19.994	104.034	19.695	24.615	0.508
397.500	279.673	80.005	19.995	104.051	19.646	28.093	0.492
405.000	283.488	80.006	19.994	104.088	19.595	31.679	0.536
412.500	287.237	80.002	19.994	104.120	19.540	35.535	0.537
420.000	291.018	80.006	19.996	104.135	19.476	40.062	0.509
427.500	294.817	80.006	19.995	104.161	19.416	44.275	0.505
435.000	298.588	80.004	19.994	104.182	19.349	48.995	0.514
442.500	302.362	80.003	19.994	104.208	19.291	53.047	0.507
450.000	306.088	80.006	19.994	104.208	19.240	56.649	0.521
457.500	309.794	80.004	19.995	104.218	19.197	59.647	0.490
465.000	313.518	80.005	19.994	104.219	19.173	61.314	0.492
472.500	317.241	80.004	19.994	104.204	19.178	60.887	0.489
480.000	320.953	80.006	19.995	104.148	19.212	58.509	0.502
487.500	324.629	80.004	19.995	104.082	19.292	52.851	0.478
495.000	328.321	80.005	19.994	104.000	19.413	44.379	0.492
502.500	331.994	80.006	19.993	103.936	19.558	34.209	0.490
510.000	335.754	80.003	19.994	103.896	19.694	24.678	0.463
517.500	339.570	80.002	19.994	103.882	19.796	17.516	0.503
525.000	343.283	80.003	19.996	103.873	19.854	13.480	0.474
532.500	347.051	80.004	19.995	103.858	19.896	10.517	0.479
540.000	350.860	80.004	19.997	103.859	19.916	9.144	0.514
547.500	354.693	80.003	19.996	103.862	19.928	8.274	0.487
555.000	358.428	80.005	19.995	103.856	19.944	7.161	0.482
562.500	362.181	80.005	19.994	103.856	19.952	6.626	0.487
570.000	365.993	80.006	19.994	103.856	19.963	5.817	0.520
577.500	369.755	80.005	19.994	103.858	19.961	5.999	0.496
585.000	373.589	80.007	19.993	103.858	19.968	5.467	0.544
592.500	377.305	80.005	19.995	103.854	19.979	4.695	0.523
600.000	381.046	80.004	19.994	103.855	19.975	4.999	0.452
607.500	384.829	80.004	19.995	103.844	19.980	4.650	0.481
615.000	388.549	80.004	19.995	103.850	19.977	4.884	0.460
622.500	392.244	80.003	19.994	103.852	19.993	3.757	0.542
630.000	396.098	80.003	19.995	103.846	19.987	4.137	0.600
637.500	400.009	80.004	19.994	103.853	19.989	4.033	0.783
645.000	403.589	80.005	19.993	103.850	19.992	3.799	0.497
652.500	407.439	80.005	19.994	103.848	19.993	3.760	0.485
660.000	411.341	80.006	19.994	103.846	20.001	3.149	0.519
667.500	415.192	80.008	19.995	103.839	20.002	3.129	0.568
675.000	419.122	80.004	19.993	103.846	19.999	3.303	0.521
682.500	423.052	80.007	19.995	103.831	20.000	3.212	0.526
690.000	426.900	80.003	19.994	103.829	20.004	2.973	0.516
697.500	430.710	80.005	19.994	103.831	20.003	2.997	0.520
705.000	434.575	80.003	19.995	103.827	20.012	2.413	0.508
712.500	438.485	80.004	19.994	103.829	20.011	2.448	0.517
720.000	442.320	80.006	19.996	103.826	20.010	2.529	0.529
727.500	446.210	80.004	19.994	103.817	20.013	2.323	0.523
735.000	450.104	80.004	19.996	103.828	20.020	1.833	0.522
742.500	454.056	80.007	19.995	103.815	20.021	1.802	0.536
750.000	458.029	80.006	19.994	103.816	20.022	1.704	0.526
757.500	462.043	80.005	19.994	103.818	20.021	1.752	0.530
765.000	465.951	80.004	19.993	103.816	20.022	1.688	0.507
772.500	469.786	80.004	19.994	103.821	20.024	1.541	0.517
780.000	473.551	80.004	19.994	103.819	20.026	1.448	0.521
787.500	477.261	80.003	19.993	103.812	20.026	1.454	0.504
795.000	480.896	80.005	19.995	103.816	20.030	1.141	0.494
802.500	484.521	80.008	19.994	103.815	20.028	1.251	0.461
810.000	488.245	80.005	19.995	103.817	20.028	1.280	0.460
817.500	492.095	80.005	19.994	103.818	20.033	0.924	0.509
825.000	496.181	80.007	19.995	103.818	20.031	1.056	0.543
832.500	500.354	80.007	19.995	103.817	20.030	1.160	0.548
840.000	504.528	80.003	19.994	103.820	20.031	1.048	0.556
847.500	508.688	80.004	19.993	103.820	20.031	1.075	0.563
855.001	512.805	80.005	19.992	103.815	20.032	1.017	0.530
862.500	516.939	80.005	19.994	103.810	20.036	0.742	0.539
870.000	521.010	80.005	19.994	103.812	20.032	1.015	0.533
877.500	525.083	80.007	19.994	103.813	20.034	0.837	0.544
885.000	529.054	80.006	19.994	103.814	20.035	0.793	0.529
892.500	533.019	80.005	19.994	103.815	20.035	0.818	0.519
900.000	536.918	80.004	19.994	103.816	20.036	0.700	0.501
907.500	540.808	80.007	19.995	103.807	20.036	0.713	0.538
915.000	544.644	80.005	19.995	103.814	20.036	0.712	0.498
922.500	548.475	80.004	19.995	103.799	20.037	0.646	0.546
930.000	552.269	80.004	19.994	103.806	20.036	0.715	0.497
937.500	556.090	80.005	19.994	103.813	20.039	0.493	0.529
945.000	560.048	80.007	19.994	103.813	20.040	0.443	0.532
952.500	563.887	80.004	19.995	103.815	20.037	0.640	0.499
960.000	567.773	80.007	19.995	103.817	20.037	0.623	0.508
967.500	571.585	80.005	19.995	103.807	20.040	0.433	0.485
975.000	575.548	80.005	19.994	103.816	20.040	0.420	0.516
982.500	579.347	80.006	19.995	103.807	20.043	0.246	0.508
990.000	583.175	80.007	19.994	103.800	20.041	0.387	0.489
997.500	587.013	80.005	19.995	103.806	20.039	0.545	0.541
1005.000	590.873	80.005	19.994	103.811	20.038	0.570	0.471
1012.500	594.720	80.005	19.998	103.800	20.038	0.582	0.499
1020.000	598.566	80.003	19.996	103.791	20.040	0.472	0.508
1027.500	602.342	80.004	19.996	103.796	20.041	0.396	0.507
1035.000	606.154	80.005	19.993	103.792	20.039	0.508	0.518
1042.500	609.787	80.008	19.994	103.788	20.041	0.400	0.471
1050.000	613.412	80.007	19.994	103.785	20.039	0.491	0.448
1057.500	617.033	80.004	19.995	103.798	20.040	0.416	0.480
1065.001	620.663	80.007	19.993	103.783	20.039	0.547	0.505
1072.500	624.306	80.007	19.995	103.801	20.033	0.953	0.480
1080.000	627.987	80.004	19.996	103.790	20.039	0.539	0.486
1087.500	631.834	80.004	19.994	103.805	20.034	0.884	0.516
1095.000	635.720	80.004	19.993	103.797	20.037	0.640	0.530
1102.500	639.586	80.005	19.994	103.780	20.036	0.713	0.541
1110.000	643.489	80.003	19.996	103.795	20.042	0.284	0.503
1117.500	647.489	80.005	19.996	103.781	20.042	0.282	0.540
1125.000	651.494	80.007	19.994	103.802	20.038	0.580	0.540
1132.500	655.425	80.006	19.994	103.784	20.040	0.429	0.507
1140.000	659.377	80.006	19.994	103.799	20.037	0.653	0.538
1147.500	663.192	80.007	19.995	103.793	20.036	0.744	0.544
1155.000	667.030	80.005	19.994	103.787	20.041	0.350	0.520
1162.500	670.798	80.004	19.994	103.792	20.042	0.315	0.505
1170.000	674.610	80.002	19.992	103.789	20.040	0.460	0.497
1177.500	678.386	80.003	19.995	103.778	20.037	0.634	0.524
1185.000	682.051	80.004	19.995	103.778	20.034	0.845	0.503
1192.500	685.798	80.003	19.994	103.775	20.035	0.812	0.504
1200.000	689.576	80.005	19.995	103.779	20.037	0.630	0.513
1207.500	693.440	80.004	19.995	103.777	20.039	0.524	0.542
1215.000	697.345	80.005	19.995	103.783	20.035	0.777	0.539
1222.500	701.285	80.006	19.994	103.778	20.031	1.094	0.517
1230.000	705.139	80.007	19.994	103.778	20.035	0.823	0.518
1237.500	708.871	80.004	19.993	103.778	20.034	0.874	0.521
1245.000	712.576	80.005	19.994	103.777	20.032	1.019	0.484
1252.500	716.333	80.005	19.995	103.780	20.038	0.584	0.503
1260.000	720.108	80.006	19.993	103.778	20.035	0.781	0.487
1267.500	723.975	80.004	19.993	103.777	20.038	0.617	0.520
1275.000	727.973	80.005	19.995	103.773	20.034	0.870	0.565
1282.500	731.884	80.005	19.995	103.778	20.036	0.756	0.493
1290.000	735.819	80.008	19.995	103.780	20.036	0.729	0.508
1297.500	739.547	80.004	19.994	103.774	20.034	0.854	0.498
1305.000	743.271	80.007	19.996	103.774	20.036	0.692	0.488
1305.500	743.532	80.005	19.994	103.773	20.034	0.849	0.477