Folder: fsri_materials_database/01_Data/Polyester_Microfiber_Sheet/Cone

Note: README.md
# Materials and Products Database
### Repository of materials and products properties and fire test data to improve fire modeling and fire investigation.

This project was supported in part by Award No. 2019-DU-BX-0018, awarded by the National Institute of Justice, Office of Justice Programs, U.S. Department of Justice. The opinions, findings, and conclusions or recommendations expressed in this publication / program / exhibition are those of the author(s) and do not necessarily reflect those of the Department of Justice.

***
***

__Cite this database:__ "McKinnon, M., Weinschenk, C., Dow, N., DiDomizio, M., and Madrzykowski, D. Materials and Products Database (Version 1.0.0), Fire Safety Research Institute, UL Research Institutes. Columbia, MD 21045, 2023."

__Cite the Technical Reference Guide:__ "McKinnon, M., Weinschenk, C., and Madrzykowski, D. Materials and Products Database - Technical Reference Guide, Fire Safety Research Institute, UL Research Institutes. Columbia, MD 21045, 2023."

__Cite the User Guide:__ "McKinnon, M., and Weinschenk, C. Materials and Products Database - User Guide, Fire Safety Research Institute, UL Research Institutes. Columbia, MD 21045, 2023."

***
***

## Database Structure

## 01_Data/
Raw data generated from each apparatus are included here in plain-text format. The data is organized first by material, next by the short name of test apparatus used, and where applicable additional filtering by test settings.

### Test Apparatus and Data File Structure
- __Cone Calorimeter__ (Cone)
    + Data file structure includes the material, the short name for the apparatus, heat flux setting and scan/scalar, date of test, and replicate number. Scan is for the raw output data and scalar is for the initial conditions and high-level test parameters. 
        * Example: __MDF_Cone_HF25scalar_210323_R1__ stands for the first replicate of scalar data generated from a medium density fiber board test in cone calorimeter exposed to 25 kW/m<sup>2</sup> on March 23, 2021.
    + A _Cone_Notes.csv_ is generated for each material from the __plot_Cone_data.py__ script. For materials whose experiments deviated from typical behavior relevant pictures are included in the respective material directory.
- __Fourier Transform Infrared Spectrometer__ (FTIR)
    + The FTIR directory contains subdirectories for the Attenuated Total Reflectance method (ATR) and the Integrating Sphere (IS)
    + Data file structure for the ATR experiment files includes the material, the abbreviated name for the apparatus, date of test, and replicate number. 
        * Example: __MDF_ATR_210323_R5__ stands for the fifth replicate of data collected with the ATR accessory conducted on June 8, 2021.
    + Data file structure for the IS experiment files includes the material, the abbreviated name for the apparatus, the measurand, whether the test is a sample measurement or standard reference, date of test, and replicate number.
        * Example: __OSB_IS_REFLECT_MEAS_2

File: Polyester_Microfiber_Sheet_HRRPUA_25.csv
Time after Ignition,Polyester_Microfiber_Sheet_R1,Polyester_Microfiber_Sheet_R2,Polyester_Microfiber_Sheet_R3,Mean,Std. Dev.
0.0,0.4,0.3,2.5,1.1,1.2
0.25,0.9,0.5,2.7,1.4,1.2
0.5,1.2,1.0,3.7,2.0,1.5
0.75,1.6,1.6,4.5,2.5,1.7
1.0,2.6,2.0,5.2,3.3,1.7
1.25,3.5,2.4,5.8,3.9,1.8
1.5,4.3,2.8,7.3,4.8,2.3
1.75,5.0,3.7,8.5,5.8,2.5
2.0,7.2,4.5,9.7,7.1,2.6
2.25,9.2,5.4,10.7,8.4,2.7
2.5,11.1,6.0,13.0,10.0,3.6
2.75,11.0,9.5,15.0,11.9,2.8
3.0,12.5,9.5,16.7,12.9,3.6
3.25,15.0,11.1,18.4,14.8,3.7
3.5,17.5,12.4,22.2,17.3,4.9
3.75,19.6,13.5,25.4,19.5,6.0
4.0,21.3,14.6,28.3,21.4,6.9
4.25,23.1,17.0,31.4,23.8,7.2
4.5,25.8,18.9,34.0,26.2,7.6
4.75,27.9,20.4,38.7,29.0,9.2
5.0,29.8,22.2,43.2,31.7,10.7
5.25,32.0,25.0,47.9,35.0,11.7
5.5,33.4,27.9,51.6,37.6,12.4
5.75,36.8,30.2,55.5,40.8,13.1
6.0,38.1,32.8,60.9,43.9,14.9
6.25,40.3,36.5,65.6,47.5,15.8
6.5,42.3,40.3,69.6,50.7,16.3
6.75,44.1,43.2,75.5,54.3,18.4
7.0,48.4,45.5,77.8,57.2,17.9
7.25,51.5,48.5,84.8,61.6,20.1
7.5,55.7,51.6,91.7,66.3,22.1
7.75,58.2,55.9,95.8,70.0,22.4
8.0,63.8,61.0,100.7,75.2,22.2
8.25,67.4,64.2,108.6,80.1,24.8
8.5,70.0,68.3,116.1,84.8,27.1
8.75,76.1,74.1,126.1,92.1,29.5
9.0,80.9,81.0,129.3,97.1,27.9
9.25,89.6,86.1,140.5,105.4,30.5
9.5,89.6,90.9,149.1,109.9,34.0
9.75,93.7,99.1,155.1,116.0,34.0
10.0,98.2,104.4,163.8,122.1,36.2
10.25,102.4,112.4,167.0,127.3,34.7
10.5,105.3,114.6,174.9,131.6,37.7
10.75,111.8,119.6,183.8,138.4,39.5
11.0,114.7,127.4,194.0,145.4,42.6
11.25,120.3,134.2,200.9,151.8,43.1
11.5,123.1,142.3,205.3,156.9,43.0
11.75,125.1,150.6,215.7,163.8,46.7
12.0,129.0,154.4,223.4,168.9,48.8
12.25,131.8,166.3,230.3,176.1,50.0
12.5,133.9,172.8,235.9,180.9,51.5
12.75,138.1,180.3,243.7,187.4,53.1
13.0,143.5,189.3,257.0,196.6,57.1
13.25,144.0,197.1,265.3,202.1,60.8
13.5,146.3,207.3,272.7,208.8,63.3
13.75,146.3,214.0,271.8,210.7,62.8
14.0,150.9,221.0,280.7,217.5,65.0
14.25,151.9,225.2,289.3,222.1,68.7
14.5,153.8,231.7,298.1,227.9,72.2
14.75,155.2,237.6,297.4,230.1,71.4
15.0,155.5,247.1,309.6,237.4,77.5
15.25,157.3,253.7,312.6,241.2,78.4
15.5,160.7,261.1,323.1,248.3,82.0
15.75,164.3,270.2,314.8,249.8,77.3
16.0,166.8,277.6,329.2,257.8,83.0
16.25,169.6,285.1,328.0,260.9,81.9
16.5,169.4,284.0,335.8,263.1,85.2
16.75,171.1,286.5,334.5,264.0,84.0
17.0,175.9,297.1,335.5,269.5,83.3
17.25,177.1,297.5,345.3,273.3,86.6
17.5,183.8,304.1,345.9,277.9,84.2
17.75,184.5,307.6,347.5,279.9,84.9
18.0,189.6,314.4,348.6,284.2,83.7
18.25,192.3,312.6,346.9,283.9,81.2
18.5,192.6,310.1,352.7,285.2,82.9
18.75,196.4,312.4,350.3,286.4,80.2
19.0,196.9,315.8,355.8,289.5,82.7
19.25,201.9,322.1,354.2,292.7,80.3
19.5,202.4,324.3,350.9,292.5,79.2
19.75,198.9,322.3,353.3,291.5,81.6
20.0,199.8,323.0,351.8,291.5,80.7
20.25,205.5,319.7,350.6,291.9,76.5
20.5,207.2,317.6,345.2,290.0,73.0
20.75,204.2,315.2,344.7,288.0,74.1
21.0,207.5,321.0,339.7,289.4,71.6
21.25,205.1,320.1,338.7,288.0,72.4
21.5,207.6,314.0,332.6,284.7,67.4
21.75,209.7,311.2,327.3,282.7,63.7
22.0,206.8,315.8,323.4,282.0,65.2
22.25,209.7,319.5,318.3,282.5,63.0
22.5,210.5,306.0,310.6,275.7,56.5
22.75,207.6,309.2,316.6,277.8,60.9
23.0,208.3,304.2,307.0,273.2,56.2
23.25,209.5,300.0,300.9,270.1,52.5
23.5,206.0,300.0,299.7,268.6,54.2
23.75,203.5,295.3,293.4,264.1,52.5
24.0,206.8,289.0,287.2,261.0,47.0
24.25,200.5,281.3,282.7,254.8,47.1
24.5,200.6,281.0,281.4,254.3,46.5
24.75,202.8,276.9,275.3,251.7,42.3
25.0,198.2,278.0,266.9,247.7,43.2
25.25,197.8,273.8,267.6,246.4,42.2
25.5,194.6,260.9,267.9,241.1,40.5
25.75,190.2,260.1,263.2,237.9,41.3
26.0,191.8,258.2,258.1,236.0,38.3
26.25,188.4,255.0,258.6,234.0,39.5
26.5,184.7,247.9,251.8,228.1,37.6
26.75,186.3,247.4,253.8,229.2,37.3
27.0,182.9,243.0,248.2,224.7,36.3
27.25,178.6,243.3,240.6,220.8,36.6
27.5,175.8,234.9,240.2,217.0,35.7
27.75,177.9,232.1,237.6,215.9,33.0
28.0,172.0,233.2,228.7,211.3,34.1
28.25,170.8,228.6,226.6,208.7,32.8
28.5,170.1,227.0,223.1,206.7,31.8
28.75,164.0,224.0,222.9,203.6,34.3
29.0,161.5,221.8,217.9,200.4,33.7
29.25,163.2,220.4,215.2,199.6,31.6
29.5,156.3,217.8,209.0,194.4,33.2
29.75,153.5,215.1,208.5,192.4,33.8
30.0,152.1,211.0,205.6,189.6,32.5
30.25,150.6,206.2,201.6,186.1,30.9
30.5,147.7,206.9,192.6,182.4,30.9
30.75,143.8,200.6,193.4,179.3,30.9
31.0,141.7,198.1,191.3,177.0,30.8
31.25,140.0,194.6,186.3,173.7,29.4
31.5,138.6,193.4,186.1,172.7,29.7
31.75,135.2,188.1,183.6,169.0,29.3
32.0,132.7,183.2,181.7,165.9,28.7
32.25,129.3,180.0,177.7,162.3,28.6
32.5,130.9,175.1,174.7,160.2,25.4
32.75,129.0,170.4,172.2,157.2,24.4
33.0,126.8,168.5,167.9,154.4,23.9
33.25,123.5,166.8,165.9,152.0,24.7
33.5,123.1,159.1,162.5,148.2,21.9
33.75,120.3,157.1,159.6,145.7,22.0
34.0,117.9,154.0,160.5,144.1,22.9
34.25,115.3,148.8,157.4,140.5,22.2
34.5,113.2,147.1,156.4,138.9,22.7
34.75,112.7,145.0,151.3,136.3,20.7
35.0,110.7,140.2,149.8,133.6,20.4
35.25,109.4,138.1,146.3,131.3,19.3
35.5,109.7,134.9,146.3,130.3,18.7
35.75,105.6,134.6,142.6,127.6,19.5
36.0,104.7,129.5,138.5,124.2,17.5
36.25,104.8,126.6,136.9,122.7,16.4
36.5,102.4,127.4,134.8,121.5,17.0
36.75,100.0,122.0,130.0,117.3,15.5
37.0,97.7,120.8,129.1,115.9,16.3
37.25,97.4,118.0,125.0,113.5,14.3
37.5,95.6,115.7,122.3,111.2,13.9
37.75,94.1,115.1,121.1,110.1,14.2
38.0,93.8,111.0,117.3,107.3,12.1
38.25,92.5,110.1,116.6,106.4,12.5
38.5,90.1,108.5,113.5,104.1,12.4
38.75,89.9,106.5,112.1,102.8,11.6
39.0,88.0,104.1,110.0,100.7,11.4
39.25,87.6,103.4,110.2,100.4,11.6
39.5,85.7,98.9,107.2,97.3,10.8
39.75,84.8,98.5,104.9,96.1,10.3
40.0,83.2,95.4,104.1,94.2,10.5
40.25,82.1,93.6,102.3,92.6,10.1
40.5,80.2,93.2,98.2,90.6,9.3
40.75,77.6,90.2,97.2,88.3,9.9
41.0,77.4,89.7,95.0,87.4,9.0
41.25,77.2,87.6,93.3,86.0,8.2
41.5,75.0,85.5,91.0,83.8,8.1
41.75,74.1,84.1,90.3,82.8,8.1
42.0,71.7,83.5,88.7,81.3,8.7
42.25,71.2,81.0,85.8,79.3,7.4
42.5,69.6,78.5,84.0,77.4,7.3
42.75,67.9,78.3,81.1,75.8,7.0
43.0,65.9,77.6,80.4,74.6,7.7
43.25,64.7,76.8,78.6,73.4,7.6
43.5,64.1,75.1,77.5,72.2,7.2
43.75,62.4,74.4,74.7,70.5,7.0
44.0,61.9,72.4,74.5,69.6,6.7
44.25,59.8,70.6,71.1,67.2,6.4
44.5,58.5,69.6,70.2,66.1,6.6
44.75,57.4,68.6,67.7,64.5,6.2
45.0,58.0,67.6,65.7,63.8,5.1
45.25,55.9,66.3,64.0,62.1,5.5
45.5,54.8,65.4,64.1,61.4,5.8
45.75,53.6,63.7,61.7,59.7,5.4
46.0,53.0,62.9,60.2,58.7,5.1
46.25,51.6,62.0,59.9,57.8,5.5
46.5,50.1,59.7,59.3,56.4,5.4
46.75,49.0,58.0,57.7,54.9,5.1
47.0,47.8,57.2,56.8,53.9,5.3
47.25,47.0,55.7,55.5,52.7,5.0
47.5,45.7,54.1,53.9,51.2,4.8
47.75,44.3,52.3,53.5,50.0,5.0
48.0,43.6,51.7,52.6,49.3,5.0
48.25,42.8,49.9,50.7,47.8,4.3
48.5,41.5,49.1,50.6,47.1,4.8
48.75,40.5,48.2,48.9,45.9,4.6
49.0,40.2,47.4,47.1,44.9,4.1
49.25,39.1,45.8,47.1,44.0,4.3
49.5,38.2,45.3,45.8,43.1,4.2
49.75,37.6,43.9,45.0,42.2,4.0
50.0,36.3,43.3,44.1,41.2,4.3
50.25,35.6,42.3,42.5,40.2,3.9
50.5,34.6,41.5,40.6,38.9,3.8
50.75,33.8,40.3,40.0,38.0,3.7
51.0,32.5,39.7,38.3,36.8,3.8
51.25,31.8,39.3,37.3,36.1,3.9
51.5,30.9,39.4,35.7,35.3,4.3
51.75,30.4,38.4,35.0,34.6,4.0
52.0,29.4,36.7,33.6,33.2,3.7
52.25,28.6,36.1,32.6,32.4,3.7
52.5,28.1,35.2,32.0,31.8,3.6
52.75,27.5,34.7,31.1,31.1,3.6
53.0,26.7,33.4,30.0,30.0,3.4
53.25,26.0,32.3,29.2,29.2,3.1
53.5,25.1,31.5,28.5,28.4,3.2
53.75,24.6,30.4,27.5,27.5,2.9
54.0,24.0,30.1,26.9,27.0,3.0
54.25,23.5,28.9,25.7,26.0,2.7
54.5,23.0,27.5,24.9,25.1,2.3
54.75,22.1,27.1,24.3,24.5,2.5
55.0,21.4,26.0,23.7,23.7,2.3
55.25,21.1,24.9,22.7,22.9,1.9
55.5,20.6,23.9,21.9,22.1,1.6
55.75,20.2,22.8,21.1,21.4,1.3
56.0,20.0,22.0,20.4,20.8,1.1
56.25,19.9,21.4,19.9,20.4,0.9
56.5,19.2,20.7,19.0,19.6,0.9
56.75,18.6,19.7,18.3,18.8,0.7
57.0,18.1,18.8,17.5,18.2,0.7
57.25,17.8,17.8,16.8,17.5,0.6
57.5,17.4,17.2,16.0,16.9,0.8
57.75,17.0,16.2,15.4,16.2,0.8
58.0,16.6,15.8,14.7,15.7,1.0
58.25,16.2,15.4,14.1,15.2,1.1
58.5,15.7,14.8,13.4,14.6,1.2
58.75,15.7,14.4,12.8,14.3,1.5
59.0,15.1,13.4,11.9,13.5,1.6
59.25,14.8,12.9,11.3,13.0,1.7
59.5,14.5,12.4,10.8,12.6,1.9
59.75,14.1,11.8,10.4,12.1,1.8
60.0,13.7,11.0,10.2,11.7,1.9
60.25,13.3,10.3,9.6,11.1,2.0
60.5,12.9,10.0,9.4,10.8,1.9
60.75,12.8,9.6,9.1,10.5,2.0
61.0,12.4,8.9,8.6,10.0,2.1
61.25,12.0,8.7,8.4,9.7,2.0
61.5,11.7,8.4,8.3,9.5,1.9
61.75,11.4,8.0,7.9,9.1,2.0
62.0,11.1,7.7,7.8,8.9,1.9
62.25,10.7,7.4,7.9,8.7,1.8
62.5,10.7,7.2,7.5,8.5,1.9
62.75,10.4,7.0,7.3,8.2,1.9
63.0,10.4,6.7,7.1,8.1,2.0
63.25,10.2,6.5,6.8,7.8,2.0
63.5,9.8,6.1,,8.0,2.6
63.75,9.5,6.2,,7.9,2.4
64.0,9.5,6.0,,7.7,2.5
64.25,9.1,5.6,,7.3,2.5
64.5,8.8,5.6,,7.2,2.3
64.75,8.4,5.2,,6.8,2.3
65.0,8.3,,,8.3,
65.25,8.2,,,8.2,
65.5,8.0,,,8.0,
65.75,7.8,,,7.8,
66.0,7.5,,,7.5,
66.25,7.3,,,7.3,
66.5,7.1,,,7.1,
66.75,6.8,,,6.8,
67.0,6.7,,,6.7,
67.25,6.5,,,6.5,
67.5,6.3,,,6.3,
67.75,6.2,,,6.2,
68.0,6.0,,,6.0,
68.25,6.0,,,6.0,
68.5,5.9,,,5.9,
68.75,5.7,,,5.7,
69.0,5.7,,,5.7,
69.25,5.6,,,5.6,
69.5,5.5,,,5.5,
69.75,5.4,,,5.4,
70.0,5.3,,,5.3,
70.25,5.2,,,5.2,
70.5,5.2,,,5.2,
70.75,5.1,,,5.1,
71.0,5.1,,,5.1,
71.25,5.1,,,5.1,
71.5,5.1,,,5.1,

File: Polyester_Microfiber_Sheet_HRRPUA_50.csv
Time after Ignition,Polyester_Microfiber_Sheet_R1,Polyester_Microfiber_Sheet_R2,Polyester_Microfiber_Sheet_R3,Mean,Std. Dev.
0.0,-2.0,5.6,12.0,5.2,7.0
0.5,-0.4,8.9,15.5,8.0,8.0
1.0,1.0,11.4,21.0,11.1,10.0
1.5,4.7,18.5,28.2,17.1,11.8
2.0,7.6,24.3,33.7,21.9,13.2
2.5,12.7,37.1,43.2,31.0,16.2
3.0,16.1,46.2,49.8,37.4,18.5
3.5,22.2,60.0,55.8,46.0,20.7
4.0,27.4,73.6,66.7,55.9,24.9
4.5,31.0,94.2,75.1,66.8,32.4
5.0,37.7,115.9,90.8,81.5,39.9
5.5,42.6,133.4,102.0,92.6,46.1
6.0,49.1,153.9,126.1,109.7,54.2
6.5,56.5,176.2,141.9,124.9,61.7
7.0,61.6,204.1,173.6,146.4,75.0
7.5,68.7,234.7,202.2,168.5,88.0
8.0,76.8,245.6,227.8,183.4,92.7
8.5,83.3,274.5,254.0,203.9,105.0
9.0,95.4,315.1,283.2,231.3,118.7
9.5,105.5,348.0,302.8,252.1,129.0
10.0,122.9,365.5,315.3,267.9,128.0
10.5,139.5,380.6,343.1,287.7,129.8
11.0,162.1,396.9,350.4,303.1,124.3
11.5,182.3,410.9,356.4,316.5,119.4
12.0,217.4,409.7,376.1,334.4,102.7
12.5,246.5,419.7,378.5,348.3,90.5
13.0,271.5,412.8,408.9,364.4,80.5
13.5,301.4,417.7,397.9,372.3,62.2
14.0,327.4,395.4,410.9,377.9,44.4
14.5,344.2,390.4,411.8,382.1,34.5
15.0,366.6,374.1,416.3,385.7,26.8
15.5,383.1,366.4,419.2,389.5,27.0
16.0,385.4,351.2,416.3,384.3,32.6
16.5,401.9,338.2,418.5,386.2,42.4
17.0,400.5,324.2,414.1,379.6,48.5
17.5,406.5,319.2,405.2,377.0,50.0
18.0,406.6,307.5,392.1,368.7,53.5
18.5,405.8,286.3,388.7,360.2,64.6
19.0,396.2,266.8,375.9,346.3,69.6
19.5,392.7,255.7,362.6,337.0,72.0
20.0,386.9,238.4,347.8,324.4,77.0
20.5,376.9,229.7,333.5,313.4,75.7
21.0,355.6,213.8,316.8,295.4,73.3
21.5,348.5,202.6,301.7,284.3,74.5
22.0,333.5,194.0,292.8,273.5,71.8
22.5,316.1,185.2,271.8,257.7,66.6
23.0,297.6,177.5,256.5,243.9,61.0
23.5,286.6,165.9,241.3,231.3,61.0
24.0,266.6,155.6,226.3,216.2,56.2
24.5,256.9,152.0,218.4,209.1,53.0
25.0,243.7,144.6,204.2,197.5,49.9
25.5,232.2,135.9,190.8,186.3,48.3
26.0,222.9,129.1,178.4,176.8,46.9
26.5,209.0,122.0,168.3,166.4,43.5
27.0,202.8,115.9,154.9,157.9,43.6
27.5,192.4,107.1,150.8,150.1,42.6
28.0,185.0,105.0,139.6,143.2,40.1
28.5,174.3,100.7,131.6,135.5,36.9
29.0,163.0,96.4,122.2,127.2,33.5
29.5,157.0,92.4,115.6,121.7,32.7
30.0,152.0,90.0,108.7,116.9,31.8
30.5,143.4,87.0,104.0,111.5,28.9
31.0,137.7,83.7,99.0,106.8,27.8
31.5,131.5,82.0,95.4,103.0,25.6
32.0,124.9,78.1,91.0,98.0,24.1
32.5,121.5,74.6,86.5,94.2,24.4
33.0,116.5,72.9,82.9,90.8,22.8
33.5,111.4,70.5,79.6,87.2,21.5
34.0,105.1,67.1,76.6,82.9,19.8
34.5,100.3,65.3,72.7,79.4,18.4
35.0,95.6,63.9,69.0,76.2,17.0
35.5,90.6,63.1,67.0,73.5,14.9
36.0,85.5,60.6,64.4,70.2,13.4
36.5,81.6,59.2,61.9,67.5,12.2
37.0,78.4,57.9,59.6,65.3,11.4
37.5,75.7,57.1,57.1,63.3,10.8
38.0,71.4,55.8,55.7,60.9,9.0
38.5,67.2,54.7,53.6,58.5,7.6
39.0,65.5,54.9,51.8,57.4,7.2
39.5,63.7,52.6,51.0,55.8,6.9
40.0,60.7,51.8,48.9,53.8,6.2
40.5,58.5,51.6,48.1,52.7,5.3
41.0,56.7,50.4,46.3,51.1,5.2
41.5,54.1,50.9,45.7,50.2,4.2
42.0,52.0,49.9,43.8,48.6,4.3
42.5,49.9,49.3,42.7,47.3,4.0
43.0,48.8,49.2,41.5,46.5,4.3
43.5,47.2,49.0,40.8,45.7,4.3
44.0,45.5,48.6,39.0,44.4,4.9
44.5,44.2,48.0,38.0,43.4,5.0
45.0,42.9,48.1,37.7,42.9,5.2
45.5,41.7,47.6,35.8,41.7,5.9
46.0,39.8,47.7,36.0,41.2,6.0
46.5,39.8,46.4,35.0,40.4,5.7
47.0,37.6,46.2,33.6,39.1,6.5
47.5,37.0,46.2,33.1,38.8,6.7
48.0,36.0,44.9,31.6,37.5,6.8
48.5,35.1,44.5,31.6,37.1,6.7
49.0,34.6,44.5,30.4,36.5,7.2
49.5,33.7,43.5,29.5,35.6,7.2
50.0,33.5,43.8,28.5,35.3,7.8
50.5,32.6,42.6,28.0,34.4,7.5
51.0,32.5,42.2,27.0,33.9,7.7
51.5,31.4,42.3,27.0,33.6,7.9
52.0,31.5,41.8,26.3,33.2,7.9
52.5,31.3,41.5,25.8,32.9,8.0
53.0,30.4,41.1,25.7,32.4,7.9
53.5,30.5,40.6,25.2,32.1,7.8
54.0,30.0,40.5,24.7,31.7,8.0
54.5,29.8,39.6,24.4,31.2,7.7
55.0,29.1,39.6,24.2,31.0,7.9
55.5,28.9,38.9,23.9,30.6,7.6
56.0,28.7,39.2,23.6,30.5,7.9
56.5,28.3,39.5,23.5,30.4,8.2
57.0,28.1,38.0,23.0,29.7,7.6
57.5,27.5,38.1,22.8,29.5,7.8
58.0,26.5,37.3,22.7,28.8,7.6
58.5,26.3,36.6,22.6,28.5,7.3
59.0,26.4,36.6,22.3,28.4,7.4
59.5,26.1,36.3,22.2,28.2,7.3
60.0,25.7,35.7,21.9,27.8,7.2
60.5,25.4,35.4,21.6,27.5,7.1
61.0,25.3,34.4,21.8,27.2,6.5
61.5,25.0,34.2,21.8,27.0,6.4
62.0,24.7,34.2,21.7,26.8,6.5
62.5,24.7,33.0,22.0,26.5,5.7
63.0,24.6,33.1,21.8,26.5,5.9
63.5,24.4,32.2,22.0,26.2,5.3
64.0,24.0,32.9,22.1,26.3,5.8
64.5,23.4,32.1,21.9,25.8,5.5
65.0,23.0,32.1,22.1,25.7,5.5
65.5,22.7,32.0,21.9,25.5,5.6
66.0,22.6,31.7,22.1,25.5,5.4
66.5,22.3,31.4,22.0,25.2,5.3
67.0,22.0,30.9,22.2,25.0,5.1
67.5,22.0,30.7,21.8,24.9,5.0
68.0,21.9,30.3,22.0,24.7,4.8
68.5,21.3,30.2,22.1,24.5,4.9
69.0,21.7,30.2,21.9,24.6,4.8
69.5,21.2,30.0,22.2,24.5,4.8
70.0,21.0,29.2,22.3,24.1,4.4
70.5,20.6,28.4,22.0,23.7,4.2
71.0,20.7,28.8,22.2,23.9,4.3
71.5,20.8,28.7,21.9,23.8,4.3
72.0,20.5,28.2,21.9,23.6,4.1
72.5,20.4,28.1,22.2,23.5,4.0
73.0,20.0,27.8,22.0,23.3,4.0
73.5,19.7,27.1,22.1,23.0,3.8
74.0,19.7,27.2,22.1,23.0,3.8
74.5,19.4,26.9,22.2,22.8,3.8
75.0,19.0,27.2,22.4,22.8,4.1
75.5,18.7,26.3,22.1,22.4,3.8
76.0,19.2,26.1,22.4,22.5,3.5
76.5,18.7,25.9,22.4,22.3,3.6
77.0,18.4,25.3,22.5,22.1,3.5
77.5,18.3,25.0,22.2,21.8,3.4
78.0,17.9,24.8,21.9,21.5,3.5
78.5,17.8,24.5,21.9,21.4,3.4
79.0,17.2,23.7,22.0,21.0,3.4
79.5,17.2,23.9,21.9,21.0,3.4
80.0,16.6,22.9,21.9,20.5,3.4
80.5,16.6,23.0,21.7,20.4,3.4
81.0,16.3,22.5,21.7,20.2,3.4
81.5,16.0,22.5,,19.2,4.6
82.0,16.1,22.3,,19.2,4.4
82.5,15.5,21.6,,18.6,4.3
83.0,15.1,21.4,,18.2,4.5
83.5,14.7,21.4,,18.0,4.7
84.0,14.3,20.7,,17.5,4.5
84.5,14.1,20.3,,17.2,4.4
85.0,13.8,20.5,,17.2,4.7
85.5,13.7,20.1,,16.9,4.6
86.0,13.7,19.9,,16.8,4.4
86.5,13.6,19.5,,16.5,4.2
87.0,13.6,19.4,,16.5,4.1
87.5,13.5,19.4,,16.4,4.2
88.0,13.4,19.2,,16.3,4.1
88.5,13.2,18.7,,15.9,3.9
89.0,13.1,18.4,,15.8,3.8
89.5,12.8,17.9,,15.3,3.6
90.0,12.5,17.3,,14.9,3.4
90.5,12.3,16.9,,14.6,3.3
91.0,12.4,16.4,,14.4,2.9
91.5,12.2,15.8,,14.0,2.6
92.0,12.4,15.7,,14.0,2.3
92.5,12.2,15.3,,13.8,2.2
93.0,12.3,15.1,,13.7,2.0
93.5,12.2,15.2,,13.7,2.1
94.0,12.0,14.8,,13.4,2.0
94.5,12.0,14.5,,13.3,1.8
95.0,12.0,14.7,,13.4,1.9
95.5,12.0,14.2,,13.1,1.5
96.0,12.0,14.1,,13.0,1.5
96.5,12.0,13.7,,12.8,1.2
97.0,12.2,13.3,,12.8,0.8
97.5,12.1,13.1,,12.6,0.7
98.0,11.9,12.7,,12.3,0.6
98.5,11.9,12.7,,12.3,0.6
99.0,11.8,,,11.8,
99.5,11.9,,,11.9,
100.0,12.0,,,12.0,
100.25,11.8,,,11.8,

File: Polyester_Microfiber_Sheet_HRRPUA_75.csv
Time after Ignition,Polyester_Microfiber_Sheet_R1,Polyester_Microfiber_Sheet_R2,Polyester_Microfiber_Sheet_R3,Mean,Std. Dev.
0.0,19.7,13.1,13.5,15.4,3.7
0.5,27.2,18.2,24.2,23.2,4.6
1.0,36.6,26.6,32.2,31.8,5.0
1.5,48.2,36.8,50.3,45.1,7.2
2.0,58.0,46.0,66.9,57.0,10.5
2.5,69.8,51.4,78.3,66.5,13.7
3.0,84.4,66.5,101.8,84.2,17.7
3.5,101.5,79.8,121.3,100.9,20.8
4.0,120.1,101.2,139.1,120.1,19.0
4.5,144.3,115.6,165.7,141.9,25.2
5.0,164.5,145.9,201.5,170.7,28.3
5.5,197.2,175.1,243.5,205.3,34.9
6.0,225.7,220.3,254.0,233.3,18.1
6.5,265.4,246.8,292.1,268.1,22.8
7.0,297.2,317.3,352.4,322.3,27.9
7.5,337.2,351.9,378.2,355.7,20.8
8.0,367.0,383.6,434.0,394.9,34.9
8.5,386.4,428.9,471.2,428.8,42.4
9.0,421.0,448.9,513.7,461.2,47.5
9.5,441.0,489.6,528.1,486.2,43.6
10.0,464.3,514.8,536.9,505.3,37.2
10.5,469.2,527.0,555.1,517.1,43.8
11.0,507.1,545.1,578.5,543.6,35.7
11.5,506.2,561.8,582.6,550.2,39.5
12.0,515.9,550.2,558.7,541.6,22.7
12.5,540.3,546.0,560.3,548.9,10.3
13.0,533.9,529.3,523.5,528.9,5.2
13.5,534.9,496.2,514.2,515.1,19.4
14.0,518.5,472.9,474.3,488.6,25.9
14.5,491.2,457.3,446.2,464.9,23.4
15.0,470.9,429.9,416.6,439.2,28.3
15.5,449.4,401.0,388.9,413.1,32.0
16.0,431.4,381.9,359.5,390.9,36.8
16.5,411.7,360.2,329.1,367.0,41.7
17.0,392.8,336.8,306.2,345.3,43.9
17.5,369.8,306.3,283.3,319.8,44.8
18.0,354.6,288.6,254.6,299.2,50.8
18.5,332.5,261.6,240.5,278.2,48.2
19.0,316.9,241.6,222.9,260.5,49.8
19.5,296.1,217.0,209.6,240.9,48.0
20.0,274.8,204.5,192.4,223.9,44.5
20.5,259.8,188.2,182.6,210.2,43.1
21.0,242.5,176.8,169.1,196.1,40.3
21.5,227.5,163.3,156.3,182.4,39.2
22.0,208.6,150.9,146.0,168.5,34.8
22.5,196.9,140.1,137.9,158.3,33.5
23.0,184.8,135.9,129.3,150.0,30.3
23.5,174.9,127.1,121.6,141.2,29.4
24.0,167.5,119.9,117.1,134.9,28.3
24.5,157.0,111.9,110.5,126.5,26.5
25.0,147.9,105.8,104.9,119.5,24.6
25.5,138.4,102.3,99.8,113.5,21.6
26.0,131.6,97.3,97.1,108.7,19.9
26.5,122.5,92.1,93.8,102.8,17.1
27.0,118.5,90.0,88.3,98.9,17.0
27.5,113.4,86.7,85.6,95.2,15.7
28.0,106.8,83.3,83.3,91.1,13.5
28.5,102.9,81.4,80.4,88.2,12.7
29.0,97.7,79.7,78.5,85.3,10.8
29.5,94.2,77.9,76.5,82.9,9.9
30.0,90.5,75.9,73.6,80.0,9.2
30.5,87.8,74.2,72.1,78.0,8.5
31.0,85.1,72.8,70.7,76.2,7.7
31.5,82.4,71.8,69.3,74.5,7.0
32.0,79.6,69.1,68.8,72.5,6.1
32.5,78.0,68.0,67.5,71.2,5.9
33.0,74.8,65.3,66.8,69.0,5.1
33.5,72.6,64.2,66.4,67.7,4.3
34.0,72.5,63.0,63.4,66.3,5.3
34.5,72.1,61.0,63.1,65.4,5.9
35.0,69.7,58.8,61.9,63.5,5.6
35.5,68.2,58.0,60.4,62.2,5.3
36.0,66.1,57.4,61.2,61.6,4.4
36.5,64.3,56.1,59.4,59.9,4.1
37.0,62.5,55.3,58.0,58.6,3.6
37.5,61.7,54.1,56.7,57.5,3.9
38.0,60.6,53.8,56.3,56.9,3.5
38.5,58.5,52.7,56.3,55.8,2.9
39.0,57.0,51.6,55.8,54.8,2.9
39.5,56.0,50.8,54.3,53.7,2.7
40.0,55.1,50.9,53.2,53.1,2.1
40.5,53.9,49.1,53.1,52.1,2.6
41.0,53.1,49.3,52.5,51.6,2.1
41.5,51.1,48.0,51.7,50.3,1.9
42.0,51.1,48.1,50.5,49.9,1.6
42.5,50.1,46.9,50.7,49.3,2.0
43.0,50.1,46.7,50.9,49.2,2.2
43.5,48.9,46.5,50.0,48.4,1.8
44.0,48.4,46.2,49.4,48.0,1.6
44.5,47.6,45.6,49.5,47.6,1.9
45.0,48.0,44.6,47.9,46.8,2.0
45.5,47.0,45.7,47.7,46.8,1.0
46.0,45.9,44.6,47.5,46.0,1.4
46.5,46.0,43.9,46.5,45.5,1.4
47.0,45.4,43.8,46.3,45.1,1.3
47.5,44.6,43.2,46.1,44.7,1.4
48.0,44.3,43.4,45.5,44.4,1.1
48.5,43.9,43.3,46.0,44.4,1.4
49.0,43.3,43.3,45.0,43.9,1.0
49.5,43.8,43.0,44.3,43.7,0.6
50.0,42.2,43.1,44.7,43.3,1.3
50.5,42.2,42.5,43.6,42.8,0.7
51.0,41.9,41.9,44.6,42.8,1.6
51.5,41.3,41.6,43.1,42.0,1.0
52.0,40.7,41.3,44.0,42.0,1.8
52.5,40.4,40.7,43.4,41.5,1.7
53.0,39.7,41.1,42.9,41.2,1.6
53.5,39.6,40.0,43.3,40.9,2.0
54.0,39.3,40.2,42.3,40.6,1.5
54.5,39.0,40.1,41.8,40.3,1.4
55.0,38.4,39.5,41.8,39.9,1.8
55.5,38.1,39.1,41.7,39.6,1.9
56.0,38.3,39.1,41.2,39.5,1.5
56.5,38.4,39.1,41.1,39.5,1.4
57.0,37.6,38.5,41.1,39.1,1.9
57.5,37.8,38.5,41.2,39.2,1.8
58.0,37.6,37.5,40.6,38.6,1.8
58.5,38.0,37.0,40.2,38.4,1.7
59.0,38.0,36.4,40.2,38.2,1.9
59.5,37.5,36.6,39.8,38.0,1.7
60.0,37.3,36.2,39.2,37.6,1.5
60.5,37.0,35.2,39.3,37.2,2.0
61.0,36.7,35.0,39.1,36.9,2.0
61.5,36.1,34.5,39.2,36.6,2.4
62.0,35.9,34.1,38.7,36.2,2.3
62.5,34.9,33.2,38.9,35.7,2.9
63.0,35.0,32.9,38.9,35.6,3.1
63.5,35.2,33.0,38.3,35.5,2.7
64.0,34.3,32.8,37.8,34.9,2.6
64.5,34.0,32.6,37.7,34.8,2.6
65.0,34.2,32.3,36.9,34.5,2.3
65.5,34.0,31.9,37.4,34.4,2.8
66.0,33.6,31.9,36.4,34.0,2.3
66.5,33.6,31.6,36.2,33.8,2.3
67.0,33.5,31.4,36.3,33.7,2.5
67.5,33.0,31.3,35.7,33.3,2.2
68.0,32.9,30.8,35.3,33.0,2.2
68.5,32.2,31.1,35.1,32.8,2.1
69.0,32.2,30.3,34.8,32.4,2.2
69.5,32.1,30.1,35.0,32.4,2.4
70.0,32.3,29.8,33.9,32.0,2.1
70.5,31.8,29.6,34.3,31.9,2.3
71.0,31.1,28.9,34.0,31.3,2.6
71.5,31.2,29.0,33.7,31.3,2.3
72.0,31.0,28.4,32.6,30.7,2.1
72.5,30.5,28.2,33.4,30.7,2.6
73.0,30.3,28.1,33.0,30.5,2.4
73.5,30.1,27.5,32.6,30.1,2.5
74.0,29.5,27.0,31.9,29.5,2.4
74.5,28.9,26.8,31.6,29.1,2.4
75.0,28.7,27.0,31.3,29.0,2.2
75.5,28.7,27.1,30.8,28.9,1.9
76.0,28.5,26.9,30.2,28.5,1.7
76.5,28.0,26.7,30.3,28.3,1.8
77.0,27.0,26.2,29.9,27.7,2.0
77.5,26.8,26.1,29.7,27.5,1.9
78.0,26.2,25.8,29.0,27.0,1.8
78.5,25.9,25.8,28.9,26.8,1.7
79.0,25.8,25.6,28.3,26.5,1.5
79.5,25.4,25.6,28.0,26.3,1.4
80.0,25.5,25.4,27.1,26.0,0.9
80.5,24.7,25.6,26.5,25.6,0.9
81.0,24.7,25.4,26.5,25.6,0.9
81.5,23.8,25.4,26.5,25.2,1.3
82.0,23.3,25.6,25.6,24.9,1.3
82.5,23.0,25.3,25.5,24.6,1.4
83.0,22.6,25.2,25.4,24.4,1.6
83.5,22.1,25.4,25.1,24.2,1.8
84.0,21.6,25.2,24.7,23.9,2.0
84.5,21.1,25.3,24.3,23.6,2.2
85.0,20.8,25.2,24.0,23.3,2.3
85.5,20.7,25.4,23.6,23.2,2.3
86.0,20.6,25.4,23.3,23.1,2.4
86.5,20.0,24.7,22.7,22.5,2.3
87.0,19.5,24.6,22.4,22.2,2.6
87.5,19.5,23.8,22.4,21.9,2.2
88.0,19.4,24.1,22.0,21.8,2.4
88.5,19.1,23.0,21.6,21.2,1.9
89.0,19.3,22.7,21.6,21.2,1.7
89.5,18.7,22.9,21.3,21.0,2.1
90.0,18.6,23.0,20.4,20.7,2.3
90.5,18.3,22.0,20.2,20.2,1.9
91.0,18.0,21.7,19.9,19.9,1.9
91.5,17.6,21.6,19.3,19.5,2.0
92.0,17.3,21.2,18.9,19.1,2.0
92.5,17.3,20.8,18.6,18.9,1.8
93.0,17.5,20.8,18.3,18.8,1.7
93.5,17.2,20.3,18.1,18.6,1.6
94.0,17.0,20.1,17.7,18.2,1.6
94.5,16.8,19.8,17.4,18.0,1.6
95.0,16.7,19.8,17.1,17.9,1.7
95.5,16.5,19.5,16.8,17.6,1.7
96.0,16.1,18.8,16.5,17.1,1.4
96.5,15.8,18.7,16.2,16.9,1.6
97.0,15.8,18.0,16.1,16.6,1.2
97.5,15.6,18.1,15.7,16.5,1.4
98.0,15.5,17.6,15.2,16.1,1.3
98.5,15.2,17.2,14.6,15.7,1.4
99.0,15.1,17.0,14.6,15.6,1.3
99.5,15.1,16.5,14.1,15.2,1.2
100.0,14.9,16.3,13.9,15.1,1.2
100.5,15.1,16.2,13.5,14.9,1.4
101.0,14.7,16.1,13.4,14.7,1.4
101.5,14.6,15.4,13.2,14.4,1.1
102.0,14.6,15.2,12.8,14.2,1.2
102.5,14.4,14.8,12.8,14.0,1.1
103.0,14.2,14.7,12.7,13.9,1.0
103.5,14.2,14.2,12.8,13.7,0.8