Folder: fsri_materials_database/01_Data/Vinyl_Plank_Flooring/Cone (part 2)

File: Vinyl_Plank_Flooring_HRRPUA_75.csv
Time after Ignition,Vinyl_Plank_Flooring_R1,Vinyl_Plank_Flooring_R2,Vinyl_Plank_Flooring_R3,Mean,Std. Dev.
0.0,6.6,10.4,35.0,17.4,15.4
0.25,19.1,27.5,44.0,30.2,12.7
0.5,29.9,42.5,51.2,41.2,10.7
0.75,40.0,55.2,58.6,51.3,9.9
1.0,48.2,67.9,65.7,60.6,10.8
1.25,73.0,75.5,70.8,73.1,2.4
1.5,97.5,109.2,90.9,99.2,9.3
1.75,116.1,137.4,112.5,122.0,13.5
2.0,130.9,165.3,130.1,142.1,20.1
2.25,154.9,183.4,144.1,160.8,20.3
2.5,175.9,199.9,167.9,181.2,16.7
2.75,196.5,227.1,199.1,207.6,17.0
3.0,220.4,265.1,220.1,235.2,25.9
3.25,240.4,289.2,244.5,258.0,27.1
3.5,260.4,315.1,267.3,281.0,29.8
3.75,275.6,346.3,297.0,306.3,36.3
4.0,290.1,373.1,310.8,324.6,43.2
4.25,302.2,395.8,333.5,343.8,47.6
4.5,322.4,413.8,349.2,361.8,47.0
4.75,331.6,425.0,362.3,373.0,47.6
5.0,336.6,441.5,374.6,384.2,53.1
5.25,353.7,454.0,382.9,396.8,51.6
5.5,355.4,455.0,397.2,402.5,50.0
5.75,379.2,464.7,404.2,416.0,43.9
6.0,373.8,469.7,414.8,419.4,48.1
6.25,383.7,498.2,417.7,433.2,58.8
6.5,396.6,497.7,421.6,438.6,52.7
6.75,395.8,500.6,438.0,444.8,52.7
7.0,393.1,530.5,434.9,452.8,70.5
7.25,408.5,515.9,433.1,452.5,56.3
7.5,413.6,528.3,449.5,463.8,58.7
7.75,410.0,521.8,457.7,463.2,56.1
8.0,426.2,535.2,460.7,474.1,55.7
8.25,415.1,533.5,461.6,470.0,59.7
8.5,415.8,536.5,453.9,468.7,61.7
8.75,420.2,525.9,460.0,468.7,53.4
9.0,436.3,554.8,464.2,485.1,62.0
9.25,430.1,544.4,463.0,479.2,58.8
9.5,438.9,550.6,460.0,483.1,59.3
9.75,436.0,552.1,455.7,481.3,62.2
10.0,446.0,558.5,459.1,487.9,61.5
10.25,445.3,551.9,472.4,489.9,55.4
10.5,445.6,568.8,473.5,496.0,64.6
10.75,464.2,568.8,480.4,504.5,56.3
11.0,457.9,571.4,483.1,504.1,59.6
11.25,453.0,557.0,473.1,494.3,55.2
11.5,464.0,568.7,490.4,507.7,54.5
11.75,462.7,575.6,492.3,510.2,58.6
12.0,468.1,576.8,510.9,518.6,54.7
12.25,468.4,567.5,492.3,509.4,51.7
12.5,476.1,602.2,505.0,527.8,66.1
12.75,490.7,588.4,504.2,527.8,53.0
13.0,468.5,591.8,498.0,519.4,64.4
13.25,483.6,604.3,513.2,533.7,62.9
13.5,474.1,617.9,511.8,534.6,74.6
13.75,478.6,599.1,522.6,533.4,61.0
14.0,468.3,609.0,510.6,529.3,72.2
14.25,481.8,601.3,513.1,532.1,62.0
14.5,472.9,615.5,512.3,533.5,73.6
14.75,478.8,595.9,514.9,529.9,60.0
15.0,483.1,606.7,524.9,538.2,62.9
15.25,496.4,621.6,509.1,542.4,68.9
15.5,493.1,624.6,521.0,546.2,69.3
15.75,485.8,606.6,522.8,538.4,61.9
16.0,474.2,624.4,533.1,543.9,75.7
16.25,488.8,628.4,524.9,547.4,72.5
16.5,474.1,640.0,519.7,544.6,85.7
16.75,476.5,619.8,545.9,547.4,71.7
17.0,479.1,604.0,535.7,539.6,62.5
17.25,478.0,616.0,510.1,534.7,72.2
17.5,486.7,603.8,518.3,536.3,60.6
17.75,477.9,600.6,524.3,534.3,62.0
18.0,459.4,621.6,528.7,536.5,81.4
18.25,464.4,610.6,518.3,531.1,73.9
18.5,463.6,606.8,512.9,527.8,72.7
18.75,453.7,590.9,516.7,520.4,68.6
19.0,454.8,599.5,508.2,520.8,73.2
19.25,448.8,612.6,514.1,525.2,82.5
19.5,450.7,601.5,512.9,521.7,75.8
19.75,451.1,588.2,510.2,516.5,68.8
20.0,437.4,579.6,506.9,508.0,71.1
20.25,439.2,567.5,481.7,496.1,65.4
20.5,446.0,587.0,497.9,510.3,71.4
20.75,448.9,569.7,495.6,504.8,60.9
21.0,442.3,566.1,484.7,497.7,63.0
21.25,438.2,561.7,503.1,501.0,61.8
21.5,443.5,559.1,498.8,500.5,57.8
21.75,436.9,548.3,493.3,492.8,55.7
22.0,436.0,543.0,504.3,494.4,54.2
22.25,429.8,522.1,491.8,481.2,47.0
22.5,432.9,529.5,498.9,487.1,49.4
22.75,435.5,515.0,499.7,483.4,42.2
23.0,439.9,521.3,499.0,486.8,42.1
23.25,430.4,514.1,503.1,482.5,45.4
23.5,436.5,499.1,496.3,477.3,35.4
23.75,438.8,494.9,505.9,479.9,36.0
24.0,437.3,489.7,494.4,473.8,31.7
24.25,434.4,485.1,495.9,471.8,32.8
24.5,429.3,480.8,506.5,472.2,39.3
24.75,434.6,484.2,509.6,476.1,38.2
25.0,435.2,464.6,500.8,466.9,32.9
25.25,422.3,459.3,497.4,459.7,37.5
25.5,429.4,455.2,489.2,457.9,30.0
25.75,424.3,454.7,500.4,459.8,38.3
26.0,431.5,446.8,497.5,458.6,34.6
26.25,426.2,432.8,494.6,451.2,37.7
26.5,426.1,423.0,483.1,444.1,33.8
26.75,420.4,421.0,477.1,439.5,32.6
27.0,413.6,412.8,475.5,434.0,36.0
27.25,416.5,407.8,488.5,437.6,44.3
27.5,422.3,399.8,474.5,432.2,38.3
27.75,428.9,390.7,463.9,427.8,36.6
28.0,417.0,385.7,471.5,424.7,43.4
28.25,416.4,386.7,463.5,422.2,38.7
28.5,421.7,375.7,456.8,418.1,40.7
28.75,417.0,367.9,455.0,413.3,43.7
29.0,411.5,364.4,442.7,406.2,39.4
29.25,423.5,360.1,445.4,409.7,44.3
29.5,415.5,354.5,438.7,402.9,43.5
29.75,417.1,345.5,423.2,395.2,43.2
30.0,406.7,345.3,435.1,395.7,45.9
30.25,415.2,338.5,428.3,394.0,48.5
30.5,404.9,344.0,423.0,390.6,41.4
30.75,401.1,327.9,421.2,383.4,49.1
31.0,399.1,317.9,411.4,376.1,50.9
31.25,398.5,314.7,400.0,371.1,48.8
31.5,396.0,315.9,400.6,370.8,47.6
31.75,384.7,305.7,396.4,362.3,49.3
32.0,385.2,300.7,385.4,357.1,48.9
32.25,378.6,297.0,374.6,350.0,46.0
32.5,372.4,286.0,370.1,342.8,49.2
32.75,374.7,277.6,377.4,343.3,56.8
33.0,367.1,275.5,361.1,334.6,51.2
33.25,363.6,271.3,358.7,331.2,51.9
33.5,354.0,264.1,349.9,322.7,50.7
33.75,355.2,258.7,338.1,317.3,51.5
34.0,353.6,247.3,334.4,311.8,56.6
34.25,352.6,247.1,336.3,312.0,56.8
34.5,338.2,235.6,332.0,301.9,57.5
34.75,337.7,232.5,324.7,298.3,57.4
35.0,333.3,228.6,322.7,294.9,57.6
35.25,331.4,223.0,323.0,292.5,60.3
35.5,323.6,218.4,309.8,284.0,57.2
35.75,321.0,210.8,306.2,279.3,59.8
36.0,315.9,208.8,299.8,274.8,57.7
36.25,306.6,201.6,301.2,269.8,59.1
36.5,305.7,199.3,299.1,268.0,59.6
36.75,299.0,190.3,290.5,259.9,60.5
37.0,300.3,186.1,286.4,257.6,62.3
37.25,290.0,184.4,274.1,249.5,56.9
37.5,282.1,180.5,277.0,246.5,57.2
37.75,275.3,174.4,274.1,241.3,57.9
38.0,268.7,170.9,264.2,234.6,55.2
38.25,267.1,164.9,261.8,231.3,57.5
38.5,259.2,161.0,256.2,225.5,55.8
38.75,253.1,158.4,252.5,221.3,54.5
39.0,245.1,157.6,248.3,217.0,51.5
39.25,245.4,152.7,237.5,211.9,51.4
39.5,240.9,143.8,234.4,206.4,54.3
39.75,235.2,140.2,225.3,200.2,52.2
40.0,229.9,136.5,222.5,196.3,51.9
40.25,223.0,131.1,210.8,188.3,49.9
40.5,218.8,129.4,205.5,184.6,48.2
40.75,214.1,126.5,195.5,178.7,46.1
41.0,210.5,121.6,190.7,174.3,46.7
41.25,207.8,116.7,189.9,171.5,48.2
41.5,205.3,115.0,186.0,168.8,47.5
41.75,196.9,112.5,179.1,162.8,44.5
42.0,195.0,110.1,163.8,156.3,42.9
42.25,190.5,105.5,162.7,152.9,43.3
42.5,187.9,103.1,160.7,150.6,43.3
42.75,181.2,101.2,161.2,147.8,41.6
43.0,177.8,98.3,154.9,143.7,41.0
43.25,170.9,96.7,148.1,138.6,38.0
43.5,166.6,94.6,147.3,136.2,37.3
43.75,164.1,91.1,144.6,133.3,37.8
44.0,156.3,88.5,140.6,128.4,35.5
44.25,153.6,86.5,134.8,125.0,34.6
44.5,152.2,83.4,129.8,121.8,35.1
44.75,151.2,83.7,126.1,120.3,34.1
45.0,146.7,80.7,120.5,116.0,33.2
45.25,141.9,78.9,119.1,113.3,31.9
45.5,137.2,77.0,117.3,110.5,30.7
45.75,134.2,75.8,112.1,107.4,29.5
46.0,128.2,72.6,108.1,103.0,28.1
46.25,125.6,70.5,106.2,100.8,28.0
46.5,121.8,69.8,103.8,98.5,26.4
46.75,119.2,67.0,100.3,95.5,26.4
47.0,116.1,65.2,95.6,92.3,25.6
47.25,111.8,62.9,92.7,89.1,24.7
47.5,107.4,62.4,90.3,86.7,22.7
47.75,105.9,61.0,91.0,86.0,22.9
48.0,101.3,59.3,86.9,82.5,21.3
48.25,102.5,57.9,83.5,81.3,22.3
48.5,99.2,55.9,81.8,79.0,21.8
48.75,93.2,55.3,79.8,76.1,19.2
49.0,92.6,53.9,78.8,75.1,19.6
49.25,92.1,52.0,77.9,74.0,20.4
49.5,88.5,51.6,75.5,71.8,18.7
49.75,86.4,,72.6,79.5,9.7
50.0,85.5,,73.0,79.3,8.8
50.25,83.1,,70.8,77.0,8.7
50.5,82.0,,69.0,75.5,9.2
50.75,79.0,,68.4,73.7,7.5
51.0,78.0,,68.5,73.3,6.7
51.25,77.0,,70.0,73.5,5.0
51.5,75.7,,67.1,71.4,6.0
51.75,71.9,,66.0,69.0,4.1
52.0,70.5,,64.4,67.4,4.3
52.25,68.7,,63.6,66.1,3.6
52.5,67.7,,62.1,64.9,3.9
52.75,66.7,,60.5,63.6,4.4
53.0,64.6,,60.4,62.5,3.0
53.25,63.5,,58.5,61.0,3.5
53.5,61.4,,57.8,59.6,2.5
53.75,60.6,,57.3,59.0,2.3
54.0,59.0,,56.0,57.5,2.1
54.25,57.4,,55.1,56.2,1.6
54.5,55.8,,54.8,55.3,0.7
54.75,55.2,,53.3,54.2,1.3
55.0,54.2,,52.8,53.5,1.0
55.25,54.0,,52.3,53.2,1.2
55.5,51.9,,52.4,52.1,0.3
55.75,51.1,,51.5,51.3,0.3
56.0,50.7,,51.3,51.0,0.4
56.25,49.6,,50.3,49.9,0.5
56.5,48.3,,49.7,49.0,1.0
56.75,47.6,,49.3,48.4,1.2
57.0,47.1,,49.2,48.1,1.5
57.25,45.9,,49.6,47.7,2.6
57.5,45.3,,48.6,46.9,2.3
57.75,44.9,,48.4,46.6,2.5
58.0,44.3,,48.3,46.3,2.8
58.25,44.0,,47.5,45.7,2.5
58.5,42.2,,46.9,44.5,3.4
58.75,42.6,,46.7,44.6,2.9
59.0,41.6,,45.7,43.6,2.9
59.25,41.2,,45.1,43.1,2.8
59.5,40.6,,44.5,42.5,2.8