Folder: fsri_materials_database/01_Data/Vinyl_Plank_Flooring/Cone

Note: README.md
# Materials and Products Database
### Repository of materials and products properties and fire test data to improve fire modeling and fire investigation.

This project was supported in part by Award No. 2019-DU-BX-0018, awarded by the National Institute of Justice, Office of Justice Programs, U.S. Department of Justice. The opinions, findings, and conclusions or recommendations expressed in this publication / program / exhibition are those of the author(s) and do not necessarily reflect those of the Department of Justice.

***
***

__Cite this database:__ "McKinnon, M., Weinschenk, C., Dow, N., DiDomizio, M., and Madrzykowski, D. Materials and Products Database (Version 1.0.0), Fire Safety Research Institute, UL Research Institutes. Columbia, MD 21045, 2023."

__Cite the Technical Reference Guide:__ "McKinnon, M., Weinschenk, C., and Madrzykowski, D. Materials and Products Database - Technical Reference Guide, Fire Safety Research Institute, UL Research Institutes. Columbia, MD 21045, 2023."

__Cite the User Guide:__ "McKinnon, M., and Weinschenk, C. Materials and Products Database - User Guide, Fire Safety Research Institute, UL Research Institutes. Columbia, MD 21045, 2023."

***
***

## Database Structure

## 01_Data/
Raw data generated from each apparatus are included here in plain-text format. The data is organized first by material, next by the short name of test apparatus used, and where applicable additional filtering by test settings.

### Test Apparatus and Data File Structure
- __Cone Calorimeter__ (Cone)
    + Data file structure includes the material, the short name for the apparatus, heat flux setting and scan/scalar, date of test, and replicate number. Scan is for the raw output data and scalar is for the initial conditions and high-level test parameters. 
        * Example: __MDF_Cone_HF25scalar_210323_R1__ stands for the first replicate of scalar data generated from a medium density fiber board test in cone calorimeter exposed to 25 kW/m<sup>2</sup> on March 23, 2021.
    + A _Cone_Notes.csv_ is generated for each material from the __plot_Cone_data.py__ script. For materials whose experiments deviated from typical behavior relevant pictures are included in the respective material directory.
- __Fourier Transform Infrared Spectrometer__ (FTIR)
    + The FTIR directory contains subdirectories for the Attenuated Total Reflectance method (ATR) and the Integrating Sphere (IS)
    + Data file structure for the ATR experiment files includes the material, the abbreviated name for the apparatus, date of test, and replicate number. 
        * Example: __MDF_ATR_210323_R5__ stands for the fifth replicate of data collected with the ATR accessory conducted on June 8, 2021.
    + Data file structure for the IS experiment files includes the material, the abbreviated name for the apparatus, the measurand, whether the test is a sample measurement or standard reference, date of test, and replicate number.
        * Example: __OSB_IS_REFLECT_MEAS_2

File: Vinyl_Plank_Flooring_HRRPUA_25.csv
Time after Ignition,Vinyl_Plank_Flooring_R1,Vinyl_Plank_Flooring_R2,Vinyl_Plank_Flooring_R3,Mean,Std. Dev.
0.0,18.5,14.7,5.8,13.0,6.5
0.5,25.4,23.1,8.3,18.9,9.3
1.0,35.9,34.7,14.7,28.4,11.9
1.5,50.1,63.3,20.1,44.5,22.1
2.0,61.1,86.4,26.3,57.9,30.1
2.5,86.6,116.8,35.5,79.6,41.1
3.0,105.6,149.5,50.8,101.9,49.5
3.5,132.8,177.2,69.7,126.6,54.0
4.0,157.8,202.8,93.8,151.5,54.8
4.5,171.1,235.5,117.2,174.6,59.3
5.0,194.5,254.0,138.6,195.7,57.7
5.5,218.6,266.5,168.2,217.7,49.1
6.0,231.8,284.5,197.2,237.8,43.9
6.5,247.5,294.9,218.5,253.6,38.6
7.0,256.6,304.0,238.9,266.5,33.7
7.5,267.6,302.6,250.1,273.4,26.7
8.0,267.9,307.1,263.8,279.6,23.9
8.5,275.9,303.3,275.7,285.0,15.9
9.0,272.2,294.3,284.4,283.6,11.1
9.5,271.0,287.5,287.9,282.1,9.6
10.0,267.0,285.4,284.6,279.0,10.4
10.5,265.9,286.8,279.1,277.3,10.6
11.0,270.3,277.2,271.8,273.1,3.6
11.5,264.0,278.7,278.4,273.7,8.4
12.0,266.3,270.9,266.4,267.9,2.7
12.5,262.2,268.4,268.6,266.4,3.7
13.0,264.3,269.7,260.5,264.8,4.6
13.5,260.7,271.0,258.5,263.4,6.7
14.0,262.3,272.5,260.4,265.0,6.5
14.5,265.2,271.9,261.4,266.2,5.3
15.0,268.2,274.7,260.3,267.8,7.2
15.5,270.0,284.5,257.3,270.6,13.6
16.0,270.7,287.5,263.9,274.0,12.1
16.5,274.7,290.8,263.5,276.4,13.7
17.0,278.3,299.1,262.1,279.8,18.6
17.5,274.9,301.7,261.8,279.5,20.4
18.0,282.2,304.9,272.3,286.5,16.7
18.5,276.0,311.4,268.5,285.3,22.9
19.0,278.6,316.2,268.6,287.8,25.1
19.5,278.2,312.7,278.5,289.8,19.9
20.0,282.2,311.5,275.8,289.9,19.0
20.5,282.6,324.8,276.9,294.8,26.2
21.0,274.6,318.9,282.2,291.9,23.7
21.5,279.6,322.3,273.6,291.8,26.5
22.0,279.3,330.1,282.5,297.3,28.4
22.5,272.4,325.9,281.1,293.1,28.7
23.0,276.6,338.1,285.0,299.9,33.4
23.5,279.2,337.5,277.5,298.1,34.1
24.0,281.9,332.8,285.8,300.2,28.3
24.5,268.9,338.4,292.6,299.9,35.3
25.0,271.0,339.5,290.7,300.4,35.3
25.5,269.9,332.0,298.2,300.1,31.1
26.0,267.4,338.9,295.6,300.6,36.0
26.5,264.5,329.3,296.2,296.7,32.4
27.0,261.1,327.7,297.9,295.5,33.4
27.5,262.3,328.9,296.6,295.9,33.3
28.0,261.7,320.7,303.4,295.3,30.3
28.5,257.9,330.4,303.8,297.4,36.7
29.0,256.2,324.8,297.6,292.9,34.6
29.5,254.4,319.4,300.4,291.4,33.4
30.0,251.9,324.3,301.7,292.6,37.1
30.5,249.0,309.6,305.7,288.1,33.9
31.0,250.4,302.3,300.3,284.3,29.4
31.5,252.3,291.8,294.6,279.5,23.6
32.0,258.8,300.9,293.9,284.5,22.6
32.5,249.3,300.8,296.6,282.2,28.6
33.0,254.3,297.3,288.1,279.9,22.6
33.5,249.2,289.8,288.5,275.8,23.0
34.0,248.3,285.9,284.8,273.0,21.4
34.5,244.9,290.5,281.6,272.4,24.1
35.0,241.0,289.0,279.3,269.8,25.4
35.5,245.7,282.3,275.1,267.7,19.4
36.0,237.1,281.6,274.7,264.4,23.9
36.5,233.4,288.3,269.4,263.7,27.9
37.0,238.1,289.3,271.0,266.1,25.9
37.5,231.2,283.8,267.2,260.8,26.9
38.0,227.4,284.3,263.4,258.4,28.8
38.5,231.0,284.7,264.2,260.0,27.1
39.0,233.1,288.1,262.2,261.1,27.5
39.5,226.3,274.3,262.2,254.2,25.0
40.0,223.7,284.1,272.2,260.0,32.0
40.5,226.7,278.7,272.0,259.1,28.3
41.0,221.7,282.3,271.3,258.5,32.3
41.5,223.4,277.8,265.8,255.7,28.6
42.0,220.6,276.0,265.6,254.1,29.5
42.5,220.8,277.6,273.6,257.3,31.7
43.0,221.6,272.9,270.0,254.8,28.8
43.5,225.9,270.7,270.3,255.6,25.8
44.0,223.4,266.3,266.5,252.1,24.8
44.5,220.6,258.4,267.4,248.8,24.9
45.0,224.7,262.5,268.3,251.8,23.7
45.5,222.3,257.3,263.1,247.6,22.1
46.0,225.0,254.8,263.6,247.8,20.2
46.5,224.3,255.8,259.1,246.4,19.2
47.0,220.4,252.1,255.2,242.6,19.2
47.5,217.5,251.2,254.7,241.1,20.5
48.0,218.4,242.1,252.1,237.5,17.3
48.5,223.1,237.1,248.0,236.1,12.5
49.0,218.1,232.5,242.8,231.1,12.4
49.5,215.6,228.4,241.1,228.4,12.7
50.0,218.7,218.6,237.3,224.9,10.8
50.5,213.2,211.7,229.2,218.1,9.7
51.0,212.3,211.8,231.0,218.4,10.9
51.5,212.3,199.2,225.3,212.3,13.0
52.0,204.8,196.7,216.9,206.1,10.2
52.5,204.2,190.8,218.0,204.3,13.6
53.0,204.5,183.5,218.0,202.0,17.4
53.5,200.3,180.1,213.5,197.9,16.8
54.0,198.6,175.2,204.9,192.9,15.6
54.5,198.0,168.0,203.3,189.8,19.1
55.0,193.0,163.1,198.4,184.8,19.0
55.5,189.1,161.9,195.4,182.1,17.8
56.0,188.6,158.0,192.0,179.5,18.8
56.5,182.1,149.7,187.8,173.2,20.5
57.0,179.3,146.9,181.6,169.3,19.4
57.5,174.9,142.7,180.4,166.0,20.4
58.0,172.9,138.2,172.9,161.3,20.1
58.5,168.4,134.6,167.9,156.9,19.3
59.0,162.1,132.6,161.7,152.1,16.9
59.5,161.7,129.7,154.6,148.6,16.8
60.0,157.2,128.2,148.4,144.6,14.9
60.5,154.7,125.6,144.5,141.6,14.7
61.0,151.1,125.1,140.3,138.9,13.1
61.5,144.9,120.9,137.9,134.6,12.4
62.0,143.3,119.2,135.5,132.7,12.3
62.5,140.8,119.0,133.9,131.2,11.1
63.0,138.4,114.4,129.6,127.5,12.2
63.5,132.6,112.6,128.3,124.5,10.6
64.0,133.8,110.4,128.3,124.2,12.2
64.5,132.5,106.6,123.4,120.8,13.2
65.0,134.2,102.7,120.7,119.2,15.8
65.5,129.3,99.2,118.7,115.7,15.3
66.0,128.3,97.6,116.8,114.2,15.5
66.5,126.8,93.1,115.7,111.9,17.2
67.0,126.6,88.5,109.3,108.1,19.1
67.5,125.9,86.6,108.6,107.0,19.7
68.0,124.3,84.6,105.7,104.9,19.8
68.5,121.0,81.2,105.0,102.4,20.0
69.0,118.9,78.2,101.1,99.4,20.4
69.5,120.4,76.0,101.8,99.4,22.3
70.0,118.5,71.6,97.3,95.8,23.5
70.5,115.7,70.2,95.9,93.9,22.8
71.0,112.8,68.0,92.0,90.9,22.4
71.5,113.1,66.5,91.7,90.4,23.3
72.0,109.4,63.2,87.3,86.7,23.1
72.5,107.0,61.9,83.8,84.2,22.5
73.0,105.5,58.4,82.4,82.1,23.6
73.5,102.7,57.2,78.6,79.5,22.8
74.0,103.6,55.6,77.3,78.8,24.1
74.5,100.4,53.9,73.6,76.0,23.3
75.0,99.5,51.1,73.2,74.6,24.2
75.5,98.4,48.9,70.8,72.7,24.8
76.0,96.3,45.8,68.2,70.1,25.3
76.5,97.3,43.7,66.0,69.0,27.0
77.0,94.5,41.2,64.1,66.6,26.7
77.5,94.2,38.6,62.8,65.2,27.9
78.0,93.3,,61.0,77.2,22.8
78.5,89.9,,58.6,74.2,22.1
79.0,86.2,,56.6,71.4,20.9
79.5,84.1,,54.3,69.2,21.1
80.0,81.5,,52.4,66.9,20.6
80.5,78.8,,50.4,64.6,20.1
81.0,77.2,,48.3,62.7,20.4
81.5,71.9,,46.4,59.1,18.0
82.0,70.8,,44.1,57.4,18.8
82.5,68.4,,43.2,55.8,17.8
83.0,66.7,,41.0,53.9,18.2
83.5,64.8,,40.2,52.5,17.4
84.0,63.1,,38.7,50.9,17.2
84.5,60.4,,37.5,48.9,16.2
85.0,58.7,,35.5,47.1,16.4
85.5,57.8,,34.1,46.0,16.7
86.0,54.9,,33.3,44.1,15.2
86.5,52.6,,31.8,42.2,14.7
87.0,50.4,,,50.4,
87.5,48.9,,,48.9,
88.0,47.0,,,47.0,
88.5,45.0,,,45.0,
89.0,44.6,,,44.6,
89.5,42.2,,,42.2,
90.0,41.5,,,41.5,
90.5,39.7,,,39.7,
91.0,37.9,,,37.9,
91.5,36.5,,,36.5,
92.0,34.9,,,34.9,
92.5,33.2,,,33.2,
93.0,32.0,,,32.0,
93.5,30.6,,,30.6,
94.0,29.1,,,29.1,
94.5,28.1,,,28.1,
95.0,26.7,,,26.7,
95.5,26.1,,,26.1,
96.0,25.6,,,25.6,
96.5,24.3,,,24.3,
97.0,24.3,,,24.3,
97.5,23.5,,,23.5,
98.0,23.1,,,23.1,
98.5,22.8,,,22.8,
99.0,22.6,,,22.6,
99.5,22.2,,,22.2,
100.0,22.6,,,22.6,
100.5,21.9,,,21.9,
101.0,20.8,,,20.8,
101.5,20.2,,,20.2,
102.0,19.5,,,19.5,
102.5,19.2,,,19.2,
103.0,19.0,,,19.0,
103.5,18.2,,,18.2,
104.0,18.2,,,18.2,
104.5,17.9,,,17.9,
105.0,17.9,,,17.9,
105.5,17.1,,,17.1,
106.0,16.8,,,16.8,
106.5,16.1,,,16.1,
106.75,15.8,,,15.8,

File: Vinyl_Plank_Flooring_HRRPUA_50.csv
Time after Ignition,Vinyl_Plank_Flooring_R1,Vinyl_Plank_Flooring_R2,Vinyl_Plank_Flooring_R3,Mean,Std. Dev.
0.0,11.9,13.4,13.3,12.8,0.8
0.25,12.7,17.9,15.9,15.5,2.6
0.5,20.4,21.5,18.5,20.1,1.5
0.75,28.5,25.0,37.0,30.2,6.2
1.0,33.4,39.4,52.5,41.8,9.8
1.25,39.7,53.0,64.5,52.4,12.4
1.5,58.2,62.1,75.3,65.2,9.0
1.75,76.8,68.9,104.4,83.4,18.6
2.0,95.0,76.9,127.0,99.6,25.3
2.25,105.9,104.0,148.8,119.6,25.4
2.5,137.6,130.2,165.4,144.4,18.6
2.75,163.2,150.2,196.0,169.8,23.6
3.0,193.4,165.7,220.5,193.2,27.4
3.25,213.2,182.0,236.9,210.7,27.5
3.5,234.1,179.8,267.3,227.0,44.2
3.75,250.3,207.8,282.8,247.0,37.6
4.0,264.9,232.5,300.6,266.0,34.1
4.25,283.7,251.5,316.3,283.8,32.4
4.5,297.6,270.8,337.3,301.9,33.5
4.75,314.7,290.9,343.3,316.3,26.2
5.0,322.6,301.0,350.6,324.7,24.9
5.25,329.0,315.6,358.7,334.4,22.1
5.5,348.3,325.7,374.8,349.6,24.6
5.75,350.0,339.7,382.5,357.4,22.4
6.0,355.3,343.0,384.7,361.0,21.5
6.25,356.5,345.8,400.4,367.5,28.9
6.5,361.8,356.9,394.4,371.1,20.4
6.75,369.9,368.3,405.1,381.1,20.8
7.0,369.7,375.4,402.7,382.6,17.6
7.25,377.4,379.2,401.6,386.1,13.5
7.5,368.5,377.0,402.5,382.7,17.7
7.75,374.2,379.0,407.3,386.8,17.9
8.0,371.2,384.4,410.1,388.6,19.8
8.25,365.8,389.3,413.8,389.6,24.0
8.5,373.6,377.7,408.9,386.7,19.3
8.75,362.1,381.9,409.1,384.4,23.6
9.0,369.9,383.3,413.3,388.8,22.2
9.25,371.5,377.7,416.0,388.4,24.1
9.5,365.2,384.7,414.1,388.0,24.6
9.75,372.7,388.1,417.6,392.8,22.8
10.0,366.7,373.5,419.3,386.5,28.6
10.25,371.8,378.2,422.5,390.8,27.6
10.5,370.2,367.5,424.6,387.4,32.2
10.75,370.2,367.5,412.3,383.3,25.2
11.0,375.4,366.9,421.9,388.0,29.6
11.25,365.5,368.5,415.9,383.3,28.3
11.5,365.4,374.6,417.2,385.8,27.6
11.75,371.5,364.0,421.3,385.6,31.2
12.0,371.5,363.1,414.4,383.0,27.5
12.25,374.2,368.7,422.1,388.3,29.4
12.5,364.5,366.9,416.6,382.7,29.4
12.75,362.9,359.9,412.8,378.5,29.7
13.0,378.3,363.9,426.0,389.4,32.5
13.25,374.4,367.7,412.8,385.0,24.3
13.5,371.8,359.6,425.5,385.6,35.0
13.75,368.9,369.1,433.6,390.5,37.3
14.0,368.1,366.6,433.2,389.3,38.0
14.25,385.0,366.3,427.9,393.1,31.6
14.5,375.7,363.7,430.0,389.8,35.3
14.75,381.3,366.5,435.8,394.5,36.5
15.0,383.4,365.7,439.7,396.3,38.6
15.25,377.9,374.6,447.1,399.9,41.0
15.5,386.0,374.1,453.3,404.5,42.7
15.75,382.7,382.3,453.2,406.1,40.8
16.0,397.6,371.2,434.5,401.1,31.8
16.25,395.5,382.2,453.9,410.5,38.1
16.5,395.2,381.5,462.9,413.2,43.6
16.75,396.6,376.2,465.6,412.8,46.8
17.0,399.4,385.2,474.0,419.5,47.7
17.25,413.4,396.6,470.8,426.9,38.9
17.5,403.1,396.3,453.7,417.7,31.4
17.75,406.2,399.7,465.9,423.9,36.5
18.0,402.4,389.3,474.1,421.9,45.6
18.25,394.1,394.5,485.8,424.8,52.8
18.5,405.6,406.8,487.8,433.4,47.1
18.75,411.8,400.0,487.5,433.1,47.5
19.0,417.6,403.9,484.8,435.4,43.3
19.25,411.3,398.4,491.9,433.9,50.7
19.5,413.3,416.4,479.5,436.4,37.4
19.75,414.6,414.1,480.3,436.3,38.1
20.0,422.6,404.4,485.8,437.6,42.7
20.25,422.4,417.4,489.1,443.0,40.0
20.5,415.4,413.6,486.0,438.3,41.3
20.75,423.5,416.7,477.2,439.1,33.1
21.0,413.8,412.5,473.0,433.1,34.5
21.25,414.1,403.8,467.7,428.5,34.3
21.5,421.7,405.4,466.3,431.2,31.5
21.75,422.3,422.5,471.9,438.9,28.5
22.0,409.6,416.7,461.7,429.3,28.3
22.25,411.4,409.4,449.2,423.3,22.4
22.5,412.9,408.0,462.9,427.9,30.4
22.75,419.8,410.5,454.7,428.3,23.3
23.0,406.7,409.5,449.8,422.0,24.1
23.25,420.5,404.6,445.1,423.4,20.4
23.5,414.2,411.3,448.4,424.6,20.7
23.75,414.5,403.9,439.7,419.4,18.4
24.0,410.2,405.4,426.3,413.9,11.0
24.25,416.5,399.2,439.8,418.5,20.4
24.5,404.3,405.8,441.5,417.2,21.1
24.75,405.9,396.0,436.5,412.8,21.1
25.0,401.0,394.8,430.8,408.9,19.3
25.25,400.9,399.1,430.6,410.2,17.7
25.5,397.5,411.9,429.3,412.9,15.9
25.75,395.0,396.5,423.4,405.0,16.0
26.0,396.5,390.5,431.1,406.1,21.9
26.25,397.0,391.0,419.9,402.7,15.3
26.5,393.4,391.0,428.3,404.2,20.9
26.75,391.4,393.7,422.5,402.5,17.4
27.0,395.5,401.0,427.5,408.0,17.1
27.25,387.1,402.4,412.6,400.7,12.8
27.5,382.6,392.9,401.7,392.4,9.6
27.75,384.6,389.6,400.8,391.7,8.3
28.0,386.5,388.3,401.8,392.2,8.4
28.25,382.9,388.7,399.6,390.4,8.4
28.5,380.7,393.2,390.0,388.0,6.5
28.75,380.5,398.5,390.0,389.7,9.0
29.0,385.4,391.6,384.0,387.0,4.0
29.25,383.6,394.1,384.9,387.5,5.8
29.5,383.0,406.6,375.1,388.2,16.4
29.75,377.4,394.5,370.1,380.7,12.5
30.0,381.1,392.2,375.0,382.8,8.7
30.25,379.6,401.2,370.8,383.9,15.6
30.5,363.7,392.2,367.2,374.4,15.5
30.75,372.4,396.3,363.6,377.4,16.9
31.0,372.4,397.4,352.4,374.1,22.6
31.25,368.1,396.9,356.5,373.8,20.8
31.5,364.7,393.8,359.0,372.5,18.7
31.75,355.6,395.1,350.1,366.9,24.6
32.0,370.9,393.3,350.3,371.5,21.5
32.25,365.4,388.8,347.4,367.2,20.8
32.5,352.0,389.3,347.3,362.9,23.0
32.75,355.5,392.6,347.4,365.2,24.1
33.0,353.7,382.7,341.6,359.3,21.1
33.25,354.2,388.3,338.5,360.3,25.5
33.5,339.6,383.8,338.6,354.0,25.8
33.75,339.0,386.2,333.5,352.9,29.0
34.0,342.4,384.3,329.9,352.2,28.5
34.25,335.8,377.9,323.6,345.8,28.5
34.5,334.9,376.2,319.2,343.4,29.5
34.75,337.0,378.4,320.9,345.4,29.6
35.0,329.6,373.5,319.6,340.9,28.7
35.25,332.2,373.7,314.9,340.3,30.2
35.5,326.1,368.5,307.2,333.9,31.4
35.75,317.4,357.9,305.1,326.8,27.6
36.0,323.5,357.0,302.4,327.7,27.5
36.25,318.4,348.4,303.0,323.3,23.1
36.5,313.5,352.0,294.8,320.1,29.1
36.75,313.0,347.6,294.8,318.5,26.8
37.0,308.4,342.5,292.2,314.4,25.7
37.25,300.6,338.9,280.8,306.8,29.5
37.5,300.0,326.3,284.4,303.6,21.2
37.75,292.3,326.3,278.8,299.1,24.5
38.0,291.9,321.8,271.2,295.0,25.5
38.25,288.9,321.4,272.0,294.1,25.1
38.5,280.0,310.1,261.1,283.7,24.7
38.75,280.5,310.3,257.6,282.8,26.4
39.0,273.7,305.3,259.7,279.5,23.3
39.25,273.5,297.5,256.8,275.9,20.4
39.5,268.5,293.0,252.2,271.2,20.5
39.75,263.6,284.6,246.5,264.9,19.0
40.0,266.4,285.9,245.1,265.8,20.4
40.25,260.7,281.2,240.1,260.7,20.5
40.5,258.4,279.7,239.7,259.3,20.0
40.75,252.1,269.1,232.2,251.1,18.4
41.0,248.3,270.2,229.8,249.4,20.3
41.25,244.0,264.8,229.3,246.0,17.8
41.5,241.6,257.5,223.2,240.7,17.2
41.75,237.6,258.8,221.6,239.3,18.7
42.0,233.1,249.6,213.9,232.2,17.9
42.25,234.3,246.8,206.9,229.3,20.4
42.5,230.5,244.0,205.0,226.5,19.8
42.75,229.2,241.7,202.1,224.4,20.3
43.0,221.7,240.7,197.1,219.8,21.9
43.25,218.5,232.5,194.1,215.0,19.4
43.5,215.9,229.5,190.8,212.1,19.6
43.75,208.9,226.7,185.7,207.1,20.6
44.0,205.1,219.8,179.7,201.5,20.3
44.25,201.4,215.0,177.3,197.9,19.1
44.5,199.2,208.6,171.1,193.0,19.5
44.75,194.7,207.3,169.3,190.4,19.4
45.0,192.5,203.8,165.0,187.1,20.0
45.25,181.0,203.9,159.2,181.4,22.3
45.5,182.5,198.9,160.0,180.5,19.5
45.75,177.0,195.4,154.7,175.7,20.4
46.0,171.6,189.2,152.4,171.1,18.4
46.25,168.8,187.9,148.7,168.5,19.6
46.5,164.4,186.3,143.3,164.7,21.5
46.75,164.7,182.9,143.5,163.7,19.7
47.0,164.2,177.9,138.3,160.2,20.1
47.25,159.6,175.5,137.7,157.6,19.0
47.5,157.9,170.7,134.2,154.3,18.5
47.75,155.7,172.8,128.8,152.4,22.2
48.0,153.5,169.3,128.8,150.5,20.4
48.25,150.1,163.9,128.6,147.6,17.8
48.5,149.8,160.9,124.4,145.0,18.7
48.75,148.9,156.5,122.0,142.5,18.1
49.0,145.2,156.9,118.4,140.2,19.7
49.25,139.6,155.2,116.5,137.1,19.5
49.5,140.1,152.3,112.3,134.9,20.5
49.75,140.5,150.1,111.5,134.0,20.1
50.0,136.6,145.2,107.2,129.7,20.0
50.25,132.7,141.4,105.2,126.4,18.9
50.5,130.6,140.1,103.7,124.8,18.9
50.75,129.3,134.0,100.9,121.4,17.9
51.0,125.5,132.0,98.2,118.6,17.9
51.25,123.7,129.6,96.3,116.6,17.7
51.5,119.8,130.1,92.3,114.1,19.6
51.75,116.1,126.1,91.1,111.1,18.1
52.0,113.1,124.3,89.3,108.9,17.9
52.25,109.0,119.4,85.4,104.6,17.4
52.5,107.6,117.3,83.2,102.7,17.6
52.75,105.8,114.7,81.9,100.8,16.9
53.0,101.4,113.6,79.3,98.1,17.4
53.25,99.1,109.3,77.6,95.3,16.2
53.5,96.2,108.6,75.1,93.3,16.9
53.75,95.1,106.5,74.1,91.9,16.5
54.0,92.2,103.5,71.1,89.0,16.5
54.25,90.2,101.5,69.8,87.2,16.0
54.5,88.3,99.4,67.1,84.9,16.4
54.75,86.9,97.4,65.6,83.3,16.2
55.0,84.9,95.2,64.0,81.4,15.9
55.25,82.8,94.4,60.7,79.3,17.1
55.5,81.6,92.7,59.5,77.9,16.9
55.75,78.8,91.0,57.2,75.7,17.1
56.0,77.8,88.8,55.7,74.1,16.8
56.25,76.5,87.0,55.0,72.8,16.3
56.5,74.4,84.1,52.8,70.4,16.0
56.75,71.6,83.1,51.1,68.6,16.2
57.0,70.0,79.0,49.9,66.3,14.9
57.25,68.7,78.5,48.1,65.1,15.5
57.5,67.4,77.4,46.6,63.8,15.7
57.75,65.3,75.3,45.2,61.9,15.3
58.0,63.2,72.4,43.5,59.7,14.8
58.25,62.5,70.0,43.2,58.6,13.8
58.5,60.4,67.8,41.6,56.6,13.5
58.75,58.4,66.4,40.4,55.1,13.3
59.0,57.2,64.5,39.7,53.8,12.8
59.25,57.4,63.1,38.5,53.0,12.9
59.5,55.9,61.3,37.1,51.4,12.7
59.75,54.3,59.8,36.7,50.3,12.1
60.0,53.2,57.6,35.9,48.9,11.4
60.25,52.0,57.5,35.4,48.3,11.5
60.5,50.3,55.2,34.7,46.7,10.7
60.75,48.3,54.2,34.2,45.6,10.3
61.0,47.6,52.2,,49.9,3.3
61.25,46.8,51.7,,49.3,3.4
61.5,45.5,50.8,,48.2,3.7
61.75,44.2,48.8,,46.5,3.3
62.0,43.7,48.7,,46.2,3.6
62.25,43.0,47.3,,45.2,3.0
62.5,41.6,46.7,,44.1,3.6
62.75,41.5,45.0,,43.2,2.5
63.0,40.1,44.4,,42.3,3.0
63.25,39.0,44.1,,41.5,3.7
63.5,38.1,43.1,,40.6,3.5
63.75,37.9,42.1,,40.0,3.0
64.0,36.8,41.9,,39.4,3.6
64.25,35.6,40.4,,38.0,3.3
64.5,34.4,39.7,,37.1,3.7
64.75,33.9,38.3,,36.1,3.2
65.0,33.4,37.9,,35.7,3.2
65.25,32.0,38.1,,35.1,4.3
65.5,31.8,37.1,,34.5,3.7
65.75,31.1,36.1,,33.6,3.6
66.0,30.6,35.4,,33.0,3.4
66.25,30.4,35.0,,32.7,3.2
66.5,29.5,33.3,,31.4,2.7
66.75,29.0,,,29.0,
67.0,28.7,,,28.7,
67.25,28.4,,,28.4,
67.5,27.4,,,27.4,
67.75,27.0,,,27.0,
68.0,26.9,,,26.9,
68.25,26.2,,,26.2,
68.5,26.1,,,26.1,
68.75,25.5,,,25.5,
69.0,25.0,,,25.0,