Folder: fsri_materials_database/01_Data/Luan_Panel/Cone (part 2)

File: Luan_Panel_HRRPUA_75.csv
Time after Ignition,Luan_Panel_R1,Luan_Panel_R2,Luan_Panel_R3,Mean,Std. Dev.
0.0,29.3,33.9,61.2,41.5,17.2
0.75,49.4,61.7,94.1,68.4,23.1
1.5,78.3,95.6,128.4,100.8,25.5
2.25,112.4,133.5,166.4,137.4,27.2
3.0,151.1,170.4,193.5,171.7,21.2
3.75,193.5,209.5,224.9,209.3,15.7
4.5,229.0,238.0,265.9,244.3,19.2
5.25,271.8,257.0,304.1,277.7,24.1
6.0,293.0,282.1,328.3,301.1,24.2
6.75,332.7,306.9,351.4,330.3,22.3
7.5,347.8,316.8,367.4,344.0,25.5
8.25,367.6,334.3,374.5,358.8,21.5
9.0,374.4,358.6,384.7,372.6,13.2
9.75,379.6,357.8,394.7,377.4,18.6
10.5,389.9,369.2,386.9,382.0,11.2
11.25,375.3,375.2,375.6,375.4,0.2
12.0,379.1,373.3,374.8,375.8,3.0
12.75,365.8,367.7,352.0,361.9,8.6
13.5,357.6,368.6,350.9,359.0,8.9
14.25,352.2,368.3,334.9,351.8,16.7
15.0,337.1,356.0,325.6,339.6,15.3
15.75,328.0,342.1,311.1,327.1,15.6
16.5,316.9,331.8,308.0,318.9,12.0
17.25,304.4,324.3,293.7,307.5,15.5
18.0,280.9,314.5,294.7,296.7,16.9
18.75,275.9,307.3,279.5,287.6,17.2
19.5,258.3,295.4,270.0,274.5,19.0
20.25,248.8,285.2,268.2,267.4,18.2
21.0,240.8,270.6,264.3,258.5,15.7
21.75,231.4,265.2,255.6,250.7,17.4
22.5,224.8,254.5,252.8,244.0,16.7
23.25,217.9,248.9,248.3,238.4,17.7
24.0,211.0,240.3,253.7,235.0,21.8
24.75,210.8,232.8,248.3,230.6,18.8
25.5,205.3,232.1,245.4,227.6,20.4
26.25,201.6,226.8,243.3,223.9,21.0
27.0,197.2,222.2,241.3,220.2,22.1
27.75,201.0,225.4,237.5,221.3,18.6
28.5,195.6,217.7,234.7,216.0,19.6
29.25,196.4,223.5,228.5,216.2,17.3
30.0,201.8,217.4,229.5,216.2,13.9
30.75,209.7,220.3,220.0,216.7,6.1
31.5,214.9,221.2,217.3,217.8,3.2
32.25,220.2,232.6,216.5,223.1,8.4
33.0,221.1,228.6,216.9,222.2,5.9
33.75,228.8,229.1,212.4,223.4,9.5
34.5,235.3,234.9,214.0,228.1,12.1
35.25,233.7,231.7,211.7,225.7,12.1
36.0,245.4,239.5,215.4,233.4,15.9
36.75,245.1,236.1,214.7,232.0,15.6
37.5,251.4,235.6,212.7,233.2,19.5
38.25,249.0,238.3,214.3,233.9,17.7
39.0,256.3,240.0,220.5,238.9,17.9
39.75,259.4,240.4,225.6,241.8,16.9
40.5,258.9,244.5,231.3,244.9,13.8
41.25,263.4,249.8,230.1,247.8,16.8
42.0,264.1,241.2,231.6,245.6,16.7
42.75,268.6,248.9,243.3,253.6,13.3
43.5,276.8,254.9,242.1,257.9,17.5
44.25,273.0,248.1,249.7,257.0,13.9
45.0,282.3,260.4,257.9,266.9,13.5
45.75,287.9,268.2,259.2,271.8,14.7
46.5,287.5,267.1,266.7,273.8,11.9
47.25,290.0,270.3,275.7,278.7,10.1
48.0,295.5,277.5,274.9,282.6,11.2
48.75,294.0,272.8,279.6,282.2,10.9
49.5,298.2,283.8,282.9,288.3,8.6
50.25,302.1,287.3,286.2,291.9,8.9
51.0,300.8,293.1,296.7,296.9,3.8
51.75,296.9,288.7,284.7,290.1,6.2
52.5,291.5,291.8,283.1,288.8,4.9
53.25,292.1,295.9,282.8,290.2,6.7
54.0,287.4,291.7,278.3,285.8,6.8
54.75,279.6,294.3,273.0,282.3,10.9
55.5,280.1,290.5,271.3,280.6,9.6
56.25,272.9,287.4,268.6,276.3,9.8
57.0,268.2,289.8,263.7,273.9,14.0
57.75,265.5,284.8,256.9,269.1,14.3
58.5,258.8,282.3,257.6,266.2,13.9
59.25,249.7,273.9,251.9,258.5,13.4
60.0,247.3,274.3,243.2,254.9,16.9
60.75,244.6,276.3,240.5,253.8,19.6
61.5,241.9,267.1,240.9,250.0,14.9
62.25,239.2,262.5,238.0,246.6,13.8
63.0,232.2,263.8,238.5,244.8,16.7
63.75,236.5,263.7,234.7,245.0,16.3
64.5,227.1,260.2,230.2,239.2,18.3
65.25,226.5,254.1,226.7,235.8,15.8
66.0,230.5,251.5,231.4,237.8,11.9
66.75,226.7,252.3,227.2,235.4,14.6
67.5,228.2,248.7,228.1,235.0,11.9
68.25,227.0,253.6,224.5,235.1,16.1
69.0,226.3,253.7,224.1,234.7,16.5
69.75,227.5,247.1,227.6,234.0,11.3
70.5,223.7,253.3,222.5,233.2,17.4
71.25,226.3,252.6,225.6,234.8,15.4
72.0,225.5,249.5,227.7,234.2,13.3
72.75,225.2,252.3,223.7,233.7,16.1
73.5,223.5,255.6,219.4,232.8,19.8
74.25,223.3,252.2,221.1,232.2,17.4
75.0,225.2,248.8,220.5,231.5,15.2
75.75,220.2,248.9,218.9,229.3,17.0
76.5,222.8,249.3,218.8,230.3,16.6
77.25,225.8,256.8,215.1,232.6,21.7
78.0,216.8,251.7,214.9,227.8,20.7
78.75,220.2,247.2,214.1,227.1,17.6
79.5,219.0,244.9,213.9,225.9,16.6
80.25,218.0,243.1,210.9,224.0,16.9
81.0,216.5,247.5,211.6,225.2,19.5
81.75,212.1,245.5,207.1,221.6,20.9
82.5,212.0,242.3,213.6,222.6,17.1
83.25,209.2,240.2,212.9,220.8,17.0
84.0,206.8,240.4,208.0,218.4,19.1
84.75,203.6,240.3,210.6,218.2,19.5
85.5,199.6,239.4,212.1,217.0,20.4
86.25,197.6,237.2,206.7,213.8,20.8
87.0,189.9,236.5,200.3,208.9,24.4
87.75,185.6,236.5,187.9,203.3,28.7
88.5,179.6,233.5,178.5,197.2,31.5
89.25,171.9,228.7,169.1,189.9,33.7
90.0,164.5,230.8,160.9,185.4,39.4
90.75,157.9,219.4,148.0,175.1,38.7
91.5,154.6,217.2,138.9,170.3,41.4
92.25,141.9,207.9,130.1,160.0,41.9
93.0,132.0,201.4,120.1,151.2,43.9
93.75,124.8,189.1,109.1,141.0,42.4
94.5,113.5,188.4,101.8,134.6,47.0
95.25,102.7,177.9,94.3,125.0,46.1
96.0,96.0,172.4,86.9,118.4,47.0
96.75,86.5,162.6,82.3,110.5,45.2
97.5,79.5,157.0,76.8,104.4,45.5
98.25,74.3,146.5,72.8,97.9,42.1
99.0,70.9,138.4,68.1,92.5,39.8
99.75,67.7,127.9,64.7,86.8,35.7
100.5,63.0,118.6,61.4,81.0,32.6
101.25,60.2,106.8,59.1,75.3,27.2
102.0,57.9,99.2,56.6,71.2,24.3
102.75,55.2,89.7,54.6,66.5,20.1
103.5,53.5,83.3,52.7,63.2,17.4
104.25,51.5,76.8,50.3,59.5,15.0
105.0,50.3,71.6,50.1,57.3,12.3
105.75,49.3,67.5,49.6,55.5,10.4
106.5,48.9,63.9,49.0,53.9,8.6
107.25,48.0,61.5,48.2,52.6,7.7
108.0,47.4,58.2,47.6,51.1,6.2
108.75,46.7,57.1,47.3,50.4,5.9
109.5,45.9,54.4,45.7,48.7,4.9
110.25,46.0,53.9,45.8,48.6,4.6
111.0,45.7,52.3,45.7,47.9,3.8
111.75,45.3,51.2,45.0,47.2,3.5
112.5,45.5,50.4,45.2,47.1,2.9
113.25,45.4,49.2,44.7,46.4,2.5
114.0,45.4,48.4,44.3,46.0,2.1
114.75,45.3,47.3,43.8,45.5,1.8
115.5,44.8,46.3,43.3,44.8,1.5
116.25,44.5,46.2,43.7,44.8,1.3
117.0,44.5,45.6,42.4,44.2,1.6
117.75,44.4,45.6,41.8,43.9,1.9
118.5,43.6,45.3,41.7,43.5,1.8
119.25,44.0,45.8,42.2,44.0,1.8
120.0,43.7,45.5,42.2,43.8,1.6
120.75,43.6,44.5,42.6,43.6,1.0
121.5,43.6,45.5,41.7,43.6,1.9
122.25,42.4,45.4,41.2,43.0,2.2
123.0,42.9,44.7,41.4,43.0,1.7
123.75,42.4,45.1,40.6,42.7,2.3
124.5,41.9,44.7,40.4,42.3,2.2
125.25,42.0,45.2,39.9,42.4,2.7
126.0,41.6,44.2,39.7,41.8,2.2
126.75,42.0,44.7,39.8,42.1,2.5
127.5,42.0,43.8,39.0,41.6,2.4
128.25,41.6,43.3,39.4,41.4,2.0
129.0,41.8,43.0,39.5,41.4,1.7
129.75,42.0,42.4,39.1,41.2,1.8
130.5,41.6,42.2,39.3,41.0,1.6
131.25,41.5,42.0,40.0,41.1,1.0
132.0,41.8,42.6,39.8,41.4,1.5
132.75,41.7,41.6,39.9,41.1,1.0
133.5,41.2,41.8,40.2,41.1,0.8
134.25,40.4,41.7,40.5,40.9,0.7
135.0,40.5,41.6,40.7,40.9,0.6
135.75,41.1,41.4,41.1,41.2,0.2
136.5,40.1,42.7,40.8,41.2,1.4
137.25,40.3,43.0,40.9,41.4,1.4
138.0,39.2,42.3,40.5,40.7,1.6
138.75,39.9,42.9,40.2,41.0,1.6
139.5,39.2,42.8,,41.0,2.5
140.25,39.0,42.2,,40.6,2.3
141.0,38.9,43.6,,41.3,3.3
141.75,39.4,43.3,,41.4,2.8
142.5,39.3,43.7,,41.5,3.0
143.25,39.0,43.5,,41.3,3.1
144.0,39.3,43.5,,41.4,3.0
144.75,39.0,43.1,,41.0,2.9
145.5,38.6,43.6,,41.1,3.5
146.25,38.3,42.9,,40.6,3.3
147.0,37.9,,,37.9,
147.75,38.3,,,38.3,
148.5,38.1,,,38.1,
149.25,37.0,,,37.0,
150.0,38.2,,,38.2,
150.75,37.9,,,37.9,
151.5,38.1,,,38.1,
152.25,37.8,,,37.8,
153.0,38.3,,,38.3,
153.75,38.0,,,38.0,
154.5,37.8,,,37.8,
155.25,38.1,,,38.1,
156.0,38.2,,,38.2,
156.75,38.0,,,38.0,
157.5,38.1,,,38.1,
158.25,38.0,,,38.0,
159.0,38.0,,,38.0,
159.75,38.3,,,38.3,
160.5,37.4,,,37.4,
161.0,38.5,,,38.5,