Folder: fsri_materials_database/01_Data/Luan_Panel/Cone

Note: README.md
# Materials and Products Database
### Repository of materials and products properties and fire test data to improve fire modeling and fire investigation.

This project was supported in part by Award No. 2019-DU-BX-0018, awarded by the National Institute of Justice, Office of Justice Programs, U.S. Department of Justice. The opinions, findings, and conclusions or recommendations expressed in this publication / program / exhibition are those of the author(s) and do not necessarily reflect those of the Department of Justice.

***
***

__Cite this database:__ "McKinnon, M., Weinschenk, C., Dow, N., DiDomizio, M., and Madrzykowski, D. Materials and Products Database (Version 1.0.0), Fire Safety Research Institute, UL Research Institutes. Columbia, MD 21045, 2023."

__Cite the Technical Reference Guide:__ "McKinnon, M., Weinschenk, C., and Madrzykowski, D. Materials and Products Database - Technical Reference Guide, Fire Safety Research Institute, UL Research Institutes. Columbia, MD 21045, 2023."

__Cite the User Guide:__ "McKinnon, M., and Weinschenk, C. Materials and Products Database - User Guide, Fire Safety Research Institute, UL Research Institutes. Columbia, MD 21045, 2023."

***
***

## Database Structure

## 01_Data/
Raw data generated from each apparatus are included here in plain-text format. The data is organized first by material, next by the short name of test apparatus used, and where applicable additional filtering by test settings.

### Test Apparatus and Data File Structure
- __Cone Calorimeter__ (Cone)
    + Data file structure includes the material, the short name for the apparatus, heat flux setting and scan/scalar, date of test, and replicate number. Scan is for the raw output data and scalar is for the initial conditions and high-level test parameters. 
        * Example: __MDF_Cone_HF25scalar_210323_R1__ stands for the first replicate of scalar data generated from a medium density fiber board test in cone calorimeter exposed to 25 kW/m<sup>2</sup> on March 23, 2021.
    + A _Cone_Notes.csv_ is generated for each material from the __plot_Cone_data.py__ script. For materials whose experiments deviated from typical behavior relevant pictures are included in the respective material directory.
- __Fourier Transform Infrared Spectrometer__ (FTIR)
    + The FTIR directory contains subdirectories for the Attenuated Total Reflectance method (ATR) and the Integrating Sphere (IS)
    + Data file structure for the ATR experiment files includes the material, the abbreviated name for the apparatus, date of test, and replicate number. 
        * Example: __MDF_ATR_210323_R5__ stands for the fifth replicate of data collected with the ATR accessory conducted on June 8, 2021.
    + Data file structure for the IS experiment files includes the material, the abbreviated name for the apparatus, the measurand, whether the test is a sample measurement or standard reference, date of test, and replicate number.
        * Example: __OSB_IS_REFLECT_MEAS_2

File: Luan_Panel_HRRPUA_25.csv
Time after Ignition,Luan_Panel_R1,Luan_Panel_R2,Luan_Panel_R3,Mean,Std. Dev.
0.0,12.8,13.2,20.6,15.5,4.4
0.75,20.5,24.0,29.3,24.6,4.4
1.5,28.1,38.0,44.8,36.9,8.4
2.25,40.8,53.3,58.9,51.0,9.3
3.0,58.2,67.9,72.1,66.1,7.1
3.75,77.0,84.3,90.5,83.9,6.8
4.5,92.3,97.3,109.7,99.7,9.0
5.25,108.2,110.9,126.0,115.0,9.6
6.0,119.4,122.4,140.5,127.4,11.4
6.75,132.9,138.2,150.6,140.5,9.1
7.5,145.3,144.2,159.5,149.7,8.5
8.25,153.8,153.9,166.1,157.9,7.1
9.0,158.3,157.1,171.1,162.1,7.7
9.75,165.7,161.2,173.3,166.8,6.1
10.5,167.1,166.8,179.3,171.1,7.2
11.25,170.4,165.9,176.1,170.8,5.1
12.0,173.3,168.9,177.9,173.4,4.5
12.75,173.4,170.6,175.0,173.0,2.2
13.5,172.6,166.8,173.3,170.9,3.6
14.25,170.2,167.9,172.1,170.1,2.1
15.0,170.5,165.6,173.7,169.9,4.1
15.75,165.0,161.2,172.1,166.1,5.5
16.5,164.3,160.5,171.4,165.4,5.6
17.25,160.2,157.6,169.8,162.5,6.5
18.0,154.8,155.2,170.8,160.3,9.1
18.75,152.8,151.6,169.7,158.0,10.1
19.5,151.0,150.3,165.0,155.4,8.3
20.25,148.2,148.1,161.9,152.8,8.0
21.0,147.8,147.0,161.6,152.1,8.2
21.75,146.2,146.2,162.9,151.8,9.7
22.5,146.7,145.7,160.6,151.0,8.3
23.25,143.9,143.6,160.9,149.5,9.9
24.0,140.2,144.7,157.8,147.6,9.2
24.75,142.6,142.0,159.8,148.1,10.1
25.5,140.7,142.5,161.0,148.1,11.3
26.25,140.7,141.7,159.0,147.1,10.3
27.0,139.8,139.6,157.8,145.7,10.4
27.75,138.1,138.9,155.0,144.0,9.5
28.5,136.7,136.9,154.2,142.6,10.0
29.25,138.9,134.5,153.5,142.3,9.9
30.0,137.6,132.8,153.7,141.4,10.9
30.75,138.0,132.4,154.1,141.5,11.2
31.5,136.6,129.0,150.9,138.9,11.1
32.25,134.9,128.1,149.9,137.7,11.2
33.0,135.4,128.8,147.1,137.1,9.2
33.75,132.3,125.9,145.8,134.7,10.2
34.5,132.0,128.4,144.6,135.0,8.5
35.25,131.1,124.9,143.4,133.1,9.4
36.0,131.0,124.9,143.0,133.0,9.2
36.75,131.3,125.7,142.4,133.1,8.5
37.5,130.8,122.9,140.2,131.3,8.7
38.25,128.9,124.2,139.0,130.7,7.5
39.0,131.9,121.5,139.8,131.1,9.2
39.75,129.5,123.8,140.0,131.1,8.2
40.5,131.5,120.9,138.6,130.3,8.9
41.25,134.3,120.8,139.2,131.4,9.5
42.0,132.1,121.0,141.9,131.7,10.4
42.75,132.5,122.0,141.6,132.1,9.8
43.5,131.9,122.6,141.8,132.1,9.6
44.25,133.2,121.6,143.4,132.7,10.9
45.0,129.7,120.6,142.8,131.0,11.2
45.75,131.1,121.6,144.2,132.3,11.4
46.5,130.4,121.5,144.2,132.0,11.4
47.25,130.7,123.5,144.7,132.9,10.8
48.0,128.5,121.9,144.4,131.6,11.5
48.75,129.9,120.9,143.5,131.5,11.4
49.5,129.4,122.5,143.3,131.7,10.6
50.25,126.5,121.7,144.1,130.8,11.8
51.0,125.8,122.7,142.8,130.4,10.8
51.75,127.7,123.3,143.4,131.5,10.5
52.5,125.1,118.5,142.6,128.7,12.5
53.25,126.4,120.1,142.7,129.7,11.7
54.0,123.5,120.2,141.5,128.4,11.5
54.75,125.6,120.3,141.3,129.1,10.9
55.5,124.1,120.9,142.0,129.0,11.4
56.25,122.5,119.8,144.5,128.9,13.5
57.0,122.9,118.3,142.6,127.9,12.9
57.75,125.5,119.5,140.4,128.4,10.8
58.5,126.3,117.3,140.6,128.1,11.8
59.25,121.5,118.5,141.1,127.0,12.3
60.0,125.3,117.4,140.9,127.9,11.9
60.75,125.3,118.2,140.9,128.1,11.6
61.5,124.9,119.0,138.9,127.6,10.2
62.25,126.0,121.6,141.1,129.6,10.2
63.0,128.6,118.4,141.8,129.6,11.8
63.75,127.1,121.1,143.1,130.4,11.4
64.5,131.2,121.4,138.0,130.2,8.4
65.25,130.8,120.5,142.5,131.3,11.0
66.0,131.4,123.4,142.1,132.3,9.4
66.75,134.2,125.1,141.7,133.6,8.3
67.5,135.4,124.7,143.2,134.4,9.3
68.25,134.9,123.6,147.0,135.2,11.7
69.0,137.6,127.9,144.1,136.6,8.2
69.75,137.7,127.2,145.7,136.8,9.3
70.5,141.6,129.5,147.8,139.6,9.3
71.25,141.1,129.2,147.7,139.3,9.4
72.0,140.6,133.8,148.9,141.1,7.6
72.75,144.3,133.5,148.3,142.0,7.6
73.5,146.9,135.7,149.0,143.9,7.1
74.25,149.4,136.7,148.1,144.7,7.0
75.0,150.6,137.9,152.8,147.1,8.1
75.75,152.9,137.2,153.0,147.7,9.1
76.5,153.7,137.4,149.1,146.7,8.4
77.25,150.1,137.8,151.8,146.5,7.7
78.0,157.4,141.9,150.4,149.9,7.7
78.75,154.7,142.1,153.5,150.1,6.9
79.5,159.3,142.2,151.4,150.9,8.5
80.25,160.4,142.0,153.2,151.8,9.3
81.0,158.3,144.2,153.9,152.2,7.2
81.75,162.2,141.4,152.8,152.2,10.4
82.5,162.5,142.6,154.6,153.2,10.0
83.25,163.2,141.0,152.8,152.3,11.1
84.0,163.8,140.8,151.3,152.0,11.5
84.75,164.9,143.9,153.8,154.2,10.5
85.5,161.3,144.4,147.9,151.2,8.9
86.25,163.4,144.0,147.4,151.6,10.3
87.0,160.8,145.4,146.3,150.8,8.7
87.75,161.5,142.8,148.5,150.9,9.6
88.5,161.0,142.6,146.8,150.1,9.6
89.25,160.8,142.9,145.9,149.9,9.6
90.0,162.1,140.8,145.2,149.4,11.2
90.75,160.9,142.6,143.0,148.8,10.4
91.5,156.9,142.8,142.9,147.5,8.1
92.25,159.9,143.1,143.3,148.8,9.6
93.0,157.7,141.1,141.1,146.6,9.6
93.75,156.4,139.8,141.7,146.0,9.1
94.5,153.8,141.8,141.4,145.7,7.0
95.25,154.7,140.5,141.3,145.5,8.0
96.0,152.0,138.3,139.9,143.4,7.5
96.75,152.4,138.8,137.4,142.9,8.3
97.5,149.9,136.1,138.5,141.5,7.4
98.25,149.1,135.7,140.3,141.7,6.8
99.0,149.0,135.8,139.1,141.3,6.9
99.75,149.9,133.5,137.1,140.2,8.6
100.5,150.6,134.2,134.8,139.9,9.3
101.25,145.5,136.2,136.2,139.3,5.4
102.0,148.5,133.9,139.7,140.7,7.3
102.75,146.9,134.2,140.5,140.5,6.3
103.5,148.0,135.7,139.6,141.1,6.3
104.25,147.8,133.4,140.0,140.4,7.2
105.0,145.8,132.7,140.6,139.7,6.6
105.75,149.9,130.2,142.1,140.7,9.9
106.5,148.7,132.2,140.6,140.5,8.3
107.25,148.3,131.8,141.0,140.4,8.3
108.0,148.1,131.3,142.6,140.7,8.6
108.75,154.2,130.6,141.1,142.0,11.8
109.5,150.6,128.9,145.5,141.6,11.3
110.25,153.8,131.6,144.9,143.4,11.2
111.0,154.1,129.4,146.2,143.2,12.6
111.75,157.0,129.1,148.2,144.7,14.3
112.5,158.5,130.3,146.5,145.1,14.2
113.25,158.8,130.8,150.1,146.6,14.3
114.0,161.8,132.2,148.8,147.6,14.8
114.75,165.6,130.6,149.0,148.4,17.5
115.5,164.8,130.6,150.7,148.7,17.2
116.25,167.9,135.4,151.3,151.5,16.3
117.0,168.0,136.4,154.6,153.0,15.9
117.75,169.2,136.4,152.2,152.6,16.4
118.5,174.5,138.6,155.7,156.3,18.0
119.25,174.0,141.4,158.6,158.0,16.3
120.0,175.2,142.6,160.3,159.4,16.3
120.75,174.9,143.9,161.8,160.2,15.5
121.5,175.9,148.0,161.4,161.8,14.0
122.25,177.6,148.2,166.4,164.1,14.8
123.0,178.6,151.0,167.8,165.8,13.9
123.75,181.7,152.6,167.4,167.2,14.6
124.5,177.2,155.5,167.6,166.8,10.9
125.25,179.8,156.9,171.3,169.3,11.6
126.0,175.0,160.8,172.3,169.4,7.5
126.75,178.7,160.7,169.3,169.6,9.0
127.5,173.4,161.0,172.1,168.8,6.8
128.25,173.0,164.1,169.2,168.7,4.5
129.0,171.3,164.0,166.5,167.3,3.7
129.75,166.3,165.9,163.4,165.2,1.6
130.5,163.9,163.0,162.5,163.1,0.7
131.25,160.0,165.4,159.2,161.6,3.4
132.0,155.5,167.2,157.8,160.2,6.2
132.75,152.8,164.1,153.6,156.8,6.3
133.5,145.4,160.3,150.5,152.1,7.6
134.25,138.7,159.5,143.8,147.3,10.8
135.0,131.8,154.5,140.8,142.4,11.4
135.75,123.9,150.7,131.9,135.5,13.8
136.5,118.8,148.5,124.7,130.7,15.7
137.25,110.8,143.8,117.2,123.9,17.5
138.0,103.3,139.4,108.5,117.1,19.5
138.75,98.4,130.8,101.3,110.2,17.9
139.5,92.5,125.7,93.0,103.8,19.0
140.25,88.0,118.2,87.6,97.9,17.6
141.0,81.0,112.8,82.0,91.9,18.1
141.75,76.1,108.4,75.9,86.8,18.7
142.5,71.2,103.6,67.6,80.8,19.9
143.25,66.1,99.4,62.3,75.9,20.4
144.0,60.5,95.6,56.5,70.9,21.5
144.75,56.4,89.4,50.9,65.6,20.8
145.5,52.7,84.1,46.5,61.1,20.1
146.25,48.1,78.4,42.7,56.4,19.2
147.0,45.7,73.9,39.8,53.1,18.2
147.75,41.6,69.7,36.5,49.3,17.9
148.5,38.8,66.5,34.0,46.4,17.6
149.25,36.4,62.3,31.4,43.4,16.6
150.0,33.9,59.8,,46.8,18.3
150.75,32.1,56.0,,44.1,16.9
151.5,30.0,53.8,,41.9,16.8
152.25,28.3,51.2,,39.7,16.2
153.0,27.0,48.2,,37.6,15.0
153.75,25.7,45.0,,35.4,13.7
154.5,24.6,42.7,,33.6,12.8
155.25,23.6,41.0,,32.3,12.3
156.0,22.6,39.9,,31.2,12.3
156.75,21.7,37.3,,29.5,11.1
157.5,21.0,36.2,,28.6,10.8
158.25,20.5,34.2,,27.3,9.7
159.0,19.8,32.6,,26.2,9.0
159.75,19.5,31.1,,25.3,8.2
160.5,19.3,28.9,,24.1,6.8
161.25,19.0,28.3,,23.6,6.6
162.0,18.4,27.3,,22.8,6.3
162.75,18.2,26.3,,22.2,5.7
163.5,18.4,25.3,,21.9,4.9
164.25,18.7,24.8,,21.7,4.3
165.0,19.0,24.1,,21.5,3.6
165.75,19.0,23.9,,21.4,3.5
166.5,19.1,,,19.1,
167.25,19.1,,,19.1,
167.5,19.1,,,19.1,

File: Luan_Panel_HRRPUA_50.csv
Time after Ignition,Luan_Panel_R1,Luan_Panel_R2,Luan_Panel_R3,Luan_Panel_R4,Mean,Std. Dev.
0.0,22.2,8.9,13.7,33.0,19.4,10.5
0.5,34.8,14.2,21.9,43.3,28.6,13.0
1.0,50.4,21.8,32.0,56.1,40.1,15.9
1.5,61.9,31.6,45.3,71.4,52.6,17.7
2.0,78.9,44.2,54.5,83.6,65.3,19.0
2.5,98.8,59.9,76.0,96.6,82.8,18.4
3.0,121.4,77.3,91.0,107.2,99.2,19.2
3.5,138.7,93.9,110.0,122.3,116.2,19.0
4.0,160.3,107.3,125.2,131.5,131.1,22.0
4.5,181.5,127.3,143.2,147.2,149.8,22.8
5.0,190.0,138.6,157.4,161.9,162.0,21.2
5.5,214.0,154.4,174.7,172.5,178.9,25.1
6.0,228.9,166.2,186.3,185.5,191.7,26.5
6.5,249.3,175.5,199.4,201.0,206.3,30.9
7.0,258.3,184.6,212.1,208.1,215.7,30.8
7.5,270.6,191.6,218.6,223.0,226.0,32.9
8.0,285.6,199.3,239.5,229.9,238.6,35.7
8.5,289.1,209.6,234.8,234.7,242.0,33.5
9.0,295.3,214.1,245.5,245.2,250.0,33.6
9.5,304.6,222.4,257.3,245.5,257.5,34.6
10.0,302.9,228.9,269.1,248.6,262.4,31.6
10.5,324.0,235.7,264.2,254.4,269.6,38.2
11.0,320.5,239.4,275.7,257.6,273.3,34.8
11.5,316.4,240.1,272.9,261.9,272.8,32.1
12.0,316.6,241.0,271.1,262.5,272.8,31.8
12.5,315.1,248.7,279.6,263.4,276.7,28.5
13.0,316.8,244.9,287.7,265.9,278.8,30.8
13.5,313.4,247.2,280.0,258.2,274.7,29.1
14.0,309.3,244.3,280.7,264.0,274.6,27.5
14.5,297.1,246.4,278.3,264.4,271.6,21.5
15.0,285.1,243.6,275.0,258.2,265.4,18.3
15.5,281.5,250.2,277.6,260.8,267.5,14.6
16.0,269.3,246.9,269.1,256.6,260.5,10.8
16.5,266.2,248.1,271.3,250.7,259.1,11.4
17.0,265.4,242.3,265.9,248.7,255.6,11.9
17.5,251.0,245.7,263.0,245.4,251.3,8.2
18.0,247.7,241.3,262.5,244.2,248.9,9.4
18.5,236.8,238.0,257.4,239.9,243.0,9.7
19.0,231.6,236.6,253.3,239.9,240.4,9.3
19.5,218.6,238.2,248.6,232.4,234.5,12.5
20.0,214.8,234.2,243.9,226.7,229.9,12.3
20.5,209.2,234.4,246.2,225.7,228.9,15.6
21.0,203.1,227.2,241.2,218.3,222.5,16.0
21.5,195.6,222.3,235.5,212.5,216.5,16.8
22.0,189.6,222.7,232.2,211.7,214.0,18.3
22.5,184.5,219.1,225.2,205.6,208.6,18.1
23.0,180.1,219.5,220.5,202.0,205.5,19.0
23.5,172.9,213.2,217.0,199.7,200.7,20.0
24.0,170.4,212.3,212.6,198.6,198.5,19.8
24.5,166.2,207.9,208.9,196.4,194.9,19.9
25.0,163.2,204.3,203.8,190.4,190.4,19.3
25.5,160.6,200.7,200.1,189.9,187.8,18.8
26.0,158.8,198.3,195.1,182.7,183.7,17.9
26.5,153.9,198.3,192.6,182.2,181.8,19.7
27.0,151.4,194.6,187.5,178.8,178.1,18.9
27.5,150.0,191.7,186.8,178.6,176.8,18.6
28.0,147.0,189.5,180.8,177.3,173.6,18.5
28.5,148.0,185.9,180.5,172.7,171.8,16.7
29.0,146.5,182.7,179.4,170.6,169.8,16.4
29.5,146.5,179.8,174.9,170.4,167.9,14.7
30.0,146.3,176.6,172.5,167.4,165.7,13.5
30.5,146.7,178.1,170.7,167.2,165.7,13.4
31.0,146.0,170.8,169.2,166.4,163.1,11.6
31.5,144.7,170.9,169.2,166.2,162.7,12.2
32.0,148.8,167.5,169.1,166.8,163.0,9.6
32.5,148.3,166.7,165.8,165.2,161.5,8.8
33.0,149.0,164.5,169.2,166.3,162.2,9.1
33.5,148.1,163.8,167.8,164.0,160.9,8.7
34.0,152.9,161.9,163.9,163.6,160.6,5.2
34.5,153.1,164.7,164.9,164.6,161.9,5.8
35.0,153.5,160.8,167.3,167.9,162.4,6.7
35.5,154.7,161.3,167.6,167.5,162.8,6.1
36.0,157.1,162.3,166.1,172.0,164.4,6.3
36.5,157.2,161.6,168.2,172.7,164.9,6.9
37.0,162.3,161.1,167.9,173.7,166.3,5.8
37.5,162.2,161.1,166.4,178.1,166.9,7.8
38.0,162.5,165.7,172.5,179.1,170.0,7.4
38.5,169.3,163.2,169.9,179.9,170.6,6.9
39.0,171.3,165.4,170.0,184.9,172.9,8.4
39.5,170.9,170.1,174.3,183.5,174.7,6.1
40.0,171.0,170.0,174.5,185.4,175.2,7.0
40.5,178.2,173.6,173.8,188.5,178.5,7.0
41.0,177.9,171.7,172.1,191.7,178.4,9.3
41.5,179.3,177.0,174.0,189.6,180.0,6.8
42.0,181.8,179.6,176.0,195.4,183.2,8.5
42.5,177.5,179.3,177.9,191.4,181.5,6.6
43.0,185.2,181.6,177.4,194.2,184.6,7.2
43.5,184.1,183.8,176.2,194.2,184.5,7.4
44.0,187.6,187.4,179.0,196.1,187.5,7.0
44.5,189.8,187.6,179.6,198.0,188.7,7.6
45.0,188.9,191.2,177.6,195.3,188.2,7.6
45.5,196.8,195.3,180.8,200.9,193.4,8.7
46.0,201.5,195.1,178.1,195.5,192.6,10.1
46.5,197.6,196.6,182.9,197.2,193.6,7.1
47.0,206.2,196.2,180.7,201.3,196.1,11.1
47.5,204.2,197.8,183.0,196.4,195.4,8.9
48.0,210.9,196.4,180.2,196.3,195.9,12.5
48.5,211.1,200.7,179.1,196.5,196.9,13.4
49.0,213.6,202.8,183.2,196.1,198.9,12.7
49.5,218.8,202.0,179.8,196.0,199.1,16.1
50.0,222.6,201.9,185.4,197.3,201.8,15.5
50.5,226.9,197.8,180.5,199.3,201.1,19.2
51.0,228.7,198.0,184.8,200.8,203.1,18.5
51.5,229.1,199.4,185.2,196.5,202.5,18.7
52.0,233.9,197.1,184.9,199.1,203.8,21.0
52.5,234.6,200.8,187.1,197.4,205.0,20.6
53.0,237.5,194.3,187.7,198.4,204.5,22.4
53.5,245.0,199.5,187.0,199.3,207.7,25.6
54.0,249.3,196.6,189.2,201.2,209.1,27.3
54.5,252.5,192.1,188.2,199.6,208.1,30.0
55.0,255.6,194.4,191.8,197.5,209.8,30.6
55.5,254.3,197.0,189.3,202.3,210.7,29.5
56.0,258.6,194.1,188.0,202.1,210.7,32.5
56.5,259.8,196.0,192.3,204.7,213.2,31.5
57.0,259.4,194.0,193.9,204.0,212.8,31.4
57.5,263.0,194.2,195.2,206.4,214.7,32.7
58.0,259.6,195.1,197.8,209.1,215.4,30.1
58.5,269.8,190.5,198.5,206.0,216.2,36.3
59.0,267.0,192.0,200.1,210.1,217.3,33.9
59.5,265.1,194.7,205.8,211.5,219.3,31.3
60.0,267.0,194.0,206.4,213.4,220.2,32.2
60.5,268.4,194.0,209.7,213.0,221.3,32.5
61.0,267.0,193.1,208.9,215.4,221.1,32.0
61.5,270.7,192.9,204.9,213.0,220.4,34.5
62.0,264.8,194.6,211.8,215.3,221.6,30.2
62.5,262.3,197.4,214.2,220.1,223.5,27.6
63.0,261.2,193.0,213.1,217.8,221.3,28.7
63.5,259.3,193.1,208.2,218.9,219.9,28.4
64.0,259.3,197.2,213.5,217.9,222.0,26.4
64.5,252.0,196.4,215.8,222.7,221.7,23.0
65.0,255.5,194.9,214.4,220.3,221.3,25.3
65.5,257.0,196.4,216.8,226.7,224.3,25.2
66.0,248.5,202.5,217.2,223.6,222.9,19.2
66.5,248.2,199.5,219.0,230.8,224.4,20.5
67.0,247.0,203.3,217.1,228.6,224.0,18.5
67.5,247.6,202.1,216.2,232.2,224.5,19.7
68.0,244.7,203.1,219.0,230.1,224.2,17.6
68.5,240.6,203.8,215.5,233.0,223.2,16.7
69.0,240.1,206.6,220.9,236.4,226.0,15.4
69.5,238.9,203.7,214.2,233.9,222.7,16.5
70.0,236.7,207.7,217.7,234.6,224.2,13.9
70.5,237.6,209.5,218.3,234.2,224.9,13.3
71.0,233.8,213.1,221.2,234.2,225.6,10.2
71.5,235.7,212.5,216.9,237.4,225.6,12.8
72.0,234.6,216.3,219.6,236.3,226.7,10.2
72.5,235.2,215.9,216.1,237.0,226.1,11.6
73.0,233.7,220.5,219.1,234.1,226.8,8.2
73.5,232.0,217.4,215.3,235.4,225.0,10.1
74.0,233.7,218.5,213.0,230.3,223.9,9.7
74.5,232.1,224.0,212.9,238.2,226.8,10.9
75.0,233.0,227.6,216.2,235.7,228.1,8.6
75.5,233.1,225.3,218.5,230.1,226.7,6.4
76.0,234.8,228.1,212.1,230.5,226.4,9.9
76.5,232.7,224.6,213.4,228.1,224.7,8.2
77.0,232.0,232.4,214.9,228.3,226.9,8.2
77.5,236.3,230.7,214.1,227.5,227.2,9.4
78.0,236.6,230.5,213.9,229.6,227.6,9.7
78.5,238.1,230.6,212.5,227.7,227.2,10.7
79.0,233.9,228.5,213.7,226.4,225.6,8.6
79.5,240.3,231.1,211.2,226.3,227.2,12.2
80.0,233.1,230.0,213.4,228.6,226.2,8.8
80.5,234.7,227.8,216.0,226.2,226.2,7.7
81.0,240.1,230.3,213.5,224.8,227.2,11.1
81.5,234.3,230.9,212.9,225.5,225.9,9.4
82.0,234.3,228.4,215.2,228.8,226.7,8.1
82.5,232.9,227.9,214.4,222.9,224.5,7.9
83.0,237.0,229.7,217.5,221.7,226.5,8.6
83.5,237.2,227.1,213.9,222.4,225.2,9.7
84.0,237.0,229.7,215.6,227.1,227.3,8.9
84.5,238.3,227.9,218.3,224.3,227.2,8.4
85.0,231.0,226.4,213.9,220.9,223.1,7.3
85.5,236.1,231.9,214.9,225.3,227.1,9.2
86.0,237.4,228.7,214.6,223.4,226.0,9.6
86.5,230.4,227.0,218.7,220.1,224.0,5.5
87.0,235.4,228.8,219.0,227.6,227.7,6.7
87.5,237.2,223.6,214.0,228.1,225.7,9.6
88.0,233.0,228.2,220.6,224.1,226.5,5.3
88.5,234.4,225.7,215.0,222.7,224.4,8.0
89.0,229.4,226.6,222.1,220.4,224.6,4.1
89.5,230.9,222.9,221.0,221.4,224.0,4.6
90.0,226.9,226.6,219.3,221.4,223.5,3.8
90.5,227.8,223.6,221.2,222.5,223.8,2.8
91.0,225.3,228.0,222.6,218.7,223.7,4.0
91.5,223.9,227.4,221.0,221.6,223.5,2.9
92.0,221.3,223.1,220.8,216.9,220.5,2.6
92.5,220.2,221.8,225.2,220.4,221.9,2.3
93.0,220.4,226.6,227.9,220.6,223.9,3.9
93.5,219.2,223.3,220.3,217.4,220.1,2.5
94.0,216.6,227.4,224.3,218.3,221.7,5.1
94.5,212.2,223.4,226.9,216.4,219.7,6.7
95.0,209.4,222.9,223.6,215.0,217.7,6.8
95.5,209.1,218.9,228.3,217.2,218.4,7.9
96.0,204.2,224.7,225.8,213.4,217.0,10.2
96.5,201.4,223.4,227.7,214.0,216.6,11.7
97.0,196.8,222.3,224.8,212.9,214.2,12.7
97.5,197.5,226.4,226.0,212.3,215.6,13.7
98.0,195.9,216.8,224.6,211.4,212.1,12.1
98.5,192.7,218.4,228.5,209.6,212.3,15.2
99.0,188.1,216.7,222.9,212.1,210.0,15.2
99.5,183.8,216.1,227.3,207.7,208.7,18.4
100.0,184.1,218.2,221.4,206.6,207.6,16.9
100.5,178.6,213.3,220.3,202.7,203.7,18.3
101.0,178.8,210.6,222.9,201.5,203.4,18.6
101.5,175.8,213.1,226.4,204.7,205.0,21.4
102.0,172.5,216.5,223.7,202.4,203.8,22.6
102.5,173.8,209.5,220.4,200.4,201.0,19.9
103.0,167.7,210.9,220.9,199.3,199.7,23.1
103.5,164.7,210.8,220.8,194.9,197.8,24.5
104.0,162.0,204.7,219.8,197.0,195.9,24.5
104.5,156.4,204.6,219.3,190.9,192.8,26.9
105.0,149.0,206.6,218.4,190.8,191.2,30.3
105.5,143.0,204.3,212.6,188.0,187.0,31.0
106.0,136.9,201.7,215.9,184.8,184.8,34.4
106.5,133.8,201.9,211.9,186.1,183.4,34.8
107.0,128.4,203.6,213.5,180.5,181.5,38.0
107.5,122.1,197.2,207.5,179.1,176.5,38.1
108.0,118.3,198.0,206.3,177.8,175.1,39.7
108.5,115.0,194.6,205.1,177.9,173.2,40.3
109.0,110.8,191.4,203.0,173.3,169.6,41.0
109.5,107.2,194.1,200.4,172.0,168.4,42.6
110.0,104.2,188.7,195.9,163.8,163.2,41.6
110.5,100.0,187.2,194.8,162.4,161.1,43.0
111.0,99.9,186.2,194.1,156.2,159.1,42.7
111.5,97.2,184.2,193.6,151.9,156.7,43.5
112.0,94.4,181.1,193.7,145.5,153.7,44.5
112.5,91.6,179.9,183.5,142.3,149.3,42.7
113.0,91.2,177.9,184.9,138.1,148.0,43.1
113.5,89.6,178.2,178.9,130.2,144.2,42.9
114.0,87.3,173.2,172.0,125.2,139.4,41.3
114.25,89.2,170.3,170.3,121.3,137.8,39.8