Folder: fsri_materials_database/01_Data/Memory_Foam_Carpet_Pad/FTIR/IS

Note: README.md
# Materials and Products Database
### Repository of materials and products properties and fire test data to improve fire modeling and fire investigation.

This project was supported in part by Award No. 2019-DU-BX-0018, awarded by the National Institute of Justice, Office of Justice Programs, U.S. Department of Justice. The opinions, findings, and conclusions or recommendations expressed in this publication / program / exhibition are those of the author(s) and do not necessarily reflect those of the Department of Justice.

***
***

__Cite this database:__ "McKinnon, M., Weinschenk, C., Dow, N., DiDomizio, M., and Madrzykowski, D. Materials and Products Database (Version 1.0.0), Fire Safety Research Institute, UL Research Institutes. Columbia, MD 21045, 2023."

__Cite the Technical Reference Guide:__ "McKinnon, M., Weinschenk, C., and Madrzykowski, D. Materials and Products Database - Technical Reference Guide, Fire Safety Research Institute, UL Research Institutes. Columbia, MD 21045, 2023."

__Cite the User Guide:__ "McKinnon, M., and Weinschenk, C. Materials and Products Database - User Guide, Fire Safety Research Institute, UL Research Institutes. Columbia, MD 21045, 2023."

***
***

## Database Structure

## 01_Data/
Raw data generated from each apparatus are included here in plain-text format. The data is organized first by material, next by the short name of test apparatus used, and where applicable additional filtering by test settings.

### Test Apparatus and Data File Structure
- __Cone Calorimeter__ (Cone)
    + Data file structure includes the material, the short name for the apparatus, heat flux setting and scan/scalar, date of test, and replicate number. Scan is for the raw output data and scalar is for the initial conditions and high-level test parameters. 
        * Example: __MDF_Cone_HF25scalar_210323_R1__ stands for the first replicate of scalar data generated from a medium density fiber board test in cone calorimeter exposed to 25 kW/m<sup>2</sup> on March 23, 2021.
    + A _Cone_Notes.csv_ is generated for each material from the __plot_Cone_data.py__ script. For materials whose experiments deviated from typical behavior relevant pictures are included in the respective material directory.
- __Fourier Transform Infrared Spectrometer__ (FTIR)
    + The FTIR directory contains subdirectories for the Attenuated Total Reflectance method (ATR) and the Integrating Sphere (IS)
    + Data file structure for the ATR experiment files includes the material, the abbreviated name for the apparatus, date of test, and replicate number. 
        * Example: __MDF_ATR_210323_R5__ stands for the fifth replicate of data collected with the ATR accessory conducted on June 8, 2021.
    + Data file structure for the IS experiment files includes the material, the abbreviated name for the apparatus, the measurand, whether the test is a sample measurement or standard reference, date of test, and replicate number.
        * Example: __OSB_IS_REFLECT_MEAS_2

File: Memory_Foam_Carpet_Pad_IS_S_221003_R1.dpt
7497.03,0.71369
7473.89,0.71427
7450.74,0.69449
7427.6,0.70118
7404.45,0.68185
7381.31,0.66117
7358.16,0.65465
7335.02,0.65935
7311.87,0.65404
7288.73,0.63199
7265.58,0.62136
7242.44,0.61288
7219.29,0.61586
7196.15,0.60770
7173,0.60901
7149.86,0.60835
7126.71,0.61620
7103.57,0.60963
7080.42,0.61456
7057.28,0.61522
7034.13,0.61286
7010.99,0.61609
6987.84,0.60818
6964.7,0.60865
6941.55,0.61575
6918.41,0.61999
6895.26,0.62472
6872.12,0.62693
6848.97,0.62471
6825.83,0.62608
6802.68,0.62534
6779.54,0.61394
6756.39,0.60744
6733.25,0.60226
6710.1,0.59804
6686.96,0.59001
6663.82,0.58535
6640.67,0.58958
6617.53,0.59183
6594.38,0.59467
6571.24,0.60276
6548.09,0.61378
6524.95,0.62205
6501.8,0.63054
6478.66,0.63463
6455.51,0.63668
6432.37,0.64129
6409.22,0.64453
6386.08,0.64476
6362.93,0.65038
6339.79,0.64567
6316.64,0.64921
6293.5,0.64763
6270.35,0.65012
6247.21,0.64965
6224.06,0.64965
6200.92,0.64556
6177.77,0.64127
6154.63,0.63433
6131.48,0.61897
6108.34,0.60484
6085.19,0.58413
6062.05,0.57796
6038.9,0.57415
6015.76,0.55154
5992.61,0.52096
5969.47,0.46901
5946.32,0.41347
5923.18,0.41814
5900.03,0.39438
5876.89,0.42110
5853.74,0.42370
5830.6,0.40639
5807.45,0.39006
5784.31,0.37492
5761.16,0.38054
5738.02,0.40430
5714.87,0.42627
5691.73,0.43572
5668.58,0.43437
5645.44,0.44262
5622.29,0.45882
5599.15,0.46789
5576,0.47065
5552.86,0.46850
5529.71,0.47092
5506.57,0.47501
5483.42,0.48048
5460.28,0.48584
5437.13,0.49173
5413.99,0.50776
5390.84,0.52297
5367.7,0.52985
5344.55,0.53316
5321.41,0.53505
5298.26,0.53077
5275.12,0.50979
5251.97,0.49212
5228.83,0.48014
5205.68,0.47272
5182.54,0.47708
5159.39,0.48240
5136.25,0.48508
5113.1,0.49104
5089.96,0.49212
5066.81,0.48700
5043.67,0.48289
5020.52,0.47335
4997.38,0.45774
4974.23,0.42801
4951.09,0.40192
4927.94,0.38091
4904.8,0.36397
4881.65,0.35756
4858.51,0.35748
4835.36,0.36451
4812.22,0.38097
4789.07,0.39977
4765.93,0.41123
4742.78,0.41324
4719.64,0.39971
4696.49,0.38626
4673.35,0.37173
4650.2,0.35988
4627.06,0.34470
4603.92,0.35223
4580.77,0.35599
4557.63,0.35594
4534.48,0.35633
4511.34,0.35307
4488.19,0.34557
4465.05,0.31669
4441.9,0.25135
4418.76,0.18725
4395.61,0.18893
4372.47,0.17010
4349.32,0.13905
4326.18,0.13276
4303.03,0.15845
4279.89,0.17034
4256.74,0.17655
4233.6,0.18327
4210.45,0.19524
4187.31,0.20222
4164.16,0.19573
4141.02,0.19215
4117.87,0.18764
4094.73,0.17492
4071.58,0.15629
4048.44,0.14651
4025.29,0.14603
4002.15,0.15022
3979,0.16001
3955.86,0.17495
3932.71,0.19707
3909.57,0.21555
3886.42,0.22484
3863.28,0.22860
3840.13,0.23516
3816.99,0.24139
3793.84,0.24525
3770.7,0.25798
3747.55,0.27595
3724.41,0.28385
3701.26,0.27572
3678.12,0.23209
3654.97,0.18687
3631.83,0.15117
3608.68,0.12349
3585.54,0.10357
3562.39,0.09313
3539.25,0.08337
3516.1,0.07438
3492.96,0.07116
3469.81,0.06629
3446.67,0.05852
3423.52,0.05093
3400.38,0.04100
3377.23,0.03272
3354.09,0.02980
3330.94,0.02861
3307.8,0.02859
3284.65,0.02883
3261.51,0.03020
3238.36,0.03300
3215.22,0.03693
3192.07,0.03792
3168.93,0.04362
3145.78,0.04581
3122.64,0.04372
3099.49,0.04661
3076.35,0.04422
3053.2,0.04216
3030.06,0.04000
3006.91,0.03700
2983.77,0.02670
2960.62,0.02687
2937.48,0.02579
2914.33,0.02621
2891.19,0.02678
2868.04,0.02730
2844.9,0.03040
2821.75,0.03801
2798.61,0.04201
2775.46,0.04616
2752.32,0.05191
2729.17,0.05813
2706.03,0.07152
2682.88,0.08492
2659.74,0.09260
2636.59,0.09934
2613.45,0.11040
2590.3,0.10769
2567.16,0.12544
2544.02,0.13942
2520.87,0.14115
2497.73,0.14623
2474.58,0.15641
2451.44,0.16530
2428.29,0.17576
2405.15,0.17639
2382,0.17148
2358.86,0.16993
2335.71,0.16732
2312.57,0.15310
2289.42,0.12377
2266.28,0.10834
2243.13,0.11797
2219.99,0.13405
2196.84,0.14013
2173.7,0.14178
2150.55,0.14191
2127.41,0.14453
2104.26,0.14594
2081.12,0.14104
2057.97,0.13820
2034.83,0.12889
2011.68,0.12267
1988.54,0.12286
1965.39,0.12104
1942.25,0.12052
1919.1,0.11743
1895.96,0.11739
1872.81,0.12531
1849.67,0.12546
1826.52,0.11114
1803.38,0.08981
1780.23,0.07499
1757.09,0.04903
1733.94,0.02438
1710.8,0.02617
1687.65,0.02695
1664.51,0.02666
1641.36,0.02721
1618.22,0.02581
1595.07,0.02593
1571.93,0.02803
1548.78,0.02356
1525.64,0.02701
1502.49,0.02916
1479.35,0.02848
1456.2,0.02657
1433.06,0.02990
1409.91,0.02759
1386.77,0.02741
1363.62,0.02879
1340.48,0.02719
1317.33,0.02528
1294.19,0.02620
1271.04,0.02523
1247.9,0.02408
1224.75,0.02551
1201.61,0.02681
1178.46,0.02477
1155.32,0.02310
1132.17,0.02275
1109.03,0.02710
1085.88,0.03064
1062.74,0.03264
1039.59,0.03350
1016.45,0.03194
993.304,0.03781
970.159,0.04000
947.014,0.03887
923.869,0.03558
900.724,0.04037
877.579,0.04002
854.434,0.03780
831.289,0.03632
808.144,0.03592
784.999,0.03981
761.854,0.03588
738.709,0.04180
715.565,0.03846
692.42,0.03767
669.275,0.03402
646.13,0.03653
622.985,0.03951
599.84,0.03676

File: Memory_Foam_Carpet_Pad_IS_S_221003_R2.dpt
7497.03,0.71614
7473.89,0.71113
7450.74,0.71146
7427.6,0.70281
7404.45,0.69122
7381.31,0.67007
7358.16,0.65443
7335.02,0.66238
7311.87,0.65735
7288.73,0.64231
7265.58,0.62578
7242.44,0.61674
7219.29,0.61222
7196.15,0.60876
7173,0.61124
7149.86,0.61048
7126.71,0.62097
7103.57,0.61025
7080.42,0.61261
7057.28,0.62474
7034.13,0.61641
7010.99,0.61160
6987.84,0.60718
6964.7,0.61652
6941.55,0.61309
6918.41,0.62021
6895.26,0.62243
6872.12,0.62655
6848.97,0.62886
6825.83,0.63451
6802.68,0.63065
6779.54,0.61612
6756.39,0.61083
6733.25,0.60478
6710.1,0.60146
6686.96,0.59675
6663.82,0.58913
6640.67,0.58991
6617.53,0.59587
6594.38,0.59871
6571.24,0.60739
6548.09,0.61429
6524.95,0.62126
6501.8,0.62679
6478.66,0.63693
6455.51,0.63977
6432.37,0.64410
6409.22,0.64940
6386.08,0.64847
6362.93,0.64717
6339.79,0.64872
6316.64,0.65036
6293.5,0.64995
6270.35,0.64970
6247.21,0.64962
6224.06,0.64984
6200.92,0.64927
6177.77,0.63855
6154.63,0.63457
6131.48,0.61879
6108.34,0.60493
6085.19,0.58305
6062.05,0.57748
6038.9,0.57349
6015.76,0.55238
5992.61,0.52025
5969.47,0.46938
5946.32,0.41448
5923.18,0.41699
5900.03,0.39496
5876.89,0.42354
5853.74,0.42275
5830.6,0.40672
5807.45,0.39027
5784.31,0.37618
5761.16,0.37989
5738.02,0.40252
5714.87,0.42350
5691.73,0.43722
5668.58,0.43368
5645.44,0.44365
5622.29,0.46087
5599.15,0.46939
5576,0.46906
5552.86,0.46897
5529.71,0.47147
5506.57,0.47612
5483.42,0.48352
5460.28,0.48559
5437.13,0.49184
5413.99,0.50635
5390.84,0.52505
5367.7,0.53104
5344.55,0.53665
5321.41,0.53702
5298.26,0.53500
5275.12,0.52021
5251.97,0.50491
5228.83,0.49350
5205.68,0.49004
5182.54,0.49186
5159.39,0.49507
5136.25,0.49865
5113.1,0.50069
5089.96,0.50026
5066.81,0.49334
5043.67,0.48817
5020.52,0.47600
4997.38,0.45915
4974.23,0.42919
4951.09,0.40186
4927.94,0.38111
4904.8,0.36377
4881.65,0.35714
4858.51,0.35766
4835.36,0.36603
4812.22,0.38271
4789.07,0.40018
4765.93,0.41271
4742.78,0.41352
4719.64,0.40082
4696.49,0.38665
4673.35,0.37133
4650.2,0.35965
4627.06,0.34489
4603.92,0.35248
4580.77,0.35532
4557.63,0.35730
4534.48,0.35733
4511.34,0.35322
4488.19,0.34559
4465.05,0.31666
4441.9,0.25249
4418.76,0.18725
4395.61,0.18958
4372.47,0.17069
4349.32,0.13963
4326.18,0.13298
4303.03,0.15761
4279.89,0.17139
4256.74,0.17719
4233.6,0.18406
4210.45,0.19536
4187.31,0.20261
4164.16,0.19634
4141.02,0.19182
4117.87,0.18723
4094.73,0.17528
4071.58,0.15717
4048.44,0.14668
4025.29,0.14606
4002.15,0.15053
3979,0.16116
3955.86,0.17618
3932.71,0.19756
3909.57,0.21740
3886.42,0.22596
3863.28,0.23018
3840.13,0.23506
3816.99,0.24205
3793.84,0.24664
3770.7,0.25967
3747.55,0.27891
3724.41,0.28886
3701.26,0.28478
3678.12,0.25128
3654.97,0.20993
3631.83,0.17609
3608.68,0.14591
3585.54,0.12400
3562.39,0.11174
3539.25,0.09771
3516.1,0.08689
3492.96,0.08175
3469.81,0.07371
3446.67,0.06319
3423.52,0.05337
3400.38,0.04074
3377.23,0.03257
3354.09,0.02940
3330.94,0.02923
3307.8,0.02860
3284.65,0.02856
3261.51,0.03006
3238.36,0.03294
3215.22,0.03672
3192.07,0.03832
3168.93,0.04381
3145.78,0.04629
3122.64,0.04445
3099.49,0.04700
3076.35,0.04457
3053.2,0.04280
3030.06,0.04002
3006.91,0.03747
2983.77,0.02749
2960.62,0.02720
2937.48,0.02596
2914.33,0.02579
2891.19,0.02723
2868.04,0.02740
2844.9,0.03039
2821.75,0.03835
2798.61,0.04140
2775.46,0.04614
2752.32,0.05210
2729.17,0.05849
2706.03,0.07144
2682.88,0.08476
2659.74,0.09265
2636.59,0.09929
2613.45,0.11072
2590.3,0.10825
2567.16,0.12544
2544.02,0.13953
2520.87,0.14139
2497.73,0.14651
2474.58,0.15665
2451.44,0.16529
2428.29,0.17579
2405.15,0.17699
2382,0.17172
2358.86,0.16941
2335.71,0.16708
2312.57,0.15337
2289.42,0.12446
2266.28,0.10810
2243.13,0.11871
2219.99,0.13509
2196.84,0.14148
2173.7,0.14227
2150.55,0.14240
2127.41,0.14555
2104.26,0.14691
2081.12,0.14203
2057.97,0.13927
2034.83,0.12972
2011.68,0.12334
1988.54,0.12399
1965.39,0.12166
1942.25,0.12129
1919.1,0.11757
1895.96,0.11746
1872.81,0.12572
1849.67,0.12617
1826.52,0.11130
1803.38,0.09039
1780.23,0.07527
1757.09,0.04898
1733.94,0.02486
1710.8,0.02589
1687.65,0.02697
1664.51,0.02674
1641.36,0.02725
1618.22,0.02661
1595.07,0.02531
1571.93,0.02804
1548.78,0.02393
1525.64,0.02725
1502.49,0.02866
1479.35,0.02883
1456.2,0.02700
1433.06,0.03026
1409.91,0.02771
1386.77,0.02734
1363.62,0.02874
1340.48,0.02745
1317.33,0.02533
1294.19,0.02606
1271.04,0.02557
1247.9,0.02407
1224.75,0.02512
1201.61,0.02638
1178.46,0.02467
1155.32,0.02297
1132.17,0.02278
1109.03,0.02722
1085.88,0.03049
1062.74,0.03228
1039.59,0.03259
1016.45,0.03337
993.304,0.03802
970.159,0.04030
947.014,0.03873
923.869,0.03491
900.724,0.04075
877.579,0.03928
854.434,0.03714
831.289,0.03547
808.144,0.03586
784.999,0.04003
761.854,0.03597
738.709,0.04232
715.565,0.03719
692.42,0.03732
669.275,0.03512
646.13,0.03665
622.985,0.03757
599.84,0.03902

File: Memory_Foam_Carpet_Pad_IS_S_221003_R3.dpt
7497.03,0.71635
7473.89,0.71767
7450.74,0.70820
7427.6,0.69861
7404.45,0.68504
7381.31,0.66671
7358.16,0.65908
7335.02,0.66112
7311.87,0.65437
7288.73,0.63497
7265.58,0.62928
7242.44,0.61460
7219.29,0.61887
7196.15,0.61031
7173,0.61553
7149.86,0.62052
7126.71,0.61176
7103.57,0.61549
7080.42,0.61767
7057.28,0.62496
7034.13,0.62223
7010.99,0.62262
6987.84,0.61884
6964.7,0.62062
6941.55,0.62497
6918.41,0.62430
6895.26,0.63282
6872.12,0.63502
6848.97,0.63151
6825.83,0.63573
6802.68,0.62275
6779.54,0.61878
6756.39,0.61224
6733.25,0.60865
6710.1,0.59585
6686.96,0.59161
6663.82,0.59037
6640.67,0.59141
6617.53,0.59474
6594.38,0.60173
6571.24,0.60679
6548.09,0.61203
6524.95,0.62172
6501.8,0.63098
6478.66,0.63294
6455.51,0.64271
6432.37,0.64681
6409.22,0.64631
6386.08,0.64682
6362.93,0.65135
6339.79,0.65662
6316.64,0.65384
6293.5,0.64906
6270.35,0.65036
6247.21,0.65595
6224.06,0.64832
6200.92,0.64789
6177.77,0.64342
6154.63,0.63182
6131.48,0.62253
6108.34,0.60425
6085.19,0.58516
6062.05,0.57730
6038.9,0.57244
6015.76,0.55203
5992.61,0.52274
5969.47,0.46978
5946.32,0.41475
5923.18,0.41816
5900.03,0.39499
5876.89,0.42452
5853.74,0.42349
5830.6,0.40771
5807.45,0.38790
5784.31,0.37678
5761.16,0.38271
5738.02,0.40241
5714.87,0.42552
5691.73,0.43785
5668.58,0.43331
5645.44,0.44433
5622.29,0.46180
5599.15,0.47017
5576,0.47094
5552.86,0.47100
5529.71,0.47189
5506.57,0.47820
5483.42,0.48579
5460.28,0.48636
5437.13,0.49288
5413.99,0.50831
5390.84,0.52513
5367.7,0.53057
5344.55,0.53599
5321.41,0.54127
5298.26,0.53884
5275.12,0.52618
5251.97,0.51441
5228.83,0.50523
5205.68,0.49936
5182.54,0.50440
5159.39,0.50664
5136.25,0.50724
5113.1,0.50909
5089.96,0.50587
5066.81,0.49775
5043.67,0.49077
5020.52,0.47837
4997.38,0.45999
4974.23,0.43042
4951.09,0.40324
4927.94,0.38190
4904.8,0.36491
4881.65,0.35918
4858.51,0.35802
4835.36,0.36651
4812.22,0.38368
4789.07,0.40152
4765.93,0.41268
4742.78,0.41391
4719.64,0.40184
4696.49,0.38722
4673.35,0.37246
4650.2,0.36075
4627.06,0.34567
4603.92,0.35385
4580.77,0.35662
4557.63,0.35716
4534.48,0.35869
4511.34,0.35405
4488.19,0.34772
4465.05,0.31795
4441.9,0.25278
4418.76,0.18732
4395.61,0.18928
4372.47,0.17026
4349.32,0.13990
4326.18,0.13293
4303.03,0.15868
4279.89,0.17146
4256.74,0.17765
4233.6,0.18431
4210.45,0.19529
4187.31,0.20297
4164.16,0.19618
4141.02,0.19256
4117.87,0.18768
4094.73,0.17547
4071.58,0.15792
4048.44,0.14706
4025.29,0.14695
4002.15,0.15119
3979,0.16132
3955.86,0.17707
3932.71,0.19844
3909.57,0.21790
3886.42,0.22643
3863.28,0.23069
3840.13,0.23656
3816.99,0.24392
3793.84,0.24857
3770.7,0.26163
3747.55,0.28152
3724.41,0.29240
3701.26,0.29138
3678.12,0.26548
3654.97,0.23092
3631.83,0.19753
3608.68,0.16746
3585.54,0.14311
3562.39,0.12748
3539.25,0.11194
3516.1,0.09837
3492.96,0.09070
3469.81,0.08027
3446.67,0.06642
3423.52,0.05511
3400.38,0.04138
3377.23,0.03299
3354.09,0.02972
3330.94,0.02875
3307.8,0.02831
3284.65,0.02857
3261.51,0.03033
3238.36,0.03311
3215.22,0.03691
3192.07,0.03779
3168.93,0.04432
3145.78,0.04624
3122.64,0.04430
3099.49,0.04757
3076.35,0.04429
3053.2,0.04315
3030.06,0.04013
3006.91,0.03745
2983.77,0.02691
2960.62,0.02700
2937.48,0.02621
2914.33,0.02653
2891.19,0.02651
2868.04,0.02736
2844.9,0.03058
2821.75,0.03834
2798.61,0.04206
2775.46,0.04612
2752.32,0.05215
2729.17,0.05842
2706.03,0.07148
2682.88,0.08519
2659.74,0.09274
2636.59,0.09932
2613.45,0.11065
2590.3,0.10800
2567.16,0.12560
2544.02,0.13983
2520.87,0.14220
2497.73,0.14649
2474.58,0.15698
2451.44,0.16567
2428.29,0.17624
2405.15,0.17709
2382,0.17222
2358.86,0.16999
2335.71,0.16718
2312.57,0.15372
2289.42,0.12431
2266.28,0.10912
2243.13,0.11850
2219.99,0.13532
2196.84,0.14166
2173.7,0.14344
2150.55,0.14323
2127.41,0.14664
2104.26,0.14834
2081.12,0.14312
2057.97,0.14008
2034.83,0.13059
2011.68,0.12390
1988.54,0.12467
1965.39,0.12208
1942.25,0.12159
1919.1,0.11785
1895.96,0.11806
1872.81,0.12612
1849.67,0.12641
1826.52,0.11125
1803.38,0.09018
1780.23,0.07518
1757.09,0.04883
1733.94,0.02409
1710.8,0.02632
1687.65,0.02696
1664.51,0.02651
1641.36,0.02750
1618.22,0.02613
1595.07,0.02561
1571.93,0.02812
1548.78,0.02333
1525.64,0.02672
1502.49,0.02899
1479.35,0.02853
1456.2,0.02720
1433.06,0.03036
1409.91,0.02758
1386.77,0.02737
1363.62,0.02867
1340.48,0.02750
1317.33,0.02524
1294.19,0.02610
1271.04,0.02545
1247.9,0.02387
1224.75,0.02582
1201.61,0.02633
1178.46,0.02496
1155.32,0.02245
1132.17,0.02305
1109.03,0.02749
1085.88,0.03071
1062.74,0.03248
1039.59,0.03287
1016.45,0.03254
993.304,0.03834
970.159,0.04036
947.014,0.03864
923.869,0.03486
900.724,0.04040
877.579,0.03958
854.434,0.03754
831.289,0.03590
808.144,0.03669
784.999,0.04053
761.854,0.03625
738.709,0.04247
715.565,0.03791
692.42,0.03688
669.275,0.03586
646.13,0.03732
622.985,0.03752
599.84,0.03888

File: Memory_Foam_Carpet_Pad_IS_S_221003_R4.dpt
7497.03,0.71575
7473.89,0.71553
7450.74,0.70337
7427.6,0.70538
7404.45,0.69395
7381.31,0.67639
7358.16,0.66019
7335.02,0.65557
7311.87,0.65475
7288.73,0.63014
7265.58,0.62697
7242.44,0.62508
7219.29,0.62315
7196.15,0.60873
7173,0.60827
7149.86,0.61273
7126.71,0.62088
7103.57,0.62264
7080.42,0.62257
7057.28,0.62116
7034.13,0.62467
7010.99,0.61727
6987.84,0.61351
6964.7,0.61843
6941.55,0.62456
6918.41,0.62789
6895.26,0.62828
6872.12,0.63375
6848.97,0.63296
6825.83,0.64106
6802.68,0.63570
6779.54,0.61944
6756.39,0.61102
6733.25,0.60490
6710.1,0.60296
6686.96,0.58966
6663.82,0.59236
6640.67,0.59501
6617.53,0.59802
6594.38,0.59438
6571.24,0.60717
6548.09,0.61337
6524.95,0.62203
6501.8,0.62991
6478.66,0.63613
6455.51,0.64250
6432.37,0.64547
6409.22,0.64229
6386.08,0.64873
6362.93,0.65016
6339.79,0.65194
6316.64,0.65124
6293.5,0.65714
6270.35,0.65240
6247.21,0.65442
6224.06,0.64914
6200.92,0.64908
6177.77,0.64350
6154.63,0.63474
6131.48,0.62454
6108.34,0.60224
6085.19,0.58845
6062.05,0.57806
6038.9,0.57392
6015.76,0.55344
5992.61,0.52250
5969.47,0.47110
5946.32,0.41595
5923.18,0.41878
5900.03,0.39663
5876.89,0.42474
5853.74,0.42324
5830.6,0.40876
5807.45,0.39083
5784.31,0.37737
5761.16,0.38075
5738.02,0.40226
5714.87,0.42635
5691.73,0.43690
5668.58,0.43434
5645.44,0.44327
5622.29,0.46228
5599.15,0.47061
5576,0.47236
5552.86,0.47100
5529.71,0.47234
5506.57,0.47735
5483.42,0.48498
5460.28,0.48794
5437.13,0.49351
5413.99,0.51091
5390.84,0.52302
5367.7,0.53403
5344.55,0.53656
5321.41,0.54017
5298.26,0.54124
5275.12,0.52938
5251.97,0.51917
5228.83,0.51132
5205.68,0.50719
5182.54,0.50848
5159.39,0.51061
5136.25,0.51042
5113.1,0.51152
5089.96,0.50949
5066.81,0.50070
5043.67,0.49201
5020.52,0.48122
4997.38,0.46258
4974.23,0.43043
4951.09,0.40360
4927.94,0.38272
4904.8,0.36466
4881.65,0.35938
4858.51,0.35804
4835.36,0.36680
4812.22,0.38374
4789.07,0.40130
4765.93,0.41265
4742.78,0.41626
4719.64,0.40201
4696.49,0.38845
4673.35,0.37321
4650.2,0.36144
4627.06,0.34670
4603.92,0.35433
4580.77,0.35790
4557.63,0.35795
4534.48,0.35872
4511.34,0.35378
4488.19,0.34772
4465.05,0.31841
4441.9,0.25352
4418.76,0.18811
4395.61,0.19032
4372.47,0.17123
4349.32,0.13941
4326.18,0.13330
4303.03,0.15878
4279.89,0.17085
4256.74,0.17692
4233.6,0.18415
4210.45,0.19539
4187.31,0.20404
4164.16,0.19634
4141.02,0.19312
4117.87,0.18742
4094.73,0.17552
4071.58,0.15788
4048.44,0.14778
4025.29,0.14670
4002.15,0.15106
3979,0.16129
3955.86,0.17728
3932.71,0.19870
3909.57,0.21807
3886.42,0.22777
3863.28,0.23137
3840.13,0.23743
3816.99,0.24465
3793.84,0.24909
3770.7,0.26265
3747.55,0.28309
3724.41,0.29452
3701.26,0.29485
3678.12,0.27431
3654.97,0.24274
3631.83,0.21032
3608.68,0.18060
3585.54,0.15385
3562.39,0.13761
3539.25,0.11986
3516.1,0.10498
3492.96,0.09633
3469.81,0.08351
3446.67,0.06841
3423.52,0.05574
3400.38,0.04164
3377.23,0.03283
3354.09,0.02986
3330.94,0.02893
3307.8,0.02874
3284.65,0.02891
3261.51,0.03008
3238.36,0.03350
3215.22,0.03632
3192.07,0.03835
3168.93,0.04450
3145.78,0.04662
3122.64,0.04481
3099.49,0.04745
3076.35,0.04469
3053.2,0.04274
3030.06,0.04037
3006.91,0.03757
2983.77,0.02774
2960.62,0.02737
2937.48,0.02615
2914.33,0.02581
2891.19,0.02677
2868.04,0.02709
2844.9,0.03011
2821.75,0.03773
2798.61,0.04191
2775.46,0.04609
2752.32,0.05182
2729.17,0.05823
2706.03,0.07128
2682.88,0.08508
2659.74,0.09314
2636.59,0.09956
2613.45,0.11074
2590.3,0.10828
2567.16,0.12561
2544.02,0.14009
2520.87,0.14161
2497.73,0.14692
2474.58,0.15694
2451.44,0.16598
2428.29,0.17664
2405.15,0.17712
2382,0.17289
2358.86,0.17042
2335.71,0.16786
2312.57,0.15387
2289.42,0.12437
2266.28,0.10858
2243.13,0.11927
2219.99,0.13556
2196.84,0.14189
2173.7,0.14352
2150.55,0.14414
2127.41,0.14708
2104.26,0.14890
2081.12,0.14402
2057.97,0.14090
2034.83,0.13085
2011.68,0.12439
1988.54,0.12479
1965.39,0.12232
1942.25,0.12153
1919.1,0.11893
1895.96,0.11817
1872.81,0.12660
1849.67,0.12631
1826.52,0.11192
1803.38,0.09014
1780.23,0.07519
1757.09,0.04849
1733.94,0.02444
1710.8,0.02617
1687.65,0.02701
1664.51,0.02680
1641.36,0.02739
1618.22,0.02598
1595.07,0.02567
1571.93,0.02810
1548.78,0.02352
1525.64,0.02719
1502.49,0.02893
1479.35,0.02889
1456.2,0.02691
1433.06,0.03021
1409.91,0.02720
1386.77,0.02702
1363.62,0.02906
1340.48,0.02691
1317.33,0.02569
1294.19,0.02604
1271.04,0.02558
1247.9,0.02383
1224.75,0.02570
1201.61,0.02632
1178.46,0.02510
1155.32,0.02323
1132.17,0.02307
1109.03,0.02733
1085.88,0.03026
1062.74,0.03206
1039.59,0.03352
1016.45,0.03261
993.304,0.03785
970.159,0.04016
947.014,0.03821
923.869,0.03530
900.724,0.04097
877.579,0.03960
854.434,0.03751
831.289,0.03615
808.144,0.03703
784.999,0.04076
761.854,0.03522
738.709,0.04234
715.565,0.03745
692.42,0.03724
669.275,0.03560
646.13,0.03698
622.985,0.03769
599.84,0.03917