Folder: fsri_materials_database/01_Data/Memory_Foam_Carpet_Pad/FTIR/IS (part 2)

File: Memory_Foam_Carpet_Pad_IS_S_221003_R5.dpt
7497.03,0.71708
7473.89,0.71858
7450.74,0.71453
7427.6,0.71050
7404.45,0.70099
7381.31,0.67327
7358.16,0.67185
7335.02,0.65985
7311.87,0.66324
7288.73,0.63957
7265.58,0.62836
7242.44,0.62287
7219.29,0.61159
7196.15,0.60778
7173,0.61177
7149.86,0.61959
7126.71,0.62902
7103.57,0.62063
7080.42,0.61821
7057.28,0.62158
7034.13,0.62212
7010.99,0.61873
6987.84,0.62055
6964.7,0.61879
6941.55,0.62548
6918.41,0.63007
6895.26,0.63200
6872.12,0.64165
6848.97,0.63846
6825.83,0.64097
6802.68,0.63197
6779.54,0.61901
6756.39,0.61373
6733.25,0.61089
6710.1,0.59892
6686.96,0.59733
6663.82,0.59148
6640.67,0.59547
6617.53,0.59810
6594.38,0.60279
6571.24,0.60423
6548.09,0.61164
6524.95,0.62914
6501.8,0.63525
6478.66,0.63847
6455.51,0.64476
6432.37,0.64912
6409.22,0.64795
6386.08,0.65456
6362.93,0.65390
6339.79,0.65079
6316.64,0.65294
6293.5,0.65236
6270.35,0.65014
6247.21,0.65127
6224.06,0.65097
6200.92,0.65251
6177.77,0.64302
6154.63,0.63489
6131.48,0.62140
6108.34,0.60313
6085.19,0.59043
6062.05,0.58150
6038.9,0.57507
6015.76,0.55464
5992.61,0.52333
5969.47,0.47234
5946.32,0.41666
5923.18,0.41929
5900.03,0.39441
5876.89,0.42395
5853.74,0.42466
5830.6,0.40947
5807.45,0.39147
5784.31,0.37887
5761.16,0.38418
5738.02,0.40216
5714.87,0.42797
5691.73,0.43585
5668.58,0.43698
5645.44,0.44445
5622.29,0.46255
5599.15,0.47198
5576,0.47062
5552.86,0.47085
5529.71,0.47292
5506.57,0.47866
5483.42,0.48370
5460.28,0.48729
5437.13,0.49331
5413.99,0.51125
5390.84,0.52666
5367.7,0.53370
5344.55,0.53825
5321.41,0.54251
5298.26,0.54287
5275.12,0.53243
5251.97,0.52242
5228.83,0.51574
5205.68,0.51114
5182.54,0.51169
5159.39,0.51467
5136.25,0.51218
5113.1,0.51512
5089.96,0.51288
5066.81,0.50267
5043.67,0.49336
5020.52,0.48350
4997.38,0.46246
4974.23,0.43243
4951.09,0.40413
4927.94,0.38126
4904.8,0.36627
4881.65,0.35957
4858.51,0.35944
4835.36,0.36786
4812.22,0.38480
4789.07,0.40319
4765.93,0.41269
4742.78,0.41570
4719.64,0.40315
4696.49,0.38912
4673.35,0.37352
4650.2,0.36206
4627.06,0.34706
4603.92,0.35471
4580.77,0.35740
4557.63,0.35894
4534.48,0.35965
4511.34,0.35620
4488.19,0.34861
4465.05,0.31857
4441.9,0.25359
4418.76,0.18872
4395.61,0.19015
4372.47,0.17143
4349.32,0.13924
4326.18,0.13335
4303.03,0.15861
4279.89,0.17075
4256.74,0.17707
4233.6,0.18442
4210.45,0.19592
4187.31,0.20369
4164.16,0.19697
4141.02,0.19313
4117.87,0.18881
4094.73,0.17637
4071.58,0.15804
4048.44,0.14767
4025.29,0.14734
4002.15,0.15214
3979,0.16223
3955.86,0.17712
3932.71,0.19941
3909.57,0.21873
3886.42,0.22762
3863.28,0.23186
3840.13,0.23753
3816.99,0.24615
3793.84,0.25032
3770.7,0.26421
3747.55,0.28420
3724.41,0.29600
3701.26,0.29751
3678.12,0.27966
3654.97,0.24922
3631.83,0.21864
3608.68,0.18873
3585.54,0.16107
3562.39,0.14349
3539.25,0.12531
3516.1,0.10932
3492.96,0.09935
3469.81,0.08580
3446.67,0.06975
3423.52,0.05643
3400.38,0.04206
3377.23,0.03275
3354.09,0.03056
3330.94,0.02878
3307.8,0.02848
3284.65,0.02865
3261.51,0.03023
3238.36,0.03370
3215.22,0.03679
3192.07,0.03838
3168.93,0.04449
3145.78,0.04744
3122.64,0.04474
3099.49,0.04755
3076.35,0.04503
3053.2,0.04294
3030.06,0.04043
3006.91,0.03766
2983.77,0.02728
2960.62,0.02761
2937.48,0.02590
2914.33,0.02636
2891.19,0.02712
2868.04,0.02714
2844.9,0.03054
2821.75,0.03804
2798.61,0.04172
2775.46,0.04613
2752.32,0.05234
2729.17,0.05853
2706.03,0.07153
2682.88,0.08487
2659.74,0.09321
2636.59,0.09958
2613.45,0.11105
2590.3,0.10797
2567.16,0.12601
2544.02,0.14023
2520.87,0.14196
2497.73,0.14689
2474.58,0.15715
2451.44,0.16603
2428.29,0.17680
2405.15,0.17792
2382,0.17278
2358.86,0.17027
2335.71,0.16840
2312.57,0.15430
2289.42,0.12496
2266.28,0.10925
2243.13,0.11905
2219.99,0.13581
2196.84,0.14176
2173.7,0.14373
2150.55,0.14412
2127.41,0.14740
2104.26,0.14905
2081.12,0.14377
2057.97,0.14050
2034.83,0.13150
2011.68,0.12434
1988.54,0.12520
1965.39,0.12267
1942.25,0.12198
1919.1,0.11904
1895.96,0.11880
1872.81,0.12638
1849.67,0.12684
1826.52,0.11217
1803.38,0.09041
1780.23,0.07528
1757.09,0.04909
1733.94,0.02453
1710.8,0.02632
1687.65,0.02708
1664.51,0.02697
1641.36,0.02790
1618.22,0.02634
1595.07,0.02505
1571.93,0.02805
1548.78,0.02322
1525.64,0.02669
1502.49,0.02886
1479.35,0.02880
1456.2,0.02657
1433.06,0.03001
1409.91,0.02752
1386.77,0.02696
1363.62,0.02879
1340.48,0.02728
1317.33,0.02541
1294.19,0.02583
1271.04,0.02549
1247.9,0.02349
1224.75,0.02575
1201.61,0.02679
1178.46,0.02495
1155.32,0.02322
1132.17,0.02323
1109.03,0.02695
1085.88,0.03065
1062.74,0.03197
1039.59,0.03246
1016.45,0.03233
993.304,0.03820
970.159,0.04021
947.014,0.03909
923.869,0.03526
900.724,0.04102
877.579,0.03981
854.434,0.03778
831.289,0.03613
808.144,0.03636
784.999,0.04086
761.854,0.03585
738.709,0.04258
715.565,0.03880
692.42,0.03726
669.275,0.03509
646.13,0.03797
622.985,0.03911
599.84,0.04037

File: Memory_Foam_Carpet_Pad_IS_S_221003_R6.dpt
7497.03,0.71914
7473.89,0.71395
7450.74,0.70942
7427.6,0.70461
7404.45,0.70236
7381.31,0.67143
7358.16,0.66371
7335.02,0.66104
7311.87,0.65928
7288.73,0.63636
7265.58,0.62223
7242.44,0.62043
7219.29,0.61866
7196.15,0.60849
7173,0.61298
7149.86,0.61766
7126.71,0.61920
7103.57,0.61945
7080.42,0.61303
7057.28,0.62186
7034.13,0.61890
7010.99,0.61852
6987.84,0.61414
6964.7,0.61802
6941.55,0.62160
6918.41,0.62470
6895.26,0.62668
6872.12,0.63656
6848.97,0.63581
6825.83,0.63633
6802.68,0.62696
6779.54,0.62242
6756.39,0.61397
6733.25,0.60814
6710.1,0.60258
6686.96,0.59348
6663.82,0.58930
6640.67,0.59393
6617.53,0.59950
6594.38,0.59753
6571.24,0.60044
6548.09,0.61205
6524.95,0.62470
6501.8,0.63261
6478.66,0.63457
6455.51,0.64047
6432.37,0.64172
6409.22,0.64771
6386.08,0.64910
6362.93,0.65082
6339.79,0.64311
6316.64,0.64956
6293.5,0.64861
6270.35,0.64783
6247.21,0.65343
6224.06,0.64810
6200.92,0.64629
6177.77,0.64180
6154.63,0.63472
6131.48,0.62232
6108.34,0.60116
6085.19,0.58351
6062.05,0.57715
6038.9,0.57204
6015.76,0.54805
5992.61,0.51909
5969.47,0.46949
5946.32,0.41425
5923.18,0.41532
5900.03,0.39226
5876.89,0.42209
5853.74,0.42195
5830.6,0.40650
5807.45,0.38836
5784.31,0.37331
5761.16,0.37983
5738.02,0.40100
5714.87,0.42610
5691.73,0.43442
5668.58,0.43255
5645.44,0.44301
5622.29,0.45812
5599.15,0.46947
5576,0.46800
5552.86,0.46901
5529.71,0.47079
5506.57,0.47457
5483.42,0.48240
5460.28,0.48589
5437.13,0.49237
5413.99,0.50848
5390.84,0.52352
5367.7,0.53244
5344.55,0.53286
5321.41,0.53894
5298.26,0.53953
5275.12,0.53064
5251.97,0.52222
5228.83,0.51351
5205.68,0.51149
5182.54,0.51121
5159.39,0.51222
5136.25,0.51292
5113.1,0.51462
5089.96,0.50929
5066.81,0.50021
5043.67,0.49057
5020.52,0.47857
4997.38,0.46005
4974.23,0.42938
4951.09,0.40166
4927.94,0.37957
4904.8,0.36333
4881.65,0.35783
4858.51,0.35673
4835.36,0.36565
4812.22,0.38306
4789.07,0.39993
4765.93,0.41180
4742.78,0.41460
4719.64,0.40163
4696.49,0.38652
4673.35,0.37213
4650.2,0.35885
4627.06,0.34479
4603.92,0.35230
4580.77,0.35605
4557.63,0.35710
4534.48,0.35617
4511.34,0.35265
4488.19,0.34628
4465.05,0.31666
4441.9,0.25145
4418.76,0.18679
4395.61,0.18961
4372.47,0.17012
4349.32,0.13832
4326.18,0.13208
4303.03,0.15845
4279.89,0.16979
4256.74,0.17661
4233.6,0.18364
4210.45,0.19535
4187.31,0.20252
4164.16,0.19582
4141.02,0.19269
4117.87,0.18751
4094.73,0.17520
4071.58,0.15766
4048.44,0.14758
4025.29,0.14653
4002.15,0.15129
3979,0.16064
3955.86,0.17647
3932.71,0.19835
3909.57,0.21718
3886.42,0.22749
3863.28,0.23135
3840.13,0.23670
3816.99,0.24480
3793.84,0.24886
3770.7,0.26226
3747.55,0.28280
3724.41,0.29510
3701.26,0.29766
3678.12,0.28201
3654.97,0.25283
3631.83,0.22462
3608.68,0.19434
3585.54,0.16653
3562.39,0.14803
3539.25,0.12845
3516.1,0.11238
3492.96,0.10180
3469.81,0.08722
3446.67,0.06989
3423.52,0.05613
3400.38,0.04184
3377.23,0.03352
3354.09,0.03043
3330.94,0.02871
3307.8,0.02815
3284.65,0.02872
3261.51,0.03014
3238.36,0.03274
3215.22,0.03751
3192.07,0.03858
3168.93,0.04432
3145.78,0.04711
3122.64,0.04504
3099.49,0.04797
3076.35,0.04447
3053.2,0.04256
3030.06,0.04057
3006.91,0.03695
2983.77,0.02695
2960.62,0.02730
2937.48,0.02587
2914.33,0.02633
2891.19,0.02722
2868.04,0.02750
2844.9,0.03011
2821.75,0.03774
2798.61,0.04179
2775.46,0.04601
2752.32,0.05188
2729.17,0.05758
2706.03,0.07147
2682.88,0.08462
2659.74,0.09301
2636.59,0.09933
2613.45,0.11057
2590.3,0.10767
2567.16,0.12539
2544.02,0.13972
2520.87,0.14151
2497.73,0.14620
2474.58,0.15637
2451.44,0.16510
2428.29,0.17559
2405.15,0.17660
2382,0.17191
2358.86,0.16985
2335.71,0.16787
2312.57,0.15356
2289.42,0.12413
2266.28,0.10887
2243.13,0.11867
2219.99,0.13561
2196.84,0.14155
2173.7,0.14285
2150.55,0.14371
2127.41,0.14659
2104.26,0.14863
2081.12,0.14383
2057.97,0.14011
2034.83,0.13064
2011.68,0.12407
1988.54,0.12453
1965.39,0.12210
1942.25,0.12148
1919.1,0.11851
1895.96,0.11781
1872.81,0.12609
1849.67,0.12631
1826.52,0.11153
1803.38,0.09004
1780.23,0.07518
1757.09,0.04852
1733.94,0.02498
1710.8,0.02592
1687.65,0.02757
1664.51,0.02682
1641.36,0.02796
1618.22,0.02638
1595.07,0.02534
1571.93,0.02783
1548.78,0.02413
1525.64,0.02715
1502.49,0.02907
1479.35,0.02856
1456.2,0.02687
1433.06,0.03039
1409.91,0.02744
1386.77,0.02737
1363.62,0.02861
1340.48,0.02737
1317.33,0.02560
1294.19,0.02604
1271.04,0.02552
1247.9,0.02416
1224.75,0.02585
1201.61,0.02692
1178.46,0.02476
1155.32,0.02289
1132.17,0.02374
1109.03,0.02754
1085.88,0.03123
1062.74,0.03242
1039.59,0.03308
1016.45,0.03328
993.304,0.03817
970.159,0.04059
947.014,0.03893
923.869,0.03494
900.724,0.04075
877.579,0.03952
854.434,0.03823
831.289,0.03640
808.144,0.03671
784.999,0.04050
761.854,0.03656
738.709,0.04324
715.565,0.03850
692.42,0.03828
669.275,0.03501
646.13,0.03769
622.985,0.03870
599.84,0.03856

File: Memory_Foam_Carpet_Pad_IS_S_221003_R7.dpt
7497.03,0.72325
7473.89,0.73001
7450.74,0.71257
7427.6,0.70551
7404.45,0.69016
7381.31,0.66839
7358.16,0.66232
7335.02,0.66382
7311.87,0.66064
7288.73,0.64422
7265.58,0.62558
7242.44,0.62917
7219.29,0.61583
7196.15,0.61212
7173,0.61677
7149.86,0.61158
7126.71,0.62129
7103.57,0.62133
7080.42,0.62438
7057.28,0.62841
7034.13,0.62218
7010.99,0.62344
6987.84,0.62074
6964.7,0.62488
6941.55,0.62522
6918.41,0.63563
6895.26,0.63521
6872.12,0.63412
6848.97,0.63420
6825.83,0.64460
6802.68,0.63582
6779.54,0.62264
6756.39,0.61523
6733.25,0.61116
6710.1,0.60202
6686.96,0.59785
6663.82,0.59608
6640.67,0.59343
6617.53,0.60152
6594.38,0.60394
6571.24,0.60941
6548.09,0.61913
6524.95,0.62500
6501.8,0.63494
6478.66,0.63641
6455.51,0.64772
6432.37,0.64738
6409.22,0.64688
6386.08,0.65173
6362.93,0.65477
6339.79,0.65618
6316.64,0.65201
6293.5,0.65514
6270.35,0.65348
6247.21,0.65401
6224.06,0.65463
6200.92,0.65129
6177.77,0.64692
6154.63,0.63705
6131.48,0.62784
6108.34,0.60662
6085.19,0.58616
6062.05,0.57904
6038.9,0.57439
6015.76,0.55506
5992.61,0.52421
5969.47,0.47479
5946.32,0.41736
5923.18,0.41879
5900.03,0.39739
5876.89,0.42647
5853.74,0.42673
5830.6,0.40837
5807.45,0.39244
5784.31,0.37733
5761.16,0.38185
5738.02,0.40097
5714.87,0.42828
5691.73,0.43959
5668.58,0.43573
5645.44,0.44547
5622.29,0.46382
5599.15,0.47140
5576,0.47266
5552.86,0.47248
5529.71,0.47175
5506.57,0.47974
5483.42,0.48762
5460.28,0.48945
5437.13,0.49545
5413.99,0.51144
5390.84,0.52691
5367.7,0.53397
5344.55,0.53850
5321.41,0.54309
5298.26,0.54422
5275.12,0.53635
5251.97,0.52766
5228.83,0.52038
5205.68,0.51631
5182.54,0.51792
5159.39,0.51741
5136.25,0.51920
5113.1,0.51755
5089.96,0.51301
5066.81,0.50563
5043.67,0.49467
5020.52,0.48386
4997.38,0.46216
4974.23,0.43248
4951.09,0.40623
4927.94,0.38451
4904.8,0.36620
4881.65,0.36045
4858.51,0.35972
4835.36,0.36751
4812.22,0.38615
4789.07,0.40270
4765.93,0.41528
4742.78,0.41709
4719.64,0.40430
4696.49,0.39005
4673.35,0.37493
4650.2,0.36342
4627.06,0.34780
4603.92,0.35516
4580.77,0.35885
4557.63,0.35996
4534.48,0.36025
4511.34,0.35597
4488.19,0.34999
4465.05,0.31871
4441.9,0.25312
4418.76,0.18845
4395.61,0.19047
4372.47,0.17114
4349.32,0.13935
4326.18,0.13334
4303.03,0.15937
4279.89,0.17153
4256.74,0.17813
4233.6,0.18463
4210.45,0.19643
4187.31,0.20447
4164.16,0.19760
4141.02,0.19284
4117.87,0.18897
4094.73,0.17660
4071.58,0.15814
4048.44,0.14779
4025.29,0.14732
4002.15,0.15220
3979,0.16225
3955.86,0.17780
3932.71,0.19964
3909.57,0.21915
3886.42,0.22877
3863.28,0.23299
3840.13,0.23812
3816.99,0.24701
3793.84,0.25150
3770.7,0.26450
3747.55,0.28545
3724.41,0.29774
3701.26,0.30082
3678.12,0.28691
3654.97,0.25954
3631.83,0.23152
3608.68,0.20161
3585.54,0.17285
3562.39,0.15296
3539.25,0.13317
3516.1,0.11646
3492.96,0.10570
3469.81,0.08940
3446.67,0.07140
3423.52,0.05682
3400.38,0.04151
3377.23,0.03365
3354.09,0.02952
3330.94,0.02914
3307.8,0.02851
3284.65,0.02778
3261.51,0.02985
3238.36,0.03329
3215.22,0.03735
3192.07,0.03853
3168.93,0.04538
3145.78,0.04732
3122.64,0.04516
3099.49,0.04788
3076.35,0.04524
3053.2,0.04254
3030.06,0.04032
3006.91,0.03768
2983.77,0.02798
2960.62,0.02750
2937.48,0.02561
2914.33,0.02632
2891.19,0.02695
2868.04,0.02699
2844.9,0.03065
2821.75,0.03770
2798.61,0.04182
2775.46,0.04609
2752.32,0.05222
2729.17,0.05817
2706.03,0.07189
2682.88,0.08529
2659.74,0.09316
2636.59,0.09965
2613.45,0.11132
2590.3,0.10857
2567.16,0.12606
2544.02,0.14046
2520.87,0.14197
2497.73,0.14755
2474.58,0.15778
2451.44,0.16614
2428.29,0.17747
2405.15,0.17812
2382,0.17311
2358.86,0.17095
2335.71,0.16869
2312.57,0.15474
2289.42,0.12521
2266.28,0.10921
2243.13,0.11953
2219.99,0.13605
2196.84,0.14277
2173.7,0.14428
2150.55,0.14440
2127.41,0.14831
2104.26,0.14991
2081.12,0.14445
2057.97,0.14126
2034.83,0.13156
2011.68,0.12481
1988.54,0.12572
1965.39,0.12305
1942.25,0.12272
1919.1,0.11890
1895.96,0.11882
1872.81,0.12686
1849.67,0.12730
1826.52,0.11223
1803.38,0.09090
1780.23,0.07574
1757.09,0.04866
1733.94,0.02457
1710.8,0.02614
1687.65,0.02675
1664.51,0.02707
1641.36,0.02782
1618.22,0.02639
1595.07,0.02535
1571.93,0.02802
1548.78,0.02345
1525.64,0.02723
1502.49,0.02891
1479.35,0.02842
1456.2,0.02679
1433.06,0.03040
1409.91,0.02765
1386.77,0.02731
1363.62,0.02908
1340.48,0.02736
1317.33,0.02512
1294.19,0.02605
1271.04,0.02561
1247.9,0.02373
1224.75,0.02547
1201.61,0.02701
1178.46,0.02472
1155.32,0.02367
1132.17,0.02330
1109.03,0.02762
1085.88,0.03041
1062.74,0.03171
1039.59,0.03253
1016.45,0.03301
993.304,0.03797
970.159,0.04075
947.014,0.03904
923.869,0.03543
900.724,0.04076
877.579,0.03964
854.434,0.03798
831.289,0.03657
808.144,0.03653
784.999,0.04079
761.854,0.03540
738.709,0.04320
715.565,0.03874
692.42,0.03718
669.275,0.03532
646.13,0.03761
622.985,0.03719
599.84,0.03622

File: Memory_Foam_Carpet_Pad_IS_S_221003_R8.dpt
7497.03,0.71843
7473.89,0.72693
7450.74,0.71343
7427.6,0.70458
7404.45,0.68891
7381.31,0.67372
7358.16,0.66191
7335.02,0.66042
7311.87,0.65421
7288.73,0.64044
7265.58,0.63083
7242.44,0.62173
7219.29,0.61365
7196.15,0.60404
7173,0.61109
7149.86,0.62078
7126.71,0.62556
7103.57,0.62353
7080.42,0.62187
7057.28,0.62140
7034.13,0.62496
7010.99,0.62117
6987.84,0.61978
6964.7,0.61612
6941.55,0.62373
6918.41,0.62603
6895.26,0.63329
6872.12,0.63716
6848.97,0.64364
6825.83,0.63465
6802.68,0.63533
6779.54,0.62758
6756.39,0.61936
6733.25,0.61194
6710.1,0.59916
6686.96,0.59366
6663.82,0.59754
6640.67,0.59286
6617.53,0.59648
6594.38,0.59468
6571.24,0.60591
6548.09,0.61632
6524.95,0.62349
6501.8,0.63566
6478.66,0.63905
6455.51,0.64632
6432.37,0.64657
6409.22,0.64900
6386.08,0.64949
6362.93,0.65277
6339.79,0.65403
6316.64,0.65101
6293.5,0.65261
6270.35,0.65421
6247.21,0.65360
6224.06,0.64992
6200.92,0.64755
6177.77,0.63987
6154.63,0.63381
6131.48,0.62209
6108.34,0.60408
6085.19,0.58580
6062.05,0.57815
6038.9,0.57237
6015.76,0.55188
5992.61,0.52128
5969.47,0.47298
5946.32,0.41460
5923.18,0.41995
5900.03,0.39452
5876.89,0.42480
5853.74,0.42320
5830.6,0.40871
5807.45,0.39209
5784.31,0.37697
5761.16,0.37977
5738.02,0.40199
5714.87,0.42629
5691.73,0.43748
5668.58,0.43324
5645.44,0.44565
5622.29,0.46265
5599.15,0.46758
5576,0.47169
5552.86,0.47042
5529.71,0.47045
5506.57,0.47726
5483.42,0.48456
5460.28,0.48732
5437.13,0.49153
5413.99,0.50916
5390.84,0.52541
5367.7,0.53296
5344.55,0.53663
5321.41,0.54001
5298.26,0.54178
5275.12,0.53289
5251.97,0.52513
5228.83,0.51783
5205.68,0.51683
5182.54,0.51732
5159.39,0.51664
5136.25,0.51603
5113.1,0.51737
5089.96,0.51099
5066.81,0.50260
5043.67,0.49350
5020.52,0.48209
4997.38,0.46237
4974.23,0.43063
4951.09,0.40356
4927.94,0.38134
4904.8,0.36406
4881.65,0.35943
4858.51,0.35822
4835.36,0.36695
4812.22,0.38483
4789.07,0.40210
4765.93,0.41440
4742.78,0.41523
4719.64,0.40198
4696.49,0.38908
4673.35,0.37306
4650.2,0.36085
4627.06,0.34673
4603.92,0.35408
4580.77,0.35737
4557.63,0.35861
4534.48,0.35772
4511.34,0.35459
4488.19,0.34760
4465.05,0.31857
4441.9,0.25271
4418.76,0.18780
4395.61,0.19002
4372.47,0.17019
4349.32,0.13964
4326.18,0.13257
4303.03,0.15784
4279.89,0.17064
4256.74,0.17637
4233.6,0.18460
4210.45,0.19542
4187.31,0.20419
4164.16,0.19734
4141.02,0.19271
4117.87,0.18818
4094.73,0.17551
4071.58,0.15734
4048.44,0.14754
4025.29,0.14683
4002.15,0.15161
3979,0.16152
3955.86,0.17660
3932.71,0.19912
3909.57,0.21801
3886.42,0.22824
3863.28,0.23113
3840.13,0.23702
3816.99,0.24572
3793.84,0.25011
3770.7,0.26367
3747.55,0.28377
3724.41,0.29672
3701.26,0.29998
3678.12,0.28695
3654.97,0.26147
3631.83,0.23389
3608.68,0.20451
3585.54,0.17528
3562.39,0.15526
3539.25,0.13481
3516.1,0.11731
3492.96,0.10591
3469.81,0.08995
3446.67,0.07044
3423.52,0.05668
3400.38,0.04265
3377.23,0.03348
3354.09,0.02977
3330.94,0.02911
3307.8,0.02808
3284.65,0.02938
3261.51,0.03032
3238.36,0.03339
3215.22,0.03667
3192.07,0.03871
3168.93,0.04509
3145.78,0.04744
3122.64,0.04547
3099.49,0.04811
3076.35,0.04457
3053.2,0.04343
3030.06,0.04033
3006.91,0.03775
2983.77,0.02742
2960.62,0.02737
2937.48,0.02632
2914.33,0.02665
2891.19,0.02690
2868.04,0.02785
2844.9,0.03049
2821.75,0.03807
2798.61,0.04211
2775.46,0.04633
2752.32,0.05175
2729.17,0.05830
2706.03,0.07128
2682.88,0.08533
2659.74,0.09335
2636.59,0.09914
2613.45,0.11060
2590.3,0.10848
2567.16,0.12572
2544.02,0.14020
2520.87,0.14170
2497.73,0.14632
2474.58,0.15697
2451.44,0.16588
2428.29,0.17673
2405.15,0.17731
2382,0.17220
2358.86,0.17021
2335.71,0.16749
2312.57,0.15380
2289.42,0.12458
2266.28,0.10937
2243.13,0.11938
2219.99,0.13543
2196.84,0.14199
2173.7,0.14377
2150.55,0.14415
2127.41,0.14710
2104.26,0.14898
2081.12,0.14390
2057.97,0.14116
2034.83,0.13098
2011.68,0.12438
1988.54,0.12539
1965.39,0.12258
1942.25,0.12159
1919.1,0.11880
1895.96,0.11832
1872.81,0.12639
1849.67,0.12646
1826.52,0.11189
1803.38,0.09032
1780.23,0.07496
1757.09,0.04876
1733.94,0.02484
1710.8,0.02609
1687.65,0.02694
1664.51,0.02705
1641.36,0.02800
1618.22,0.02603
1595.07,0.02546
1571.93,0.02814
1548.78,0.02372
1525.64,0.02696
1502.49,0.02894
1479.35,0.02875
1456.2,0.02703
1433.06,0.03044
1409.91,0.02756
1386.77,0.02755
1363.62,0.02867
1340.48,0.02732
1317.33,0.02502
1294.19,0.02600
1271.04,0.02564
1247.9,0.02389
1224.75,0.02565
1201.61,0.02664
1178.46,0.02521
1155.32,0.02303
1132.17,0.02315
1109.03,0.02679
1085.88,0.03058
1062.74,0.03212
1039.59,0.03356
1016.45,0.03206
993.304,0.03853
970.159,0.04049
947.014,0.03831
923.869,0.03503
900.724,0.04006
877.579,0.03993
854.434,0.03739
831.289,0.03691
808.144,0.03667
784.999,0.04163
761.854,0.03623
738.709,0.04362
715.565,0.03799
692.42,0.03861
669.275,0.03552
646.13,0.03760
622.985,0.03922
599.84,0.03643