Folder: fsri_materials_database/01_Data/EPDM_Membrane/Cone (part 2)

File: EPDM_Membrane_HRRPUA_75.csv
Time after Ignition,EPDM_Membrane_R1,EPDM_Membrane_R2,EPDM_Membrane_R3,EPDM_Membrane_R4,Mean,Std. Dev.
0.0,19.4,9.2,14.0,12.5,13.8,4.2
2.25,50.3,66.6,82.8,73.0,68.2,13.6
4.5,111.8,143.0,162.2,236.9,163.5,53.2
6.75,196.6,224.2,229.2,395.6,261.4,90.6
9.0,277.5,293.9,301.6,516.6,347.4,113.2
11.25,344.0,350.3,373.6,634.9,425.7,140.0
13.5,430.2,407.4,419.4,685.2,485.5,133.4
15.75,516.0,466.3,460.3,724.9,541.9,124.6
18.0,548.8,515.2,520.4,753.4,584.5,113.6
20.25,594.2,549.5,544.2,730.2,604.5,86.7
22.5,606.3,564.2,572.9,729.0,618.1,76.1
24.75,613.1,586.6,564.9,702.1,616.7,60.2
27.0,617.5,572.6,588.9,668.4,611.9,42.0
29.25,605.5,570.6,569.6,673.0,604.7,48.5
31.5,610.1,581.6,550.4,621.0,590.8,31.6
33.75,619.7,586.4,560.4,603.7,592.5,25.4
36.0,587.5,573.7,537.4,584.3,570.7,23.0
38.25,598.4,580.1,523.6,572.2,568.6,31.9
40.5,558.7,573.7,533.9,541.5,552.0,17.9
42.75,549.8,551.4,525.0,521.1,536.8,16.0
45.0,529.0,553.4,514.9,526.4,530.9,16.2
47.25,524.7,536.7,523.4,508.3,523.3,11.6
49.5,513.8,553.2,496.9,502.2,516.5,25.4
51.75,503.0,520.4,490.7,487.1,500.3,15.0
54.0,494.7,517.7,493.4,478.2,496.0,16.3
56.25,489.6,516.7,478.6,456.1,485.3,25.2
58.5,481.8,502.0,482.2,447.8,478.5,22.5
60.75,467.6,502.7,476.2,442.7,472.3,24.8
63.0,468.5,494.5,461.2,441.2,466.4,22.0
65.25,461.1,491.5,458.7,435.9,461.8,22.8
67.5,448.7,499.3,440.5,429.1,454.4,31.0
69.75,445.5,483.8,467.2,416.9,453.4,28.9
72.0,440.2,476.0,459.5,418.0,448.4,25.0
74.25,443.0,474.1,457.5,415.3,447.5,25.0
76.5,441.6,475.6,462.9,409.2,447.3,29.0
78.75,430.8,475.7,450.9,406.7,441.0,29.3
81.0,433.6,477.7,451.1,402.2,441.2,31.7
83.25,427.3,463.7,457.8,399.6,437.1,29.7
85.5,431.7,469.0,462.1,392.6,438.9,34.8
87.75,434.9,476.3,458.1,392.3,440.4,36.3
90.0,435.1,469.5,465.1,412.9,445.6,26.7
92.25,438.4,470.1,444.5,390.2,435.8,33.3
94.5,427.8,461.2,460.4,398.4,437.0,30.1
96.75,431.0,461.1,457.7,396.7,436.6,29.8
99.0,437.9,459.8,457.9,405.0,440.2,25.4
101.25,438.1,459.6,476.2,413.6,446.9,27.1
103.5,441.3,460.3,461.7,419.0,445.5,20.0
105.75,437.7,465.5,463.3,420.3,446.7,21.6
108.0,437.0,458.0,449.6,437.6,445.5,10.2
110.25,431.2,457.1,460.0,448.7,449.2,12.9
112.5,446.7,459.2,474.2,449.0,457.3,12.5
114.75,446.2,463.3,463.0,456.8,457.3,8.0
117.0,441.5,473.6,473.9,487.1,469.0,19.4
119.25,468.7,481.8,472.3,509.8,483.2,18.6
121.5,468.9,497.7,496.8,551.6,503.8,34.6
123.75,470.9,507.6,501.7,597.4,519.4,54.4
126.0,481.7,519.4,544.3,642.3,546.9,68.6
128.25,506.1,534.6,586.6,700.2,581.9,85.6
130.5,538.8,556.8,626.6,769.1,622.8,104.6
132.75,557.0,571.3,642.9,799.9,642.8,111.3
135.0,587.7,589.0,625.7,799.1,650.4,100.7
137.25,587.7,598.8,630.5,823.2,660.0,110.3
139.5,585.3,596.6,644.6,772.6,649.8,85.8
141.75,576.6,583.8,646.3,738.7,636.3,75.1
144.0,545.6,582.3,617.2,688.5,608.4,60.9
146.25,542.8,553.3,601.1,649.3,586.6,48.9
148.5,510.9,564.0,578.6,612.1,566.4,42.1
150.75,521.7,550.9,547.2,561.5,545.3,16.9
153.0,507.0,542.6,538.9,525.4,528.5,16.1
155.25,518.9,535.3,508.7,518.2,520.3,11.0
157.5,507.9,523.6,532.3,502.7,516.6,13.7
159.75,496.1,517.4,506.2,496.9,504.1,10.0
162.0,504.7,502.6,520.9,485.2,503.3,14.6
164.25,491.4,508.3,504.0,487.1,497.7,10.1
166.5,485.5,491.6,505.5,493.8,494.1,8.3
168.75,496.0,498.5,503.7,487.9,496.5,6.6
171.0,497.4,480.0,499.6,484.1,490.3,9.7
173.25,497.9,484.6,503.5,479.1,491.3,11.4
175.5,506.9,482.3,483.4,478.2,487.7,13.0
177.75,501.1,472.7,470.6,476.0,480.1,14.2
180.0,488.0,475.6,462.6,460.9,471.7,12.6
182.25,498.3,466.7,454.3,466.8,471.5,18.8
184.5,494.5,471.5,457.5,452.9,469.1,18.7
186.75,488.0,450.9,451.2,446.4,459.1,19.4
189.0,479.4,453.8,441.4,439.3,453.5,18.4
191.25,469.8,442.7,439.2,426.2,444.5,18.3
193.5,467.1,444.2,434.0,412.5,439.5,22.7
195.75,464.8,440.6,439.2,404.6,437.3,24.8
198.0,453.5,441.5,433.9,392.2,430.3,26.7
200.25,442.2,434.2,425.5,385.0,421.7,25.4
202.5,448.0,426.1,440.0,380.3,423.6,30.3
204.75,446.6,422.9,439.6,366.5,418.9,36.3
207.0,444.8,427.5,427.7,360.8,415.2,37.1
209.25,434.4,432.1,432.2,351.1,412.4,40.9
211.5,441.2,423.5,427.7,353.6,411.5,39.4
213.75,428.3,427.2,420.7,347.2,405.8,39.2
216.0,439.3,425.8,431.8,344.1,410.2,44.5
218.25,439.9,424.8,451.0,338.8,413.6,51.0
220.5,433.6,426.5,431.9,339.9,408.0,45.5
222.75,433.5,423.0,432.6,344.3,408.4,42.9
225.0,437.7,416.4,445.5,349.0,412.1,43.9
227.25,431.5,429.0,445.4,353.7,414.9,41.4
229.5,431.5,423.5,444.2,366.3,416.4,34.5
231.75,425.2,428.0,450.2,362.4,416.4,37.7
234.0,433.2,424.6,446.2,356.5,415.1,40.1
236.25,427.2,430.2,439.5,364.8,415.4,34.2
238.5,438.9,429.6,451.6,364.2,421.1,39.0
240.75,445.7,422.5,446.0,368.1,420.6,36.6
243.0,443.5,432.0,460.0,361.0,424.1,43.6
245.25,442.6,437.7,439.4,360.3,420.0,39.9
247.5,444.8,430.9,440.0,358.1,418.5,40.6
249.75,449.2,425.3,416.9,351.2,410.6,41.9
252.0,459.6,415.5,415.4,360.0,412.6,40.8
254.25,457.6,419.8,414.0,353.6,411.3,43.0
256.5,448.3,413.6,418.9,344.8,406.4,43.8
258.75,461.1,411.5,417.1,336.7,406.6,51.6
261.0,462.3,411.0,408.7,338.4,405.1,50.9
263.25,466.5,408.5,401.4,329.8,401.5,56.0
265.5,476.0,397.5,400.1,332.3,401.5,58.8
267.75,471.0,389.4,386.8,324.3,392.8,60.1
270.0,465.0,380.9,390.6,317.7,388.5,60.3
272.25,476.0,375.3,378.9,313.2,385.9,67.2
274.5,462.9,376.2,371.7,309.7,380.1,63.0
276.75,460.2,366.4,369.3,304.5,375.1,64.1
279.0,466.9,357.9,375.1,302.6,375.6,68.3
281.25,450.3,361.0,356.2,291.5,364.8,65.2
283.5,452.1,356.7,343.7,280.6,358.3,70.8
285.75,439.2,345.9,342.6,276.9,351.2,66.8
288.0,448.1,339.8,332.7,268.6,347.3,74.4
290.25,436.6,328.1,322.8,265.1,338.1,71.6
292.5,434.3,323.3,316.7,256.7,332.7,74.0
294.75,424.2,315.1,304.9,249.4,323.4,73.1
297.0,417.7,309.9,300.5,245.8,318.5,71.9
299.25,410.9,307.6,292.6,239.1,312.5,71.8
301.5,390.7,300.3,284.9,234.1,302.5,65.2
303.75,391.8,296.0,284.2,227.4,299.9,68.2
306.0,386.7,290.4,277.9,222.9,294.5,68.1
308.25,371.4,284.5,281.2,221.4,289.6,61.7
310.5,355.1,282.5,269.5,215.2,280.6,57.6
312.75,345.2,274.5,267.0,210.2,274.2,55.3
315.0,336.5,274.8,258.5,206.8,269.1,53.5
317.25,332.1,268.2,252.8,200.4,263.4,54.2
319.5,319.5,264.7,251.2,195.1,257.6,51.1
321.75,309.8,262.1,245.4,196.3,253.4,46.8
324.0,304.3,253.4,237.4,190.2,246.3,47.1
326.25,295.6,256.2,233.2,186.4,242.8,45.6
328.5,283.4,253.1,230.1,182.6,237.3,42.5
330.75,274.5,248.6,227.8,179.0,232.5,40.5
333.0,268.0,245.6,219.6,177.8,227.8,38.7
335.25,262.5,240.2,216.3,173.6,223.1,38.1
337.5,253.7,236.0,210.1,170.9,217.7,36.0
339.75,248.9,232.2,203.1,167.1,212.8,35.9
342.0,240.4,228.4,199.3,166.9,208.8,32.8
344.25,232.4,224.6,196.6,166.5,205.0,29.9
346.5,223.6,220.0,192.8,165.7,200.5,27.0
348.75,219.5,215.3,188.6,163.1,196.6,26.2
351.0,215.4,212.8,181.8,162.6,193.2,25.5
353.25,209.2,208.3,177.7,159.7,188.7,24.2
355.5,203.7,203.1,177.6,155.9,185.1,22.9
357.75,196.1,201.1,169.4,156.0,180.7,21.6
360.0,192.6,194.4,169.7,153.7,177.6,19.5
362.25,189.4,193.2,164.7,151.3,174.6,20.0
364.5,184.6,191.0,158.3,151.8,171.4,19.3
366.75,181.6,187.2,154.7,152.6,169.0,17.9
369.0,177.1,183.4,153.5,150.8,166.2,16.5
371.25,173.7,181.3,153.1,149.3,164.3,15.6
373.5,171.8,175.5,145.7,149.1,160.5,15.3
375.75,165.6,174.3,142.3,147.4,157.4,15.1
378.0,163.2,168.0,137.8,143.5,153.1,14.7
380.25,159.2,166.9,137.8,142.2,151.6,13.8
382.5,155.2,164.9,131.0,142.9,148.5,14.7
384.75,151.3,160.4,127.7,140.8,145.0,14.1
387.0,149.1,155.4,124.8,139.0,142.1,13.3
389.25,146.8,152.8,123.3,138.5,140.4,12.8
391.5,145.0,147.6,120.2,141.6,138.6,12.5
393.75,141.8,145.7,118.6,138.4,136.1,12.1
396.0,137.8,141.2,115.1,138.3,133.1,12.1
398.25,134.1,136.9,111.2,137.7,130.0,12.6
400.5,133.0,134.5,109.1,135.4,128.0,12.6
402.75,131.6,134.0,106.5,135.9,127.0,13.8
405.0,129.6,129.5,102.1,133.9,123.8,14.6
407.25,128.4,129.1,99.4,132.7,122.4,15.4
409.5,122.9,125.4,99.2,132.6,120.0,14.5
411.75,120.9,122.3,95.6,130.9,117.4,15.2
414.0,119.0,119.9,95.2,131.8,116.5,15.3
416.25,117.9,114.6,91.8,129.3,113.4,15.7
418.5,114.3,114.5,91.6,127.0,111.8,14.8
420.75,112.7,111.9,89.4,126.8,110.2,15.5
423.0,111.5,108.8,86.5,126.2,108.2,16.4
425.25,109.2,107.2,84.3,125.6,106.6,17.0
427.5,106.4,105.3,83.3,123.2,104.5,16.4
429.75,104.9,102.4,80.9,123.4,102.9,17.4
432.0,102.9,100.7,79.8,122.0,101.4,17.3
434.25,102.8,98.2,79.7,122.1,100.7,17.4
436.5,101.7,95.7,77.2,120.6,98.8,17.9
438.75,99.2,94.7,76.7,118.6,97.3,17.2
441.0,96.0,94.1,74.1,119.0,95.8,18.4
443.25,94.7,91.6,71.8,117.6,93.9,18.8
445.5,91.2,89.7,70.4,118.8,92.5,19.9
447.75,88.8,87.7,67.9,118.3,90.7,20.8
450.0,87.1,87.6,66.4,115.7,89.2,20.2
452.25,86.4,86.1,66.2,112.9,87.9,19.2
454.5,84.9,84.5,64.6,114.8,87.2,20.7
456.75,82.6,82.9,63.3,115.1,85.9,21.5
459.0,81.6,80.2,63.2,113.8,84.7,21.1
461.25,80.0,79.1,60.6,112.0,82.9,21.3
463.5,79.4,76.3,61.1,111.8,82.1,21.3
465.75,76.1,72.8,62.2,111.7,80.7,21.5
468.0,74.6,71.9,59.4,111.0,79.2,22.2
470.25,74.5,71.0,58.7,110.3,78.6,22.2
472.5,72.2,69.7,57.1,108.1,76.8,21.9
474.75,70.7,67.9,56.7,107.5,75.7,22.0
477.0,69.9,67.3,55.2,106.7,74.8,22.2
479.25,69.3,65.9,55.0,107.4,74.4,22.8
481.5,69.0,62.6,54.2,106.2,73.0,22.9
483.75,67.2,62.2,53.7,104.9,72.0,22.6
486.0,66.6,62.1,52.3,103.3,71.1,22.3
488.25,65.2,61.7,52.0,101.9,70.2,21.9
490.5,64.3,61.1,52.7,100.0,69.5,20.9
492.75,62.2,59.9,54.1,99.9,69.0,20.9
495.0,62.4,58.8,53.3,100.7,68.8,21.6
497.25,61.4,58.1,54.3,100.2,68.5,21.4
499.5,61.9,57.6,54.5,102.2,69.1,22.3
501.75,62.0,57.0,52.0,99.2,67.6,21.5
504.0,61.5,57.2,52.3,98.9,67.5,21.3
506.25,60.6,57.0,51.6,98.1,66.8,21.2
508.5,60.4,56.0,51.2,97.7,66.3,21.2
510.75,60.5,56.6,50.7,97.4,66.3,21.2
513.0,59.2,55.3,51.9,96.5,65.7,20.7
515.25,58.5,54.1,,96.1,69.6,23.1
517.5,58.1,53.8,,95.7,69.2,23.1
519.75,56.8,54.1,,96.1,69.0,23.5
522.0,57.6,53.1,,93.1,68.0,21.9
524.25,56.7,51.6,,92.6,67.0,22.3
526.5,56.1,,,92.2,74.2,25.5
528.75,56.1,,,91.7,73.9,25.2
531.0,55.0,,,89.3,72.2,24.2
533.25,55.1,,,91.1,73.1,25.5
535.5,53.4,,,90.4,71.9,26.2
537.75,52.7,,,89.5,71.1,26.0
538.75,52.7,,,87.0,69.9,24.2