Folder: fsri_materials_database/01_Data/EPDM_Membrane/Cone

Note: README.md
# Materials and Products Database
### Repository of materials and products properties and fire test data to improve fire modeling and fire investigation.

This project was supported in part by Award No. 2019-DU-BX-0018, awarded by the National Institute of Justice, Office of Justice Programs, U.S. Department of Justice. The opinions, findings, and conclusions or recommendations expressed in this publication / program / exhibition are those of the author(s) and do not necessarily reflect those of the Department of Justice.

***
***

__Cite this database:__ "McKinnon, M., Weinschenk, C., Dow, N., DiDomizio, M., and Madrzykowski, D. Materials and Products Database (Version 1.0.0), Fire Safety Research Institute, UL Research Institutes. Columbia, MD 21045, 2023."

__Cite the Technical Reference Guide:__ "McKinnon, M., Weinschenk, C., and Madrzykowski, D. Materials and Products Database - Technical Reference Guide, Fire Safety Research Institute, UL Research Institutes. Columbia, MD 21045, 2023."

__Cite the User Guide:__ "McKinnon, M., and Weinschenk, C. Materials and Products Database - User Guide, Fire Safety Research Institute, UL Research Institutes. Columbia, MD 21045, 2023."

***
***

## Database Structure

## 01_Data/
Raw data generated from each apparatus are included here in plain-text format. The data is organized first by material, next by the short name of test apparatus used, and where applicable additional filtering by test settings.

### Test Apparatus and Data File Structure
- __Cone Calorimeter__ (Cone)
    + Data file structure includes the material, the short name for the apparatus, heat flux setting and scan/scalar, date of test, and replicate number. Scan is for the raw output data and scalar is for the initial conditions and high-level test parameters. 
        * Example: __MDF_Cone_HF25scalar_210323_R1__ stands for the first replicate of scalar data generated from a medium density fiber board test in cone calorimeter exposed to 25 kW/m<sup>2</sup> on March 23, 2021.
    + A _Cone_Notes.csv_ is generated for each material from the __plot_Cone_data.py__ script. For materials whose experiments deviated from typical behavior relevant pictures are included in the respective material directory.
- __Fourier Transform Infrared Spectrometer__ (FTIR)
    + The FTIR directory contains subdirectories for the Attenuated Total Reflectance method (ATR) and the Integrating Sphere (IS)
    + Data file structure for the ATR experiment files includes the material, the abbreviated name for the apparatus, date of test, and replicate number. 
        * Example: __MDF_ATR_210323_R5__ stands for the fifth replicate of data collected with the ATR accessory conducted on June 8, 2021.
    + Data file structure for the IS experiment files includes the material, the abbreviated name for the apparatus, the measurand, whether the test is a sample measurement or standard reference, date of test, and replicate number.
        * Example: __OSB_IS_REFLECT_MEAS_2

File: EPDM_Membrane_HRRPUA_25.csv
Time after Ignition,EPDM_Membrane_R1,EPDM_Membrane_R2,EPDM_Membrane_R3,EPDM_Membrane_R4,EPDM_Membrane_R5,Mean,Std. Dev.
0.0,8.0,8.5,14.8,6.0,15.0,10.5,4.2
2.25,28.8,20.6,28.3,24.9,47.2,30.0,10.2
4.5,94.6,35.3,59.8,89.7,99.9,75.8,27.5
6.75,181.5,70.2,112.0,154.9,155.8,134.9,43.9
9.0,248.0,146.5,151.8,201.5,219.0,193.3,43.7
11.25,314.6,232.5,178.4,239.9,256.9,244.5,49.0
13.5,371.1,304.3,217.6,276.9,286.4,291.3,55.2
15.75,417.7,356.6,254.5,298.6,302.4,326.0,62.8
18.0,457.7,381.0,275.5,304.8,321.7,348.1,72.4
20.25,469.6,402.7,298.5,326.3,327.0,364.8,70.2
22.5,501.5,424.5,306.3,329.7,336.8,379.8,81.5
24.75,525.4,448.5,327.6,333.9,355.3,398.1,86.1
27.0,539.1,442.4,343.2,346.0,363.1,406.8,84.3
29.25,547.7,446.8,355.8,358.7,373.6,416.5,82.1
31.5,558.8,451.2,361.3,364.9,382.0,423.6,83.8
33.75,553.6,450.8,367.7,371.4,385.7,425.8,78.9
36.0,553.0,451.2,363.9,374.2,387.1,425.9,78.8
38.25,534.9,450.6,378.4,374.3,390.9,425.8,68.3
40.5,536.5,440.3,378.9,381.1,380.7,423.5,68.3
42.75,522.9,437.0,380.9,372.0,380.2,418.6,63.8
45.0,532.1,433.0,375.2,379.9,373.2,418.7,68.1
47.25,521.5,431.4,384.2,371.0,373.4,416.3,63.6
49.5,527.9,428.5,386.8,372.5,369.8,417.1,66.3
51.75,519.0,423.0,388.4,368.6,368.1,413.4,63.1
54.0,508.8,417.5,390.3,376.1,369.5,412.4,56.9
56.25,523.1,422.1,384.9,364.2,359.2,410.7,67.5
58.5,515.5,408.7,385.4,351.1,357.4,403.6,66.7
60.75,511.7,402.6,382.7,366.3,361.7,405.0,61.8
63.0,504.7,405.0,378.3,361.0,365.9,403.0,59.4
65.25,517.4,406.5,370.6,367.4,349.9,402.4,67.5
67.5,501.4,397.8,373.0,358.3,346.2,395.3,62.3
69.75,515.3,401.8,374.0,353.0,348.5,398.5,68.6
72.0,513.8,399.6,371.1,356.9,347.1,397.7,67.8
74.25,534.5,397.8,368.4,345.0,346.0,398.3,79.1
76.5,526.1,399.1,357.7,352.9,336.7,394.5,77.1
78.75,540.9,395.4,356.9,342.9,338.3,394.9,84.7
81.0,539.8,392.8,363.8,345.6,337.6,395.9,83.2
83.25,553.2,397.3,364.4,340.2,334.9,398.0,90.2
85.5,572.2,401.3,366.8,339.7,330.6,402.1,99.0
87.75,589.0,393.9,365.3,337.3,329.0,402.9,107.1
90.0,613.5,403.1,363.0,332.7,332.1,408.9,118.0
92.25,626.7,410.9,367.3,336.8,319.7,412.3,124.8
94.5,665.4,409.8,363.4,333.8,325.4,419.6,141.3
96.75,711.1,395.0,369.2,333.9,324.1,426.7,161.5
99.0,734.4,400.0,374.8,340.3,324.8,434.9,170.0
101.25,740.8,408.2,382.3,340.3,321.5,438.6,172.4
103.5,727.9,423.1,373.4,339.1,323.7,437.4,166.8
105.75,792.7,426.9,373.0,334.9,316.1,448.7,196.9
108.0,822.2,431.4,379.4,329.9,307.1,454.0,211.3
110.25,859.1,445.4,378.1,347.7,313.9,468.8,223.5
112.5,858.8,443.8,381.5,341.4,323.9,469.9,222.2
114.75,901.3,452.7,382.9,343.9,330.2,482.2,239.1
117.0,894.0,480.6,382.4,358.1,332.1,489.4,233.0
119.25,940.8,504.4,393.2,358.1,335.6,506.4,251.3
121.5,925.6,505.4,392.8,349.5,332.9,501.2,246.6
123.75,933.2,518.6,399.6,355.0,324.0,506.1,250.0
126.0,896.9,537.8,396.8,349.5,324.1,501.0,236.2
128.25,867.9,557.0,406.3,359.1,331.5,504.4,221.1
130.5,853.6,593.1,394.2,354.6,323.1,503.7,222.1
132.75,817.4,603.1,378.6,356.0,332.3,497.5,209.1
135.0,822.3,617.7,375.6,361.5,325.2,500.5,213.9
137.25,785.4,614.1,368.7,354.3,326.3,489.8,201.6
139.5,757.1,601.3,369.4,346.4,322.9,479.4,191.2
141.75,730.6,604.9,359.9,341.0,317.7,470.8,185.8
144.0,699.5,602.2,357.4,335.4,328.1,464.5,173.9
146.25,680.8,592.6,344.7,327.6,328.0,454.7,169.2
148.5,709.2,598.2,339.0,320.1,312.2,455.7,185.2
150.75,674.9,575.4,333.1,309.2,321.3,442.8,170.4
153.0,666.9,558.9,327.3,306.0,321.7,436.1,166.0
155.25,631.9,543.7,323.3,302.2,318.6,423.9,153.0
157.5,615.7,536.4,310.7,294.2,315.5,414.5,150.3
159.75,606.1,529.2,303.7,292.2,309.4,408.1,148.3
162.0,582.1,534.0,299.6,283.7,309.9,401.9,143.9
164.25,579.1,528.8,294.1,282.4,297.3,396.3,145.1
166.5,573.7,519.2,290.0,275.5,297.7,391.2,143.2
168.75,558.7,509.6,289.7,270.8,291.3,384.0,138.4
171.0,567.2,497.3,286.8,266.7,283.7,380.3,141.1
173.25,561.8,498.8,282.5,255.7,277.9,375.3,143.6
175.5,546.3,486.0,277.1,252.0,277.0,367.7,137.6
177.75,535.2,487.2,264.7,250.9,273.5,362.3,137.2
180.0,517.7,479.1,259.9,255.9,269.2,356.4,130.5
182.25,504.3,477.3,256.0,250.8,259.3,349.5,129.3
184.5,494.1,469.9,249.9,245.9,251.1,342.2,127.9
186.75,478.8,470.5,247.1,247.9,250.3,338.9,123.9
189.0,469.1,465.6,239.7,239.1,249.9,332.7,123.0
191.25,460.7,473.4,238.1,235.0,242.5,329.9,125.3
193.5,444.9,462.1,238.0,234.7,241.1,324.2,118.2
195.75,436.6,449.4,240.1,229.1,235.2,318.1,114.2
198.0,412.2,455.2,239.0,228.8,230.4,313.1,111.2
200.25,405.0,454.0,232.1,226.6,231.3,309.8,110.7
202.5,403.6,472.6,232.0,222.6,223.5,310.9,118.8
204.75,392.8,484.1,228.0,220.1,226.9,310.4,121.3
207.0,394.2,477.1,227.7,214.6,219.5,306.6,121.5
209.25,376.2,467.9,227.0,215.9,216.2,300.6,115.6
211.5,375.2,477.3,228.5,211.8,219.6,302.5,118.8
213.75,364.8,462.6,227.4,212.0,217.3,296.8,112.3
216.0,364.5,436.2,226.8,208.8,212.8,289.8,104.3
218.25,361.7,433.1,222.9,209.4,212.4,287.9,103.2
220.5,347.2,410.1,225.5,206.8,212.7,280.4,92.6
222.75,344.7,394.3,221.2,205.8,213.5,275.9,87.4
225.0,346.2,375.8,218.7,205.3,213.1,271.8,82.2
227.25,337.6,365.3,214.4,203.2,211.4,266.4,78.4
229.5,334.4,355.6,220.3,203.8,211.8,265.2,73.5
231.75,328.1,345.7,218.8,201.3,212.0,261.2,69.7
234.0,330.1,339.6,219.6,196.5,206.5,258.4,70.3
236.25,326.0,330.0,216.7,194.0,205.1,254.3,67.7
238.5,323.5,332.5,215.7,193.5,207.5,254.6,67.6
240.75,319.1,324.1,216.0,194.8,205.5,251.9,64.1
243.0,319.3,322.6,216.6,195.6,207.8,252.4,63.1
245.25,316.7,322.0,211.6,196.4,198.2,249.0,64.5
247.5,305.5,316.3,212.9,193.6,200.5,245.8,60.0
249.75,302.9,312.1,215.4,192.3,194.6,243.4,59.2
252.0,304.0,307.5,212.8,191.3,194.6,242.0,58.7
254.25,307.1,305.5,213.9,192.9,192.1,242.3,59.1
256.5,304.0,307.2,209.3,194.2,192.8,241.5,58.9
258.75,296.6,302.3,209.0,190.4,196.6,239.0,55.6
261.0,297.9,298.5,207.5,188.7,197.2,238.0,55.4
263.25,296.8,295.4,208.4,188.0,191.4,236.0,55.4
265.5,292.7,294.5,205.2,191.4,194.8,235.7,53.1
267.75,284.4,299.3,203.7,189.3,194.4,234.2,53.1
270.0,285.9,298.0,202.0,190.0,197.5,234.7,52.7
272.25,278.0,291.8,203.6,190.2,192.6,231.2,49.4
274.5,276.3,289.2,203.2,190.2,193.3,230.4,48.2
276.75,274.0,291.5,200.5,191.4,190.8,229.6,49.0
279.0,270.0,288.2,203.9,193.5,193.0,229.7,45.7
281.25,269.3,284.6,198.9,194.6,188.4,227.2,45.9
283.5,263.6,279.5,201.4,191.1,188.7,224.9,43.3
285.75,262.2,279.2,201.3,189.7,187.3,223.9,43.4
288.0,259.8,275.1,199.3,189.1,189.4,222.5,41.6
290.25,250.0,274.0,197.9,187.8,186.5,219.3,40.2
292.5,250.3,271.7,196.0,191.2,189.4,219.7,38.5
294.75,244.1,266.2,197.2,191.0,187.1,217.1,35.8
297.0,242.5,265.3,199.5,189.4,184.6,216.3,35.7
299.25,238.1,263.6,195.4,187.5,186.8,214.3,34.7
301.5,238.3,261.3,199.6,188.4,185.4,214.6,33.6
303.75,234.8,260.1,198.3,188.4,184.3,213.2,33.0
306.0,227.1,260.4,199.3,190.2,184.9,212.4,31.4
308.25,228.7,255.7,201.7,190.7,180.7,211.5,30.5
310.5,222.0,256.2,200.2,187.7,185.9,210.4,29.4
312.75,218.7,251.7,203.1,188.2,184.9,209.3,27.2
315.0,210.8,253.5,199.8,190.4,183.6,207.6,27.6
317.25,209.5,250.4,199.8,189.7,181.5,206.2,26.9
319.5,202.4,248.0,200.1,189.1,184.1,204.7,25.3
321.75,197.5,250.8,200.1,190.8,186.2,205.1,26.1
324.0,194.5,247.4,203.8,190.4,186.3,204.5,24.8
326.25,192.7,246.7,203.3,186.7,185.8,203.0,25.4
328.5,186.9,243.1,203.1,189.9,183.7,201.3,24.5
330.75,185.1,241.9,203.5,192.8,181.4,200.9,24.4
333.0,181.6,243.4,201.8,185.8,180.6,198.6,26.5
335.25,177.1,245.6,199.0,188.6,181.7,198.4,27.6
337.5,173.0,239.0,199.3,189.9,184.0,197.0,25.3
339.75,169.2,239.4,198.7,189.5,182.1,195.8,26.6
342.0,164.3,237.4,195.4,185.8,181.0,192.8,27.4
344.25,161.6,237.7,196.5,190.2,181.9,193.6,27.9
346.5,158.5,236.2,192.8,184.0,182.4,190.8,28.4
348.75,157.0,236.5,194.0,186.8,179.7,190.8,29.1
351.0,153.0,233.3,194.3,188.6,180.3,189.9,29.0
353.25,148.3,238.3,194.2,185.7,181.0,189.5,32.4
355.5,144.8,234.2,193.8,187.4,178.9,187.8,32.1
357.75,142.0,233.3,193.2,187.0,177.7,186.6,32.8
360.0,140.0,236.8,193.9,187.3,181.6,187.9,34.5
362.25,136.6,229.2,191.6,183.9,181.2,184.5,33.0
364.5,133.8,233.0,189.6,184.4,181.1,184.4,35.2
366.75,129.5,228.9,188.7,183.0,179.6,182.0,35.4
369.0,127.0,229.0,188.0,184.5,176.0,180.9,36.4
371.25,123.4,227.3,187.0,183.5,180.3,180.3,37.1
373.5,120.1,223.6,183.0,185.3,179.7,178.3,37.1
375.75,117.3,225.4,181.2,183.5,177.8,177.0,38.6
378.0,117.2,223.7,182.7,184.9,178.1,177.3,38.2
380.25,115.5,226.2,184.1,182.3,179.3,177.5,39.6
382.5,111.6,222.9,182.1,183.4,178.7,175.7,40.1
384.75,106.7,219.0,182.0,179.7,176.8,172.8,40.8
387.0,103.7,221.1,180.5,179.4,174.9,171.9,42.5
389.25,100.3,220.8,178.9,174.9,174.2,169.8,43.5
391.5,98.8,217.8,179.5,176.5,173.8,169.3,43.3
393.75,97.5,221.0,178.6,177.6,172.5,169.4,44.7
396.0,95.3,216.0,178.3,174.5,167.6,166.3,43.9
398.25,93.8,217.3,178.2,175.4,169.0,166.7,45.0
400.5,92.9,216.3,178.5,174.9,168.5,166.2,45.1
402.75,93.8,214.2,172.6,173.3,168.1,164.4,43.7
405.0,91.1,217.9,173.6,172.6,168.9,164.8,45.8
407.25,88.9,213.0,175.2,175.9,167.7,164.1,45.6
409.5,86.3,214.3,169.3,176.3,166.0,162.4,46.7
411.75,85.4,214.6,169.1,173.6,167.2,162.0,47.0
414.0,86.1,213.6,170.2,172.8,168.4,162.2,46.5
416.25,82.4,213.4,165.9,170.9,167.4,160.0,47.7
418.5,82.2,214.3,167.6,169.2,165.6,159.8,47.9
420.75,79.7,213.3,166.5,168.2,166.9,158.9,48.6
423.0,76.8,210.3,167.8,162.6,164.2,156.3,48.6
425.25,75.8,208.2,164.5,164.8,165.5,155.7,48.4
427.5,75.2,209.4,163.1,164.9,163.7,155.3,48.9
429.75,73.5,209.2,164.5,165.8,164.6,155.5,49.7
432.0,71.5,210.5,163.5,164.3,163.1,154.6,50.7
434.25,70.1,207.9,163.9,164.7,164.3,154.2,50.6
436.5,69.6,210.0,160.9,163.9,163.1,153.5,51.2
438.75,68.2,209.7,163.3,161.0,161.4,152.7,51.6
441.0,67.4,212.4,159.3,163.2,160.7,152.6,52.6
443.0,63.3,209.3,160.3,159.5,156.1,149.7,53.1

File: EPDM_Membrane_HRRPUA_50.csv
Time after Ignition,EPDM_Membrane_R1,EPDM_Membrane_R2,EPDM_Membrane_R3,EPDM_Membrane_R4,Mean,Std. Dev.
0.0,17.4,9.8,10.2,13.9,12.8,3.6
3.25,67.7,67.4,66.2,62.5,66.0,2.4
6.5,123.6,148.2,158.2,197.4,156.9,30.7
9.75,213.7,236.5,221.5,341.4,253.2,59.5
13.0,307.3,315.9,285.1,455.6,341.0,77.5
16.25,378.7,395.9,347.7,525.6,412.0,78.3
19.5,427.2,440.0,403.1,549.0,454.8,64.6
22.75,472.0,466.2,426.8,579.8,486.2,65.5
26.0,500.2,490.4,465.4,559.1,503.8,39.7
29.25,505.2,503.0,477.6,569.7,513.9,39.2
32.5,500.3,502.7,488.0,540.7,507.9,22.8
35.75,502.0,481.3,484.5,540.7,502.1,27.3
39.0,477.6,470.9,476.0,517.0,485.4,21.3
42.25,475.8,461.9,478.7,491.6,477.0,12.2
45.5,466.8,455.7,477.6,479.7,469.9,11.1
48.75,457.4,440.4,464.1,474.0,459.0,14.1
52.0,448.2,446.0,456.5,454.7,451.3,5.0
55.25,436.7,434.2,439.7,444.1,438.7,4.3
58.5,429.0,409.4,433.4,420.4,423.0,10.6
61.75,422.6,414.2,437.2,412.5,421.6,11.3
65.0,430.3,416.1,431.5,412.8,422.7,9.6
68.25,417.8,399.8,422.6,412.8,413.3,9.8
71.5,415.4,395.7,415.8,407.8,408.7,9.4
74.75,397.0,387.5,411.4,396.9,398.2,9.9
78.0,399.6,388.1,407.6,388.7,396.0,9.4
81.25,394.4,385.2,397.4,387.6,391.1,5.7
84.5,396.8,379.8,397.2,385.2,389.7,8.7
87.75,401.4,382.6,399.0,388.8,393.0,8.8
91.0,402.9,376.1,407.6,384.5,392.8,14.9
94.25,394.9,389.9,402.3,383.7,392.7,7.8
97.5,409.2,378.5,402.9,383.9,393.6,14.7
100.75,400.5,387.3,412.5,386.2,396.6,12.4
104.0,404.4,401.4,402.9,391.9,400.2,5.7
107.25,408.1,410.2,424.0,396.7,409.8,11.2
110.5,403.7,404.0,412.0,409.9,407.4,4.2
113.75,409.0,414.2,425.6,416.8,416.4,6.9
117.0,419.3,411.1,418.3,428.2,419.2,7.0
120.25,416.6,419.3,419.0,444.1,424.8,13.0
123.5,408.1,412.7,428.5,469.9,429.8,28.1
126.75,414.7,427.7,423.7,507.9,443.5,43.3
130.0,428.9,445.1,453.1,539.5,466.7,49.6
133.25,464.8,465.7,477.8,598.8,501.8,64.9
136.5,487.2,493.7,483.7,652.9,529.4,82.5
139.75,517.1,538.4,500.3,734.8,572.7,109.2
143.0,541.2,557.6,527.7,738.0,591.1,98.7
146.25,551.3,556.8,545.7,750.9,601.2,99.9
149.5,558.2,553.7,513.1,720.1,586.3,91.5
152.75,525.0,519.5,497.8,712.7,563.7,100.0
156.0,491.7,492.8,477.6,699.7,540.5,106.4
159.25,463.1,467.1,466.3,667.0,515.9,100.8
162.5,438.4,432.7,441.6,651.8,491.1,107.2
165.75,422.4,414.4,418.4,660.9,479.0,121.3
169.0,404.9,393.1,401.3,630.0,457.3,115.2
172.25,395.5,373.1,380.6,626.1,443.8,121.9
175.5,388.8,362.0,363.8,591.6,426.6,110.7
178.75,370.6,350.2,354.8,588.4,416.0,115.3
182.0,378.7,345.3,338.2,590.1,413.1,119.3
185.25,375.2,339.6,335.6,590.6,410.2,121.5
188.5,371.9,344.3,333.0,568.5,404.4,110.6
191.75,370.7,357.2,330.6,537.9,399.1,94.0
195.0,373.0,345.9,334.6,535.8,397.3,93.7
198.25,373.5,349.9,328.0,526.2,394.4,89.8
201.5,375.8,361.8,328.4,503.9,392.5,76.9
204.75,380.2,360.0,327.0,506.9,393.5,78.7
208.0,376.3,365.9,325.6,494.7,390.6,72.8
211.25,376.4,360.0,315.3,490.5,385.6,74.6
214.5,377.8,363.9,321.7,486.7,387.5,70.3
217.75,376.8,356.6,321.4,475.5,382.6,66.0
221.0,371.2,354.8,311.4,461.6,374.8,63.2
224.25,360.1,358.5,310.0,459.7,372.1,62.9
227.5,356.2,344.2,309.8,446.7,364.2,58.4
230.75,346.5,341.1,306.9,432.5,356.8,53.5
234.0,348.1,338.3,305.3,420.9,353.2,48.7
237.25,333.6,334.5,303.1,414.7,346.5,47.8
240.5,325.7,333.4,297.8,410.1,341.7,48.0
243.75,321.9,328.2,296.1,395.1,335.3,42.2
247.0,317.4,327.2,294.3,395.6,333.6,43.6
250.25,321.3,320.0,289.3,389.6,330.0,42.4
253.5,316.5,328.9,289.2,384.5,329.8,40.1
256.75,306.8,316.9,282.8,391.8,324.6,47.1
260.0,299.6,312.9,283.0,397.0,323.1,50.8
263.25,305.0,319.6,282.4,404.7,327.9,53.4
266.5,297.3,312.9,282.5,402.7,323.8,54.0
269.75,296.2,319.1,282.6,397.4,323.8,51.3
273.0,300.7,313.6,280.0,395.3,322.4,50.5
276.25,293.1,319.2,270.1,391.5,318.4,52.6
279.5,296.9,315.2,273.9,380.1,316.5,45.6
282.75,296.7,318.5,272.0,370.7,314.5,42.0
286.0,291.0,316.7,269.8,354.9,308.1,36.7
289.25,291.8,312.2,263.2,346.0,303.3,34.8
292.5,298.7,308.6,262.2,334.5,301.0,29.9
295.75,295.7,309.9,258.6,326.1,297.6,28.8
299.0,298.3,316.7,262.9,320.8,299.7,26.4
302.25,298.9,317.2,257.0,311.5,296.1,27.2
305.5,299.5,307.5,254.1,306.9,292.0,25.5
308.75,297.7,306.0,261.4,298.8,291.0,20.1
312.0,295.9,300.4,249.4,289.6,283.8,23.4
315.25,303.3,305.2,249.1,287.2,286.2,26.0
318.5,301.0,303.3,248.2,275.8,282.1,25.8
321.75,302.5,302.4,252.0,266.0,280.7,25.8
325.0,300.2,298.1,245.2,252.2,273.9,29.3
328.25,290.5,296.0,242.2,253.3,270.5,26.8
331.5,291.4,290.5,237.9,248.0,267.0,28.0
334.75,288.2,288.3,234.9,241.1,263.1,29.1
338.0,288.7,285.9,228.0,237.0,259.9,31.9
341.25,283.8,280.4,224.0,234.1,255.6,30.9
344.5,279.8,273.3,220.9,227.2,250.3,30.5
347.75,280.4,274.5,222.2,221.3,249.6,32.2
351.0,275.0,268.5,213.8,221.9,244.8,31.4
354.25,268.9,266.9,215.4,215.5,241.7,30.3
357.5,271.4,268.6,212.3,212.5,241.2,33.2
360.75,261.4,260.7,206.5,204.2,233.2,32.2
364.0,257.7,254.3,203.7,198.2,228.5,31.9
367.25,255.3,252.4,200.2,196.8,226.2,32.0
370.5,249.2,250.3,200.5,195.4,223.8,30.0
373.75,244.2,243.6,196.5,194.2,219.6,28.0
377.0,243.3,240.0,190.9,190.7,216.2,29.4
380.25,239.9,236.9,191.8,183.6,213.0,29.5
383.5,233.9,234.7,186.2,184.6,209.8,28.2
386.75,230.8,230.9,186.0,178.3,206.5,28.3
390.0,223.8,226.7,186.0,176.4,203.2,25.7
393.25,221.6,223.2,182.1,171.9,199.7,26.6
396.5,219.3,215.0,182.0,173.2,197.4,23.2
399.75,211.7,215.3,179.0,165.6,192.9,24.5
403.0,209.7,211.9,179.5,163.4,191.1,23.6
406.25,208.5,205.4,177.1,159.1,187.5,23.6
409.5,200.1,207.5,175.5,156.9,185.0,23.2
412.75,199.0,203.9,173.7,153.7,182.6,23.4
416.0,195.6,198.0,170.6,153.4,179.4,21.3
419.25,193.5,197.2,171.0,149.2,177.7,22.3
422.5,189.3,193.6,168.9,147.4,174.8,21.2
425.75,187.7,190.6,168.5,144.8,172.9,21.1
429.0,181.8,187.6,163.1,142.8,168.8,20.2
432.25,178.4,182.9,165.5,139.6,166.6,19.5
435.5,173.9,182.5,162.3,139.5,164.6,18.7
438.75,172.0,178.8,161.5,134.7,161.8,19.4
442.0,168.8,177.8,160.6,133.4,160.2,19.2
445.25,166.0,177.3,158.5,131.1,158.2,19.6
448.5,160.9,170.8,160.5,129.9,155.5,17.7
451.75,158.3,167.8,160.1,125.9,153.0,18.6
455.0,153.7,165.1,160.3,126.0,151.3,17.5
458.25,152.6,163.6,158.1,122.2,149.1,18.5
461.5,148.6,161.8,156.5,119.2,146.5,19.0
464.75,148.3,158.9,154.0,119.0,145.0,17.9
468.0,147.2,154.4,154.3,116.7,143.2,17.9
471.25,141.1,151.7,154.3,112.7,139.9,19.0
474.5,142.9,150.6,155.1,111.8,140.1,19.5
477.75,138.1,148.0,152.1,109.7,136.9,19.1
481.0,136.8,145.5,152.4,106.2,135.2,20.4
484.25,134.4,142.9,152.8,105.2,133.8,20.5
487.5,134.6,139.5,150.2,103.5,131.9,20.0
490.75,130.4,139.7,149.7,99.8,129.9,21.6
494.0,127.8,135.3,147.3,100.8,127.8,19.7
497.25,127.8,131.7,146.1,94.7,125.1,21.7
500.5,123.9,131.7,147.8,92.6,124.0,23.1
503.75,123.3,128.4,145.8,91.0,122.1,22.9
507.0,121.7,125.4,144.7,89.2,120.2,23.0
510.25,118.3,125.5,143.1,87.5,118.6,23.2
513.5,116.4,124.1,141.7,86.8,117.2,22.9
516.75,113.7,122.2,142.8,82.7,115.4,24.9
520.0,111.4,116.9,139.0,82.8,112.5,23.1
523.25,110.6,117.8,139.7,82.7,112.7,23.5
526.5,108.5,115.8,137.7,80.8,110.7,23.5
529.75,107.0,111.8,135.8,80.3,108.7,22.8
533.0,108.6,110.7,136.5,77.7,108.4,24.1
536.25,104.7,110.1,134.5,74.9,106.0,24.5
539.5,104.9,107.4,132.5,75.7,105.1,23.2
542.75,103.0,105.2,131.6,75.1,103.7,23.1
546.0,101.0,103.6,132.6,72.0,102.3,24.8
549.25,100.6,101.9,131.4,73.1,101.8,23.8
552.5,98.8,99.7,128.7,71.8,99.8,23.3
555.75,98.1,98.5,128.4,71.4,99.1,23.3
559.0,94.8,97.2,127.2,73.5,98.2,22.1
562.25,93.3,96.3,127.0,72.0,97.1,22.6
565.5,94.3,94.8,125.5,71.4,96.5,22.2
568.75,92.4,93.8,125.8,69.5,95.4,23.1
572.0,90.5,91.5,123.4,68.6,93.5,22.6
575.25,87.9,92.9,121.6,68.9,92.8,21.8
578.5,87.3,90.6,120.2,69.3,91.9,21.1
581.75,86.3,88.9,119.5,68.6,90.8,21.1
585.0,85.9,88.5,117.5,68.4,90.1,20.3
588.25,85.0,87.5,116.6,68.1,89.3,20.1
591.5,84.0,85.0,116.4,69.4,88.7,19.8
594.75,83.1,84.7,114.8,68.8,87.9,19.3
598.0,81.6,84.1,113.7,68.7,87.0,19.0
601.25,80.4,83.3,112.4,66.4,85.6,19.3
604.5,79.7,82.7,108.1,65.0,83.9,17.9
607.75,79.2,81.3,109.3,64.4,83.5,18.8
611.0,78.1,80.1,109.9,,89.4,17.8
614.25,77.1,79.9,108.3,,88.4,17.3
617.5,76.2,79.1,106.3,,87.2,16.6
620.75,76.6,77.1,105.7,,86.5,16.7
624.0,74.2,77.1,104.1,,85.1,16.5
627.25,74.1,76.9,103.0,,84.7,15.9
630.5,72.2,74.6,103.0,,83.3,17.1
633.75,71.6,74.9,100.6,,82.3,15.9
637.0,70.4,72.7,100.4,,81.2,16.7
640.25,69.4,72.6,97.8,,79.9,15.5
643.5,69.1,71.9,96.8,,79.3,15.3
646.75,68.8,71.6,97.0,,79.1,15.5
650.0,69.7,70.1,98.5,,79.4,16.5
653.25,68.5,69.5,97.3,,78.4,16.3
656.5,67.4,70.5,96.3,,78.1,15.9
659.75,67.2,70.8,96.2,,78.1,15.8
663.0,66.0,69.6,94.3,,76.6,15.4
666.25,66.9,68.8,92.3,,76.0,14.1
669.5,67.0,67.8,92.0,,75.6,14.2
672.75,64.6,68.2,91.0,,74.6,14.3
676.0,65.3,65.8,89.1,,73.4,13.6
679.25,64.5,65.9,88.8,,73.1,13.6
682.5,64.2,64.1,88.1,,72.2,13.8
685.75,65.1,63.8,88.3,,72.4,13.8
689.0,64.2,64.2,86.7,,71.7,13.0
692.25,62.9,64.7,86.6,,71.4,13.2
695.5,61.6,64.3,87.7,,71.2,14.3
698.75,60.4,63.9,86.5,,70.3,14.2
702.0,59.6,62.5,84.9,,69.0,13.8
705.25,57.9,61.2,86.3,,68.5,15.5
708.5,58.7,61.5,83.7,,68.0,13.7
711.75,57.5,60.6,83.8,,67.3,14.3
715.0,57.1,60.1,83.8,,67.0,14.6
718.25,56.8,59.6,82.3,,66.3,14.0
721.5,54.8,58.6,81.9,,65.1,14.7
724.75,55.0,58.0,81.5,,64.8,14.5
728.0,54.2,58.0,80.2,,64.1,14.1
731.25,54.2,58.0,79.5,,63.9,13.6
734.5,52.7,57.3,77.9,,62.6,13.4
737.75,51.1,55.8,78.2,,61.7,14.5
741.0,50.4,55.6,78.8,,61.6,15.1
744.25,49.6,54.9,78.6,,61.0,15.4
747.5,50.2,,76.2,,63.2,18.4
750.75,51.3,,75.5,,63.4,17.2
754.0,50.5,,74.6,,62.5,17.1
757.25,51.0,,73.9,,62.5,16.2
760.5,50.3,,73.1,,61.7,16.1
763.75,50.0,,72.2,,61.1,15.7
767.0,49.9,,70.7,,60.3,14.7
770.25,49.7,,70.6,,60.1,14.8
773.5,48.7,,70.8,,59.7,15.6
776.75,47.1,,68.0,,57.6,14.8
780.0,46.4,,69.5,,57.9,16.3
783.25,47.1,,69.4,,58.3,15.8
786.5,47.0,,68.1,,57.5,14.9
789.75,47.3,,68.2,,57.7,14.8
793.0,48.7,,66.7,,57.7,12.8
793.5,48.6,,66.0,,57.3,12.2