Folder: fsri_materials_database/01_Data/Rayon_Bamboo_Pillowcase/FTIR/IS (part 2)

File: Rayon_Bamboo_Pillowcase_IS_S_220909_R5.dpt
7497.03,0.82070
7473.89,0.81312
7450.74,0.80050
7427.6,0.80519
7404.45,0.79769
7381.31,0.79351
7358.16,0.77525
7335.02,0.77504
7311.87,0.76560
7288.73,0.77029
7265.58,0.75990
7242.44,0.76144
7219.29,0.76570
7196.15,0.75276
7173,0.75056
7149.86,0.73644
7126.71,0.72616
7103.57,0.69852
7080.42,0.67922
7057.28,0.65790
7034.13,0.63550
7010.99,0.61481
6987.84,0.60201
6964.7,0.58671
6941.55,0.58507
6918.41,0.57645
6895.26,0.57481
6872.12,0.56543
6848.97,0.56037
6825.83,0.55842
6802.68,0.55658
6779.54,0.55964
6756.39,0.55722
6733.25,0.55634
6710.1,0.56207
6686.96,0.56326
6663.82,0.56481
6640.67,0.57370
6617.53,0.58273
6594.38,0.58706
6571.24,0.59345
6548.09,0.59872
6524.95,0.59889
6501.8,0.60088
6478.66,0.60685
6455.51,0.60297
6432.37,0.60512
6409.22,0.60291
6386.08,0.60633
6362.93,0.60386
6339.79,0.60413
6316.64,0.60803
6293.5,0.61387
6270.35,0.61672
6247.21,0.62102
6224.06,0.63067
6200.92,0.63354
6177.77,0.64098
6154.63,0.64813
6131.48,0.65043
6108.34,0.65916
6085.19,0.66305
6062.05,0.66640
6038.9,0.67065
6015.76,0.67515
5992.61,0.68009
5969.47,0.68236
5946.32,0.67719
5923.18,0.67109
5900.03,0.66626
5876.89,0.66463
5853.74,0.66405
5830.6,0.65811
5807.45,0.65314
5784.31,0.64775
5761.16,0.64974
5738.02,0.65077
5714.87,0.64921
5691.73,0.64592
5668.58,0.64092
5645.44,0.64335
5622.29,0.64320
5599.15,0.64389
5576,0.64371
5552.86,0.64736
5529.71,0.65005
5506.57,0.65298
5483.42,0.65413
5460.28,0.65626
5437.13,0.65930
5413.99,0.66320
5390.84,0.66922
5367.7,0.66936
5344.55,0.66675
5321.41,0.65345
5298.26,0.63516
5275.12,0.59582
5251.97,0.54962
5228.83,0.50922
5205.68,0.48578
5182.54,0.47700
5159.39,0.47925
5136.25,0.48926
5113.1,0.50305
5089.96,0.51396
5066.81,0.52796
5043.67,0.54144
5020.52,0.55050
4997.38,0.55564
4974.23,0.55732
4951.09,0.54715
4927.94,0.52918
4904.8,0.50596
4881.65,0.48063
4858.51,0.46314
4835.36,0.44911
4812.22,0.44028
4789.07,0.43383
4765.93,0.43313
4742.78,0.43818
4719.64,0.44541
4696.49,0.45416
4673.35,0.46512
4650.2,0.47509
4627.06,0.48461
4603.92,0.49114
4580.77,0.49802
4557.63,0.50443
4534.48,0.51042
4511.34,0.51530
4488.19,0.51572
4465.05,0.50892
4441.9,0.48438
4418.76,0.45590
4395.61,0.44468
4372.47,0.44445
4349.32,0.44125
4326.18,0.42741
4303.03,0.41719
4279.89,0.41193
4256.74,0.40851
4233.6,0.40885
4210.45,0.41204
4187.31,0.41515
4164.16,0.41070
4141.02,0.39816
4117.87,0.38105
4094.73,0.35897
4071.58,0.33483
4048.44,0.31401
4025.29,0.29982
4002.15,0.29309
3979,0.29714
3955.86,0.29972
3932.71,0.30943
3909.57,0.32190
3886.42,0.33452
3863.28,0.34732
3840.13,0.35830
3816.99,0.35870
3793.84,0.35442
3770.7,0.34802
3747.55,0.33945
3724.41,0.31888
3701.26,0.28354
3678.12,0.22611
3654.97,0.14955
3631.83,0.09555
3608.68,0.06275
3585.54,0.04347
3562.39,0.03314
3539.25,0.02837
3516.1,0.02585
3492.96,0.02483
3469.81,0.02469
3446.67,0.02629
3423.52,0.02693
3400.38,0.02765
3377.23,0.02826
3354.09,0.02836
3330.94,0.02830
3307.8,0.02917
3284.65,0.02985
3261.51,0.02982
3238.36,0.03149
3215.22,0.03147
3192.07,0.03313
3168.93,0.03501
3145.78,0.03788
3122.64,0.04262
3099.49,0.04886
3076.35,0.05777
3053.2,0.06717
3030.06,0.07666
3006.91,0.08212
2983.77,0.07265
2960.62,0.05723
2937.48,0.04514
2914.33,0.03989
2891.19,0.04033
2868.04,0.04810
2844.9,0.06306
2821.75,0.07981
2798.61,0.09217
2775.46,0.10285
2752.32,0.11000
2729.17,0.11375
2706.03,0.12111
2682.88,0.13218
2659.74,0.14324
2636.59,0.15480
2613.45,0.16614
2590.3,0.17509
2567.16,0.18054
2544.02,0.18347
2520.87,0.18685
2497.73,0.19229
2474.58,0.20184
2451.44,0.21210
2428.29,0.22510
2405.15,0.23524
2382,0.24245
2358.86,0.25044
2335.71,0.25715
2312.57,0.25942
2289.42,0.25723
2266.28,0.24856
2243.13,0.23918
2219.99,0.23325
2196.84,0.22769
2173.7,0.21713
2150.55,0.20994
2127.41,0.20808
2104.26,0.21535
2081.12,0.22356
2057.97,0.22364
2034.83,0.22730
2011.68,0.24258
1988.54,0.25021
1965.39,0.26231
1942.25,0.27765
1919.1,0.28934
1895.96,0.29716
1872.81,0.29596
1849.67,0.28723
1826.52,0.27353
1803.38,0.25715
1780.23,0.23740
1757.09,0.20886
1733.94,0.17668
1710.8,0.09495
1687.65,0.05890
1664.51,0.05678
1641.36,0.06264
1618.22,0.07601
1595.07,0.09632
1571.93,0.11154
1548.78,0.11499
1525.64,0.09279
1502.49,0.06738
1479.35,0.05288
1456.2,0.03719
1433.06,0.03293
1409.91,0.03197
1386.77,0.03030
1363.62,0.02922
1340.48,0.03121
1317.33,0.03110
1294.19,0.03652
1271.04,0.03429
1247.9,0.03551
1224.75,0.03375
1201.61,0.02764
1178.46,0.02204
1155.32,0.02578
1132.17,0.02021
1109.03,0.02767
1085.88,0.03238
1062.74,0.04391
1039.59,0.04139
1016.45,0.04801
993.304,0.04844
970.159,0.06278
947.014,0.08879
923.869,0.08876
900.724,0.05639
877.579,0.08981
854.434,0.09111
831.289,0.07556
808.144,0.06484
784.999,0.05841
761.854,0.05112
738.709,0.04588
715.565,0.04048
692.42,0.03819
669.275,0.03404
646.13,0.03560
622.985,0.02964
599.84,0.03386

File: Rayon_Bamboo_Pillowcase_IS_S_220909_R6.dpt
7497.03,0.81795
7473.89,0.81593
7450.74,0.80757
7427.6,0.81580
7404.45,0.80283
7381.31,0.79433
7358.16,0.78017
7335.02,0.77936
7311.87,0.77361
7288.73,0.76339
7265.58,0.75879
7242.44,0.76235
7219.29,0.76303
7196.15,0.75581
7173,0.74194
7149.86,0.74329
7126.71,0.71890
7103.57,0.70486
7080.42,0.68603
7057.28,0.66152
7034.13,0.64291
7010.99,0.61804
6987.84,0.59792
6964.7,0.58721
6941.55,0.57831
6918.41,0.57362
6895.26,0.57395
6872.12,0.56986
6848.97,0.56180
6825.83,0.55996
6802.68,0.55520
6779.54,0.55878
6756.39,0.55514
6733.25,0.56142
6710.1,0.56528
6686.96,0.56729
6663.82,0.57426
6640.67,0.57879
6617.53,0.58265
6594.38,0.58989
6571.24,0.59367
6548.09,0.59476
6524.95,0.60196
6501.8,0.60161
6478.66,0.60317
6455.51,0.60772
6432.37,0.60652
6409.22,0.60387
6386.08,0.60612
6362.93,0.60512
6339.79,0.60732
6316.64,0.61356
6293.5,0.61371
6270.35,0.61916
6247.21,0.62512
6224.06,0.63118
6200.92,0.63290
6177.77,0.63991
6154.63,0.64518
6131.48,0.64987
6108.34,0.65815
6085.19,0.66644
6062.05,0.66793
6038.9,0.67192
6015.76,0.67672
5992.61,0.68261
5969.47,0.68007
5946.32,0.67762
5923.18,0.67166
5900.03,0.66702
5876.89,0.66506
5853.74,0.66483
5830.6,0.65704
5807.45,0.65423
5784.31,0.64913
5761.16,0.65126
5738.02,0.64906
5714.87,0.64800
5691.73,0.64528
5668.58,0.64193
5645.44,0.64314
5622.29,0.64258
5599.15,0.64219
5576,0.64655
5552.86,0.65131
5529.71,0.65006
5506.57,0.65409
5483.42,0.65562
5460.28,0.65669
5437.13,0.66127
5413.99,0.66477
5390.84,0.67039
5367.7,0.66998
5344.55,0.66790
5321.41,0.65676
5298.26,0.63704
5275.12,0.59954
5251.97,0.55432
5228.83,0.51614
5205.68,0.49406
5182.54,0.48432
5159.39,0.48693
5136.25,0.49610
5113.1,0.50718
5089.96,0.52099
5066.81,0.53341
5043.67,0.54564
5020.52,0.55460
4997.38,0.55963
4974.23,0.55929
4951.09,0.54936
4927.94,0.53114
4904.8,0.50584
4881.65,0.48134
4858.51,0.46345
4835.36,0.44993
4812.22,0.44044
4789.07,0.43326
4765.93,0.43162
4742.78,0.43776
4719.64,0.44527
4696.49,0.45444
4673.35,0.46533
4650.2,0.47549
4627.06,0.48372
4603.92,0.49295
4580.77,0.49936
4557.63,0.50486
4534.48,0.51120
4511.34,0.51487
4488.19,0.51673
4465.05,0.50769
4441.9,0.48580
4418.76,0.45594
4395.61,0.44418
4372.47,0.44438
4349.32,0.44060
4326.18,0.42750
4303.03,0.41694
4279.89,0.41198
4256.74,0.40889
4233.6,0.40965
4210.45,0.41298
4187.31,0.41485
4164.16,0.41161
4141.02,0.39856
4117.87,0.38160
4094.73,0.35930
4071.58,0.33559
4048.44,0.31427
4025.29,0.30048
4002.15,0.29445
3979,0.29742
3955.86,0.30130
3932.71,0.31055
3909.57,0.32257
3886.42,0.33580
3863.28,0.34853
3840.13,0.35865
3816.99,0.36011
3793.84,0.35652
3770.7,0.35024
3747.55,0.34208
3724.41,0.32146
3701.26,0.28714
3678.12,0.23017
3654.97,0.15293
3631.83,0.09854
3608.68,0.06434
3585.54,0.04370
3562.39,0.03490
3539.25,0.02822
3516.1,0.02545
3492.96,0.02482
3469.81,0.02551
3446.67,0.02587
3423.52,0.02631
3400.38,0.02718
3377.23,0.02694
3354.09,0.02798
3330.94,0.02744
3307.8,0.02889
3284.65,0.02923
3261.51,0.02921
3238.36,0.03068
3215.22,0.03138
3192.07,0.03289
3168.93,0.03596
3145.78,0.03831
3122.64,0.04339
3099.49,0.04999
3076.35,0.05820
3053.2,0.06754
3030.06,0.07753
3006.91,0.08320
2983.77,0.07354
2960.62,0.05734
2937.48,0.04509
2914.33,0.04068
2891.19,0.04067
2868.04,0.04750
2844.9,0.06335
2821.75,0.08034
2798.61,0.09264
2775.46,0.10297
2752.32,0.11075
2729.17,0.11445
2706.03,0.12210
2682.88,0.13219
2659.74,0.14341
2636.59,0.15532
2613.45,0.16662
2590.3,0.17512
2567.16,0.18072
2544.02,0.18351
2520.87,0.18715
2497.73,0.19245
2474.58,0.20130
2451.44,0.21292
2428.29,0.22560
2405.15,0.23653
2382,0.24314
2358.86,0.25106
2335.71,0.25847
2312.57,0.26022
2289.42,0.25872
2266.28,0.25040
2243.13,0.24073
2219.99,0.23438
2196.84,0.22933
2173.7,0.21971
2150.55,0.21176
2127.41,0.21011
2104.26,0.21764
2081.12,0.22563
2057.97,0.22602
2034.83,0.22926
2011.68,0.24456
1988.54,0.25261
1965.39,0.26445
1942.25,0.28026
1919.1,0.29187
1895.96,0.29987
1872.81,0.29844
1849.67,0.28929
1826.52,0.27598
1803.38,0.25917
1780.23,0.23966
1757.09,0.21067
1733.94,0.17814
1710.8,0.09560
1687.65,0.05945
1664.51,0.05832
1641.36,0.06435
1618.22,0.07813
1595.07,0.09774
1571.93,0.11354
1548.78,0.11612
1525.64,0.09330
1502.49,0.06760
1479.35,0.05327
1456.2,0.03753
1433.06,0.03271
1409.91,0.03178
1386.77,0.02993
1363.62,0.02927
1340.48,0.03146
1317.33,0.03098
1294.19,0.03613
1271.04,0.03418
1247.9,0.03556
1224.75,0.03382
1201.61,0.02746
1178.46,0.02281
1155.32,0.02589
1132.17,0.02042
1109.03,0.02758
1085.88,0.03248
1062.74,0.04486
1039.59,0.04142
1016.45,0.04753
993.304,0.04880
970.159,0.06358
947.014,0.08941
923.869,0.08903
900.724,0.05646
877.579,0.09131
854.434,0.09340
831.289,0.07697
808.144,0.06712
784.999,0.05914
761.854,0.05246
738.709,0.04552
715.565,0.04113
692.42,0.03821
669.275,0.03506
646.13,0.03455
622.985,0.03100
599.84,0.03465

File: Rayon_Bamboo_Pillowcase_IS_S_220909_R7.dpt
7497.03,0.82875
7473.89,0.81916
7450.74,0.80271
7427.6,0.80065
7404.45,0.79694
7381.31,0.79192
7358.16,0.78902
7335.02,0.77347
7311.87,0.76735
7288.73,0.76121
7265.58,0.76365
7242.44,0.76794
7219.29,0.75696
7196.15,0.75746
7173,0.75299
7149.86,0.74421
7126.71,0.72127
7103.57,0.70939
7080.42,0.68586
7057.28,0.65875
7034.13,0.63744
7010.99,0.61251
6987.84,0.61019
6964.7,0.58934
6941.55,0.57665
6918.41,0.57553
6895.26,0.57206
6872.12,0.56824
6848.97,0.56477
6825.83,0.56029
6802.68,0.55614
6779.54,0.55178
6756.39,0.55929
6733.25,0.55671
6710.1,0.56537
6686.96,0.56670
6663.82,0.56972
6640.67,0.57738
6617.53,0.58331
6594.38,0.59073
6571.24,0.59472
6548.09,0.60016
6524.95,0.59939
6501.8,0.60407
6478.66,0.60442
6455.51,0.61035
6432.37,0.60427
6409.22,0.60683
6386.08,0.61073
6362.93,0.60411
6339.79,0.60670
6316.64,0.61321
6293.5,0.61976
6270.35,0.62059
6247.21,0.62321
6224.06,0.63050
6200.92,0.63123
6177.77,0.64133
6154.63,0.64751
6131.48,0.65089
6108.34,0.65887
6085.19,0.66228
6062.05,0.66914
6038.9,0.67472
6015.76,0.67775
5992.61,0.68035
5969.47,0.68364
5946.32,0.68095
5923.18,0.67182
5900.03,0.66616
5876.89,0.66708
5853.74,0.66468
5830.6,0.66316
5807.45,0.65279
5784.31,0.65107
5761.16,0.65083
5738.02,0.65118
5714.87,0.64979
5691.73,0.64563
5668.58,0.64545
5645.44,0.64445
5622.29,0.64399
5599.15,0.64214
5576,0.64684
5552.86,0.64789
5529.71,0.65399
5506.57,0.65190
5483.42,0.65479
5460.28,0.65805
5437.13,0.65908
5413.99,0.66347
5390.84,0.67084
5367.7,0.67190
5344.55,0.66977
5321.41,0.65668
5298.26,0.63746
5275.12,0.60367
5251.97,0.55816
5228.83,0.51876
5205.68,0.49827
5182.54,0.48898
5159.39,0.48961
5136.25,0.50070
5113.1,0.51283
5089.96,0.52568
5066.81,0.53739
5043.67,0.55006
5020.52,0.55861
4997.38,0.56389
4974.23,0.56157
4951.09,0.55178
4927.94,0.53247
4904.8,0.50559
4881.65,0.48207
4858.51,0.46290
4835.36,0.44940
4812.22,0.43962
4789.07,0.43302
4765.93,0.43276
4742.78,0.43824
4719.64,0.44538
4696.49,0.45351
4673.35,0.46618
4650.2,0.47531
4627.06,0.48452
4603.92,0.49201
4580.77,0.49940
4557.63,0.50612
4534.48,0.51135
4511.34,0.51605
4488.19,0.51485
4465.05,0.50733
4441.9,0.48484
4418.76,0.45562
4395.61,0.44392
4372.47,0.44441
4349.32,0.44054
4326.18,0.42724
4303.03,0.41813
4279.89,0.41233
4256.74,0.40880
4233.6,0.41002
4210.45,0.41248
4187.31,0.41558
4164.16,0.41256
4141.02,0.39946
4117.87,0.38220
4094.73,0.36075
4071.58,0.33603
4048.44,0.31505
4025.29,0.30049
4002.15,0.29481
3979,0.29808
3955.86,0.30142
3932.71,0.31025
3909.57,0.32307
3886.42,0.33602
3863.28,0.34913
3840.13,0.35991
3816.99,0.36159
3793.84,0.35734
3770.7,0.35172
3747.55,0.34358
3724.41,0.32255
3701.26,0.28871
3678.12,0.23214
3654.97,0.15636
3631.83,0.10062
3608.68,0.06565
3585.54,0.04491
3562.39,0.03428
3539.25,0.02836
3516.1,0.02551
3492.96,0.02493
3469.81,0.02513
3446.67,0.02622
3423.52,0.02662
3400.38,0.02795
3377.23,0.02773
3354.09,0.02833
3330.94,0.02806
3307.8,0.02903
3284.65,0.02971
3261.51,0.02987
3238.36,0.03056
3215.22,0.03243
3192.07,0.03366
3168.93,0.03568
3145.78,0.03879
3122.64,0.04356
3099.49,0.05043
3076.35,0.05902
3053.2,0.06916
3030.06,0.07845
3006.91,0.08434
2983.77,0.07401
2960.62,0.05703
2937.48,0.04526
2914.33,0.04047
2891.19,0.04055
2868.04,0.04813
2844.9,0.06293
2821.75,0.08059
2798.61,0.09268
2775.46,0.10371
2752.32,0.11129
2729.17,0.11450
2706.03,0.12242
2682.88,0.13274
2659.74,0.14422
2636.59,0.15569
2613.45,0.16701
2590.3,0.17561
2567.16,0.18143
2544.02,0.18425
2520.87,0.18742
2497.73,0.19294
2474.58,0.20229
2451.44,0.21347
2428.29,0.22606
2405.15,0.23645
2382,0.24421
2358.86,0.25091
2335.71,0.25898
2312.57,0.26114
2289.42,0.26000
2266.28,0.25136
2243.13,0.24241
2219.99,0.23620
2196.84,0.23062
2173.7,0.22038
2150.55,0.21314
2127.41,0.21172
2104.26,0.21912
2081.12,0.22719
2057.97,0.22726
2034.83,0.23130
2011.68,0.24616
1988.54,0.25420
1965.39,0.26599
1942.25,0.28178
1919.1,0.29354
1895.96,0.30168
1872.81,0.30031
1849.67,0.29145
1826.52,0.27761
1803.38,0.26083
1780.23,0.24134
1757.09,0.21218
1733.94,0.17935
1710.8,0.09590
1687.65,0.06013
1664.51,0.05910
1641.36,0.06528
1618.22,0.07847
1595.07,0.09927
1571.93,0.11487
1548.78,0.11738
1525.64,0.09384
1502.49,0.06809
1479.35,0.05277
1456.2,0.03730
1433.06,0.03270
1409.91,0.03187
1386.77,0.02983
1363.62,0.02949
1340.48,0.03102
1317.33,0.03090
1294.19,0.03591
1271.04,0.03428
1247.9,0.03544
1224.75,0.03409
1201.61,0.02743
1178.46,0.02204
1155.32,0.02570
1132.17,0.02069
1109.03,0.02805
1085.88,0.03249
1062.74,0.04446
1039.59,0.04078
1016.45,0.04745
993.304,0.04853
970.159,0.06348
947.014,0.08971
923.869,0.08999
900.724,0.05750
877.579,0.09184
854.434,0.09485
831.289,0.07853
808.144,0.06772
784.999,0.06052
761.854,0.05323
738.709,0.04708
715.565,0.04107
692.42,0.03761
669.275,0.03434
646.13,0.03589
622.985,0.03429
599.84,0.03349

File: Rayon_Bamboo_Pillowcase_IS_S_220909_R8.dpt
7497.03,0.82960
7473.89,0.81399
7450.74,0.81193
7427.6,0.80493
7404.45,0.79668
7381.31,0.80098
7358.16,0.77296
7335.02,0.77479
7311.87,0.77345
7288.73,0.76563
7265.58,0.76421
7242.44,0.76487
7219.29,0.76970
7196.15,0.75464
7173,0.75101
7149.86,0.73975
7126.71,0.72942
7103.57,0.70860
7080.42,0.68568
7057.28,0.65703
7034.13,0.63676
7010.99,0.61738
6987.84,0.60672
6964.7,0.59135
6941.55,0.58300
6918.41,0.58000
6895.26,0.57111
6872.12,0.57100
6848.97,0.56192
6825.83,0.56157
6802.68,0.56042
6779.54,0.55543
6756.39,0.55454
6733.25,0.56056
6710.1,0.56231
6686.96,0.56841
6663.82,0.57040
6640.67,0.57911
6617.53,0.58635
6594.38,0.58838
6571.24,0.59246
6548.09,0.59704
6524.95,0.60099
6501.8,0.60469
6478.66,0.60755
6455.51,0.60638
6432.37,0.60439
6409.22,0.61055
6386.08,0.60906
6362.93,0.60870
6339.79,0.61260
6316.64,0.61425
6293.5,0.61604
6270.35,0.61977
6247.21,0.62314
6224.06,0.63255
6200.92,0.63520
6177.77,0.64209
6154.63,0.64852
6131.48,0.65337
6108.34,0.65719
6085.19,0.66210
6062.05,0.67240
6038.9,0.67647
6015.76,0.67981
5992.61,0.68209
5969.47,0.68398
5946.32,0.67620
5923.18,0.67146
5900.03,0.66802
5876.89,0.66453
5853.74,0.66337
5830.6,0.65970
5807.45,0.65357
5784.31,0.65366
5761.16,0.65081
5738.02,0.65224
5714.87,0.64924
5691.73,0.64752
5668.58,0.64463
5645.44,0.64569
5622.29,0.64542
5599.15,0.64714
5576,0.64739
5552.86,0.64958
5529.71,0.65305
5506.57,0.65461
5483.42,0.65475
5460.28,0.65920
5437.13,0.66197
5413.99,0.66690
5390.84,0.67129
5367.7,0.67131
5344.55,0.66880
5321.41,0.65940
5298.26,0.64020
5275.12,0.60601
5251.97,0.56056
5228.83,0.52300
5205.68,0.50033
5182.54,0.49101
5159.39,0.49262
5136.25,0.50324
5113.1,0.51514
5089.96,0.52919
5066.81,0.53980
5043.67,0.55162
5020.52,0.56008
4997.38,0.56679
4974.23,0.56278
4951.09,0.55052
4927.94,0.53322
4904.8,0.50800
4881.65,0.48215
4858.51,0.46473
4835.36,0.44992
4812.22,0.43892
4789.07,0.43321
4765.93,0.43398
4742.78,0.43819
4719.64,0.44665
4696.49,0.45585
4673.35,0.46620
4650.2,0.47611
4627.06,0.48422
4603.92,0.49190
4580.77,0.50099
4557.63,0.50569
4534.48,0.51165
4511.34,0.51662
4488.19,0.51743
4465.05,0.50896
4441.9,0.48549
4418.76,0.45596
4395.61,0.44446
4372.47,0.44429
4349.32,0.44090
4326.18,0.42791
4303.03,0.41858
4279.89,0.41236
4256.74,0.40889
4233.6,0.40979
4210.45,0.41315
4187.31,0.41542
4164.16,0.41299
4141.02,0.39934
4117.87,0.38247
4094.73,0.36060
4071.58,0.33649
4048.44,0.31578
4025.29,0.30081
4002.15,0.29519
3979,0.29894
3955.86,0.30240
3932.71,0.31114
3909.57,0.32348
3886.42,0.33614
3863.28,0.34915
3840.13,0.36055
3816.99,0.36264
3793.84,0.35846
3770.7,0.35304
3747.55,0.34451
3724.41,0.32394
3701.26,0.29084
3678.12,0.23551
3654.97,0.15824
3631.83,0.10157
3608.68,0.06678
3585.54,0.04547
3562.39,0.03462
3539.25,0.02875
3516.1,0.02633
3492.96,0.02533
3469.81,0.02500
3446.67,0.02599
3423.52,0.02669
3400.38,0.02773
3377.23,0.02736
3354.09,0.02750
3330.94,0.02784
3307.8,0.02870
3284.65,0.02911
3261.51,0.03006
3238.36,0.03093
3215.22,0.03214
3192.07,0.03439
3168.93,0.03614
3145.78,0.03937
3122.64,0.04396
3099.49,0.05088
3076.35,0.05945
3053.2,0.06903
3030.06,0.07888
3006.91,0.08490
2983.77,0.07414
2960.62,0.05702
2937.48,0.04525
2914.33,0.04064
2891.19,0.04046
2868.04,0.04812
2844.9,0.06345
2821.75,0.08039
2798.61,0.09348
2775.46,0.10405
2752.32,0.11132
2729.17,0.11537
2706.03,0.12287
2682.88,0.13318
2659.74,0.14431
2636.59,0.15597
2613.45,0.16734
2590.3,0.17563
2567.16,0.18165
2544.02,0.18484
2520.87,0.18743
2497.73,0.19304
2474.58,0.20260
2451.44,0.21383
2428.29,0.22641
2405.15,0.23741
2382,0.24444
2358.86,0.25105
2335.71,0.25952
2312.57,0.26194
2289.42,0.26084
2266.28,0.25250
2243.13,0.24317
2219.99,0.23727
2196.84,0.23178
2173.7,0.22213
2150.55,0.21403
2127.41,0.21211
2104.26,0.22073
2081.12,0.22862
2057.97,0.22825
2034.83,0.23209
2011.68,0.24747
1988.54,0.25505
1965.39,0.26723
1942.25,0.28271
1919.1,0.29463
1895.96,0.30311
1872.81,0.30174
1849.67,0.29231
1826.52,0.27909
1803.38,0.26214
1780.23,0.24222
1757.09,0.21344
1733.94,0.18058
1710.8,0.09590
1687.65,0.06014
1664.51,0.06000
1641.36,0.06650
1618.22,0.08057
1595.07,0.09988
1571.93,0.11556
1548.78,0.11829
1525.64,0.09410
1502.49,0.06792
1479.35,0.05344
1456.2,0.03723
1433.06,0.03298
1409.91,0.03177
1386.77,0.02993
1363.62,0.02896
1340.48,0.03115
1317.33,0.03082
1294.19,0.03634
1271.04,0.03398
1247.9,0.03537
1224.75,0.03389
1201.61,0.02742
1178.46,0.02187
1155.32,0.02607
1132.17,0.02090
1109.03,0.02796
1085.88,0.03264
1062.74,0.04404
1039.59,0.04184
1016.45,0.04754
993.304,0.04896
970.159,0.06377
947.014,0.08974
923.869,0.08949
900.724,0.05743
877.579,0.09217
854.434,0.09599
831.289,0.08010
808.144,0.06837
784.999,0.06145
761.854,0.05437
738.709,0.04773
715.565,0.04281
692.42,0.03887
669.275,0.03425
646.13,0.03398
622.985,0.03298
599.84,0.03507

File: Rayon_Bamboo_Pillowcase_IS_T_220909_R2.dpt
7497.03,0.02257
7473.89,0.02770
7450.74,0.02661
7427.6,0.02435
7404.45,0.02560
7381.31,0.02577
7358.16,0.01769
7335.02,0.01829
7311.87,0.02296
7288.73,0.02361
7265.58,0.01772
7242.44,0.02340
7219.29,0.02809
7196.15,0.02605
7173,0.01613
7149.86,0.01729
7126.71,0.02159
7103.57,0.02593
7080.42,0.02319
7057.28,0.01886
7034.13,0.02490
7010.99,0.02594
6987.84,0.02557
6964.7,0.02882
6941.55,0.02500
6918.41,0.02645
6895.26,0.02823
6872.12,0.01852
6848.97,0.02335
6825.83,0.02671
6802.68,0.02428
6779.54,0.02219
6756.39,0.02403
6733.25,0.01961
6710.1,0.02749
6686.96,0.02319
6663.82,0.02380
6640.67,0.02384
6617.53,0.02191
6594.38,0.02244
6571.24,0.02522
6548.09,0.01835
6524.95,0.02232
6501.8,0.02095
6478.66,0.02521
6455.51,0.02163
6432.37,0.02291
6409.22,0.02060
6386.08,0.02488
6362.93,0.02241
6339.79,0.02184
6316.64,0.02258
6293.5,0.02169
6270.35,0.01973
6247.21,0.02111
6224.06,0.02124
6200.92,0.01895
6177.77,0.01963
6154.63,0.02111
6131.48,0.02133
6108.34,0.02255
6085.19,0.02288
6062.05,0.02218
6038.9,0.02214
6015.76,0.02287
5992.61,0.02236
5969.47,0.02206
5946.32,0.02265
5923.18,0.02140
5900.03,0.02133
5876.89,0.02072
5853.74,0.02578
5830.6,0.02236
5807.45,0.02300
5784.31,0.02242
5761.16,0.02016
5738.02,0.02058
5714.87,0.02205
5691.73,0.02132
5668.58,0.02227
5645.44,0.02423
5622.29,0.02071
5599.15,0.02282
5576,0.02069
5552.86,0.02100
5529.71,0.02429
5506.57,0.02108
5483.42,0.02508
5460.28,0.02313
5437.13,0.02364
5413.99,0.02247
5390.84,0.02306
5367.7,0.02236
5344.55,0.02183
5321.41,0.02238
5298.26,0.02298
5275.12,0.02162
5251.97,0.02233
5228.83,0.02288
5205.68,0.02163
5182.54,0.02084
5159.39,0.02233
5136.25,0.02246
5113.1,0.02236
5089.96,0.02259
5066.81,0.02277
5043.67,0.02362
5020.52,0.02194
4997.38,0.02149
4974.23,0.02338
4951.09,0.02200
4927.94,0.02292
4904.8,0.02313
4881.65,0.02216
4858.51,0.02204
4835.36,0.02182
4812.22,0.02301
4789.07,0.02465
4765.93,0.02326
4742.78,0.02265
4719.64,0.02303
4696.49,0.02351
4673.35,0.02346
4650.2,0.02147
4627.06,0.02272
4603.92,0.02296
4580.77,0.02262
4557.63,0.02272
4534.48,0.02217
4511.34,0.02440
4488.19,0.02299
4465.05,0.02314
4441.9,0.02335
4418.76,0.02326
4395.61,0.02252
4372.47,0.02250
4349.32,0.02284
4326.18,0.02289
4303.03,0.02356
4279.89,0.02278
4256.74,0.02362
4233.6,0.02343
4210.45,0.02316
4187.31,0.02305
4164.16,0.02254
4141.02,0.02259
4117.87,0.02258
4094.73,0.02233
4071.58,0.02370
4048.44,0.02259
4025.29,0.02284
4002.15,0.02284
3979,0.02320
3955.86,0.02243
3932.71,0.02326
3909.57,0.02377
3886.42,0.02301
3863.28,0.02340
3840.13,0.02334
3816.99,0.02327
3793.84,0.02261
3770.7,0.02355
3747.55,0.02399
3724.41,0.02358
3701.26,0.02297
3678.12,0.02347
3654.97,0.02231
3631.83,0.02302
3608.68,0.02292
3585.54,0.02207
3562.39,0.02225
3539.25,0.02147
3516.1,0.02169
3492.96,0.02135
3469.81,0.02063
3446.67,0.02067
3423.52,0.02124
3400.38,0.02062
3377.23,0.02125
3354.09,0.02056
3330.94,0.01978
3307.8,0.01994
3284.65,0.02009
3261.51,0.02130
3238.36,0.02098
3215.22,0.02106
3192.07,0.02128
3168.93,0.02090
3145.78,0.02170
3122.64,0.02076
3099.49,0.02129
3076.35,0.02120
3053.2,0.02098
3030.06,0.02094
3006.91,0.02097
2983.77,0.02067
2960.62,0.01988
2937.48,0.01994
2914.33,0.02074
2891.19,0.02111
2868.04,0.02089
2844.9,0.02150
2821.75,0.02178
2798.61,0.02146
2775.46,0.02202
2752.32,0.02231
2729.17,0.02183
2706.03,0.02206
2682.88,0.02207
2659.74,0.02164
2636.59,0.02166
2613.45,0.02194
2590.3,0.02179
2567.16,0.02220
2544.02,0.02185
2520.87,0.02200
2497.73,0.02191
2474.58,0.02199
2451.44,0.02207
2428.29,0.02175
2405.15,0.02205
2382,0.02214
2358.86,0.02254
2335.71,0.02212
2312.57,0.02181
2289.42,0.02189
2266.28,0.02161
2243.13,0.02191
2219.99,0.02145
2196.84,0.02167
2173.7,0.02161
2150.55,0.02178
2127.41,0.02162
2104.26,0.02199
2081.12,0.02170
2057.97,0.02195
2034.83,0.02165
2011.68,0.02154
1988.54,0.02162
1965.39,0.02149
1942.25,0.02176
1919.1,0.02124
1895.96,0.02123
1872.81,0.02108
1849.67,0.02098
1826.52,0.02119
1803.38,0.02009
1780.23,0.01963
1757.09,0.01856
1733.94,0.02024
1710.8,0.02149
1687.65,0.02032
1664.51,0.01953
1641.36,0.01913
1618.22,0.01973
1595.07,0.01974
1571.93,0.01897
1548.78,0.01897
1525.64,0.01960
1502.49,0.01916
1479.35,0.01937
1456.2,0.01962
1433.06,0.01950
1409.91,0.01889
1386.77,0.01824
1363.62,0.01897
1340.48,0.01855
1317.33,0.01741
1294.19,0.01880
1271.04,0.01983
1247.9,0.02115
1224.75,0.02007
1201.61,0.01865
1178.46,0.01832
1155.32,0.01785
1132.17,0.01871
1109.03,0.01904
1085.88,0.01855
1062.74,0.02017
1039.59,0.01969
1016.45,0.01998
993.304,0.02123
970.159,0.02085
947.014,0.02073
923.869,0.01922
900.724,0.01985
877.579,0.01943
854.434,0.01913
831.289,0.01962
808.144,0.01845
784.999,0.01897
761.854,0.01881
738.709,0.01832
715.565,0.01858
692.42,0.01840
669.275,0.01742
646.13,0.01520
622.985,0.01574
599.84,0.01702