Folder: fsri_materials_database/01_Data/Rayon_Bamboo_Pillowcase/FTIR/IS

Note: README.md
# Materials and Products Database
### Repository of materials and products properties and fire test data to improve fire modeling and fire investigation.

This project was supported in part by Award No. 2019-DU-BX-0018, awarded by the National Institute of Justice, Office of Justice Programs, U.S. Department of Justice. The opinions, findings, and conclusions or recommendations expressed in this publication / program / exhibition are those of the author(s) and do not necessarily reflect those of the Department of Justice.

***
***

__Cite this database:__ "McKinnon, M., Weinschenk, C., Dow, N., DiDomizio, M., and Madrzykowski, D. Materials and Products Database (Version 1.0.0), Fire Safety Research Institute, UL Research Institutes. Columbia, MD 21045, 2023."

__Cite the Technical Reference Guide:__ "McKinnon, M., Weinschenk, C., and Madrzykowski, D. Materials and Products Database - Technical Reference Guide, Fire Safety Research Institute, UL Research Institutes. Columbia, MD 21045, 2023."

__Cite the User Guide:__ "McKinnon, M., and Weinschenk, C. Materials and Products Database - User Guide, Fire Safety Research Institute, UL Research Institutes. Columbia, MD 21045, 2023."

***
***

## Database Structure

## 01_Data/
Raw data generated from each apparatus are included here in plain-text format. The data is organized first by material, next by the short name of test apparatus used, and where applicable additional filtering by test settings.

### Test Apparatus and Data File Structure
- __Cone Calorimeter__ (Cone)
    + Data file structure includes the material, the short name for the apparatus, heat flux setting and scan/scalar, date of test, and replicate number. Scan is for the raw output data and scalar is for the initial conditions and high-level test parameters. 
        * Example: __MDF_Cone_HF25scalar_210323_R1__ stands for the first replicate of scalar data generated from a medium density fiber board test in cone calorimeter exposed to 25 kW/m<sup>2</sup> on March 23, 2021.
    + A _Cone_Notes.csv_ is generated for each material from the __plot_Cone_data.py__ script. For materials whose experiments deviated from typical behavior relevant pictures are included in the respective material directory.
- __Fourier Transform Infrared Spectrometer__ (FTIR)
    + The FTIR directory contains subdirectories for the Attenuated Total Reflectance method (ATR) and the Integrating Sphere (IS)
    + Data file structure for the ATR experiment files includes the material, the abbreviated name for the apparatus, date of test, and replicate number. 
        * Example: __MDF_ATR_210323_R5__ stands for the fifth replicate of data collected with the ATR accessory conducted on June 8, 2021.
    + Data file structure for the IS experiment files includes the material, the abbreviated name for the apparatus, the measurand, whether the test is a sample measurement or standard reference, date of test, and replicate number.
        * Example: __OSB_IS_REFLECT_MEAS_2

File: Rayon_Bamboo_Pillowcase_IS_S_220909_R1.dpt
7497.03,0.81739
7473.89,0.81435
7450.74,0.81171
7427.6,0.80076
7404.45,0.78753
7381.31,0.78335
7358.16,0.77402
7335.02,0.77077
7311.87,0.76652
7288.73,0.75866
7265.58,0.76703
7242.44,0.74856
7219.29,0.75948
7196.15,0.74131
7173,0.74485
7149.86,0.72877
7126.71,0.72029
7103.57,0.69420
7080.42,0.66637
7057.28,0.64627
7034.13,0.62658
7010.99,0.61019
6987.84,0.59773
6964.7,0.58117
6941.55,0.57530
6918.41,0.56543
6895.26,0.56446
6872.12,0.55460
6848.97,0.55447
6825.83,0.55361
6802.68,0.54752
6779.54,0.55005
6756.39,0.55084
6733.25,0.54859
6710.1,0.55530
6686.96,0.55224
6663.82,0.56206
6640.67,0.56656
6617.53,0.57581
6594.38,0.58270
6571.24,0.58779
6548.09,0.58816
6524.95,0.59778
6501.8,0.59589
6478.66,0.59942
6455.51,0.59566
6432.37,0.59750
6409.22,0.60028
6386.08,0.59836
6362.93,0.60170
6339.79,0.60107
6316.64,0.60384
6293.5,0.60857
6270.35,0.61501
6247.21,0.61865
6224.06,0.62210
6200.92,0.62598
6177.77,0.63559
6154.63,0.63590
6131.48,0.64523
6108.34,0.65226
6085.19,0.65525
6062.05,0.66238
6038.9,0.66570
6015.76,0.66989
5992.61,0.67149
5969.47,0.67418
5946.32,0.67071
5923.18,0.66534
5900.03,0.66403
5876.89,0.65936
5853.74,0.65746
5830.6,0.65186
5807.45,0.64560
5784.31,0.64552
5761.16,0.64640
5738.02,0.64462
5714.87,0.64474
5691.73,0.63946
5668.58,0.63651
5645.44,0.63680
5622.29,0.63632
5599.15,0.63731
5576,0.63580
5552.86,0.64126
5529.71,0.64416
5506.57,0.64549
5483.42,0.64588
5460.28,0.64688
5437.13,0.65025
5413.99,0.65256
5390.84,0.65831
5367.7,0.65906
5344.55,0.64699
5321.41,0.64119
5298.26,0.61412
5275.12,0.57249
5251.97,0.51824
5228.83,0.47860
5205.68,0.45000
5182.54,0.44192
5159.39,0.44430
5136.25,0.45484
5113.1,0.46841
5089.96,0.48270
5066.81,0.49636
5043.67,0.51080
5020.52,0.52230
4997.38,0.53183
4974.23,0.53506
4951.09,0.52954
4927.94,0.51575
4904.8,0.49579
4881.65,0.47417
4858.51,0.45828
4835.36,0.44621
4812.22,0.43570
4789.07,0.42941
4765.93,0.42938
4742.78,0.43567
4719.64,0.44281
4696.49,0.45073
4673.35,0.46213
4650.2,0.47044
4627.06,0.47837
4603.92,0.48697
4580.77,0.49450
4557.63,0.50062
4534.48,0.50557
4511.34,0.51009
4488.19,0.51113
4465.05,0.50282
4441.9,0.48023
4418.76,0.45217
4395.61,0.44261
4372.47,0.44185
4349.32,0.43902
4326.18,0.42467
4303.03,0.41466
4279.89,0.40838
4256.74,0.40468
4233.6,0.40394
4210.45,0.40637
4187.31,0.40816
4164.16,0.40406
4141.02,0.39050
4117.87,0.37353
4094.73,0.35220
4071.58,0.32877
4048.44,0.30805
4025.29,0.29452
4002.15,0.28842
3979,0.29052
3955.86,0.29294
3932.71,0.29922
3909.57,0.31257
3886.42,0.32078
3863.28,0.32967
3840.13,0.33625
3816.99,0.33740
3793.84,0.33719
3770.7,0.32765
3747.55,0.31016
3724.41,0.29309
3701.26,0.25825
3678.12,0.19891
3654.97,0.12757
3631.83,0.07871
3608.68,0.05171
3585.54,0.03781
3562.39,0.03080
3539.25,0.02656
3516.1,0.02507
3492.96,0.02393
3469.81,0.02386
3446.67,0.02626
3423.52,0.02660
3400.38,0.02764
3377.23,0.02718
3354.09,0.02737
3330.94,0.02827
3307.8,0.02908
3284.65,0.02897
3261.51,0.02873
3238.36,0.03025
3215.22,0.03127
3192.07,0.03202
3168.93,0.03308
3145.78,0.03624
3122.64,0.03993
3099.49,0.04576
3076.35,0.05257
3053.2,0.06055
3030.06,0.06959
3006.91,0.07570
2983.77,0.06832
2960.62,0.05577
2937.48,0.04388
2914.33,0.04045
2891.19,0.04062
2868.04,0.04727
2844.9,0.06162
2821.75,0.07709
2798.61,0.08911
2775.46,0.09956
2752.32,0.10675
2729.17,0.11099
2706.03,0.11782
2682.88,0.12838
2659.74,0.13997
2636.59,0.15175
2613.45,0.16265
2590.3,0.17118
2567.16,0.17655
2544.02,0.17876
2520.87,0.18228
2497.73,0.18825
2474.58,0.19686
2451.44,0.20790
2428.29,0.21954
2405.15,0.22938
2382,0.23555
2358.86,0.24430
2335.71,0.25045
2312.57,0.24926
2289.42,0.24569
2266.28,0.23615
2243.13,0.22682
2219.99,0.21979
2196.84,0.21313
2173.7,0.20332
2150.55,0.19628
2127.41,0.19479
2104.26,0.20172
2081.12,0.20933
2057.97,0.20978
2034.83,0.21413
2011.68,0.22841
1988.54,0.23572
1965.39,0.24687
1942.25,0.26079
1919.1,0.27101
1895.96,0.27963
1872.81,0.27813
1849.67,0.26901
1826.52,0.25412
1803.38,0.23936
1780.23,0.21977
1757.09,0.19166
1733.94,0.15864
1710.8,0.08955
1687.65,0.05381
1664.51,0.04944
1641.36,0.05434
1618.22,0.06654
1595.07,0.08708
1571.93,0.10041
1548.78,0.10410
1525.64,0.08385
1502.49,0.06410
1479.35,0.05123
1456.2,0.03557
1433.06,0.03285
1409.91,0.03194
1386.77,0.02988
1363.62,0.02939
1340.48,0.03106
1317.33,0.03098
1294.19,0.03588
1271.04,0.03388
1247.9,0.03572
1224.75,0.03409
1201.61,0.02787
1178.46,0.02234
1155.32,0.02605
1132.17,0.02072
1109.03,0.02700
1085.88,0.03199
1062.74,0.04396
1039.59,0.04026
1016.45,0.04719
993.304,0.04866
970.159,0.06236
947.014,0.08602
923.869,0.08315
900.724,0.05368
877.579,0.08238
854.434,0.08027
831.289,0.06763
808.144,0.05785
784.999,0.05240
761.854,0.04595
738.709,0.04217
715.565,0.03746
692.42,0.03576
669.275,0.03402
646.13,0.03506
622.985,0.03351
599.84,0.03143

File: Rayon_Bamboo_Pillowcase_IS_S_220909_R2.dpt
7497.03,0.82000
7473.89,0.80941
7450.74,0.79358
7427.6,0.80349
7404.45,0.79383
7381.31,0.79758
7358.16,0.78336
7335.02,0.77130
7311.87,0.76799
7288.73,0.76574
7265.58,0.75809
7242.44,0.75565
7219.29,0.76066
7196.15,0.74933
7173,0.74183
7149.86,0.72716
7126.71,0.71872
7103.57,0.68990
7080.42,0.66636
7057.28,0.64716
7034.13,0.63249
7010.99,0.61307
6987.84,0.59951
6964.7,0.58169
6941.55,0.57448
6918.41,0.57311
6895.26,0.56393
6872.12,0.56302
6848.97,0.56064
6825.83,0.55836
6802.68,0.54572
6779.54,0.54918
6756.39,0.54910
6733.25,0.55092
6710.1,0.55930
6686.96,0.55959
6663.82,0.56459
6640.67,0.57225
6617.53,0.57619
6594.38,0.58738
6571.24,0.59090
6548.09,0.59458
6524.95,0.59474
6501.8,0.59633
6478.66,0.59772
6455.51,0.59948
6432.37,0.60399
6409.22,0.60054
6386.08,0.59913
6362.93,0.60127
6339.79,0.60003
6316.64,0.60319
6293.5,0.60822
6270.35,0.61261
6247.21,0.61779
6224.06,0.62252
6200.92,0.62832
6177.77,0.63855
6154.63,0.63861
6131.48,0.64568
6108.34,0.65100
6085.19,0.65346
6062.05,0.66427
6038.9,0.66709
6015.76,0.67045
5992.61,0.67445
5969.47,0.67196
5946.32,0.67158
5923.18,0.66728
5900.03,0.66264
5876.89,0.65937
5853.74,0.65815
5830.6,0.65521
5807.45,0.64934
5784.31,0.64682
5761.16,0.64647
5738.02,0.64518
5714.87,0.64348
5691.73,0.64314
5668.58,0.63773
5645.44,0.63667
5622.29,0.63798
5599.15,0.63855
5576,0.64095
5552.86,0.64560
5529.71,0.64722
5506.57,0.64924
5483.42,0.64950
5460.28,0.65110
5437.13,0.65340
5413.99,0.65843
5390.84,0.66366
5367.7,0.66349
5344.55,0.65796
5321.41,0.64435
5298.26,0.61861
5275.12,0.57894
5251.97,0.52996
5228.83,0.48748
5205.68,0.46181
5182.54,0.45064
5159.39,0.45370
5136.25,0.46438
5113.1,0.47546
5089.96,0.49135
5066.81,0.50337
5043.67,0.51790
5020.52,0.52925
4997.38,0.53609
4974.23,0.53905
4951.09,0.53471
4927.94,0.51933
4904.8,0.49782
4881.65,0.47688
4858.51,0.46087
4835.36,0.44607
4812.22,0.43713
4789.07,0.43116
4765.93,0.43013
4742.78,0.43529
4719.64,0.44298
4696.49,0.45228
4673.35,0.46151
4650.2,0.47149
4627.06,0.47947
4603.92,0.48693
4580.77,0.49555
4557.63,0.50113
4534.48,0.50734
4511.34,0.51160
4488.19,0.51215
4465.05,0.50450
4441.9,0.48060
4418.76,0.45264
4395.61,0.44252
4372.47,0.44288
4349.32,0.43904
4326.18,0.42610
4303.03,0.41521
4279.89,0.40917
4256.74,0.40528
4233.6,0.40538
4210.45,0.40857
4187.31,0.41016
4164.16,0.40594
4141.02,0.39184
4117.87,0.37544
4094.73,0.35488
4071.58,0.33116
4048.44,0.31017
4025.29,0.29626
4002.15,0.28906
3979,0.29250
3955.86,0.29521
3932.71,0.30405
3909.57,0.31553
3886.42,0.32794
3863.28,0.34007
3840.13,0.34847
3816.99,0.34902
3793.84,0.34342
3770.7,0.33649
3747.55,0.32489
3724.41,0.30311
3701.26,0.26712
3678.12,0.20807
3654.97,0.13383
3631.83,0.08396
3608.68,0.05525
3585.54,0.04005
3562.39,0.03148
3539.25,0.02697
3516.1,0.02461
3492.96,0.02423
3469.81,0.02518
3446.67,0.02660
3423.52,0.02646
3400.38,0.02721
3377.23,0.02798
3354.09,0.02775
3330.94,0.02839
3307.8,0.02876
3284.65,0.02898
3261.51,0.02935
3238.36,0.02935
3215.22,0.03176
3192.07,0.03282
3168.93,0.03425
3145.78,0.03675
3122.64,0.04064
3099.49,0.04625
3076.35,0.05339
3053.2,0.06191
3030.06,0.07139
3006.91,0.07733
2983.77,0.06942
2960.62,0.05587
2937.48,0.04457
2914.33,0.04023
2891.19,0.04044
2868.04,0.04773
2844.9,0.06170
2821.75,0.07787
2798.61,0.08996
2775.46,0.10044
2752.32,0.10764
2729.17,0.11135
2706.03,0.11914
2682.88,0.12891
2659.74,0.14097
2636.59,0.15263
2613.45,0.16425
2590.3,0.17196
2567.16,0.17795
2544.02,0.18072
2520.87,0.18334
2497.73,0.18894
2474.58,0.19811
2451.44,0.20898
2428.29,0.22114
2405.15,0.23130
2382,0.23701
2358.86,0.24197
2335.71,0.24859
2312.57,0.25033
2289.42,0.24858
2266.28,0.23958
2243.13,0.23008
2219.99,0.22336
2196.84,0.21718
2173.7,0.20768
2150.55,0.19992
2127.41,0.19835
2104.26,0.20515
2081.12,0.21275
2057.97,0.21358
2034.83,0.21764
2011.68,0.23236
1988.54,0.23985
1965.39,0.25173
1942.25,0.26630
1919.1,0.27684
1895.96,0.28457
1872.81,0.28300
1849.67,0.27377
1826.52,0.26114
1803.38,0.24507
1780.23,0.22584
1757.09,0.19768
1733.94,0.16605
1710.8,0.09182
1687.65,0.05491
1664.51,0.05140
1641.36,0.05599
1618.22,0.06921
1595.07,0.08994
1571.93,0.10424
1548.78,0.10787
1525.64,0.08788
1502.49,0.06509
1479.35,0.05207
1456.2,0.03724
1433.06,0.03293
1409.91,0.03215
1386.77,0.02952
1363.62,0.02932
1340.48,0.03157
1317.33,0.03072
1294.19,0.03573
1271.04,0.03436
1247.9,0.03560
1224.75,0.03388
1201.61,0.02745
1178.46,0.02262
1155.32,0.02531
1132.17,0.02035
1109.03,0.02728
1085.88,0.03249
1062.74,0.04334
1039.59,0.04110
1016.45,0.04736
993.304,0.04840
970.159,0.06270
947.014,0.08699
923.869,0.08446
900.724,0.05450
877.579,0.08384
854.434,0.08311
831.289,0.06935
808.144,0.05953
784.999,0.05338
761.854,0.04726
738.709,0.04274
715.565,0.03883
692.42,0.03572
669.275,0.03403
646.13,0.03385
622.985,0.03039
599.84,0.03319

File: Rayon_Bamboo_Pillowcase_IS_S_220909_R3.dpt
7497.03,0.82270
7473.89,0.82251
7450.74,0.81601
7427.6,0.80605
7404.45,0.79116
7381.31,0.80298
7358.16,0.78306
7335.02,0.77991
7311.87,0.77915
7288.73,0.76794
7265.58,0.76831
7242.44,0.76801
7219.29,0.76546
7196.15,0.75635
7173,0.74739
7149.86,0.73474
7126.71,0.72089
7103.57,0.70178
7080.42,0.68131
7057.28,0.65465
7034.13,0.63115
7010.99,0.61063
6987.84,0.59734
6964.7,0.58605
6941.55,0.57728
6918.41,0.57221
6895.26,0.57032
6872.12,0.56149
6848.97,0.55448
6825.83,0.54936
6802.68,0.55046
6779.54,0.54936
6756.39,0.54916
6733.25,0.55715
6710.1,0.56010
6686.96,0.56323
6663.82,0.56837
6640.67,0.57285
6617.53,0.58292
6594.38,0.58444
6571.24,0.59358
6548.09,0.59454
6524.95,0.59677
6501.8,0.60247
6478.66,0.60435
6455.51,0.60083
6432.37,0.60430
6409.22,0.60238
6386.08,0.60049
6362.93,0.60325
6339.79,0.60778
6316.64,0.60828
6293.5,0.60905
6270.35,0.61384
6247.21,0.61998
6224.06,0.62729
6200.92,0.63081
6177.77,0.63800
6154.63,0.64069
6131.48,0.64760
6108.34,0.65333
6085.19,0.66024
6062.05,0.66326
6038.9,0.66885
6015.76,0.67726
5992.61,0.67592
5969.47,0.67764
5946.32,0.67413
5923.18,0.66764
5900.03,0.66071
5876.89,0.66122
5853.74,0.66067
5830.6,0.65566
5807.45,0.64795
5784.31,0.64799
5761.16,0.64727
5738.02,0.64778
5714.87,0.64351
5691.73,0.64492
5668.58,0.63994
5645.44,0.63872
5622.29,0.63873
5599.15,0.64052
5576,0.64181
5552.86,0.64430
5529.71,0.64795
5506.57,0.65278
5483.42,0.65080
5460.28,0.66010
5437.13,0.66079
5413.99,0.67381
5390.84,0.67019
5367.7,0.66707
5344.55,0.67570
5321.41,0.64951
5298.26,0.62428
5275.12,0.58357
5251.97,0.53883
5228.83,0.49519
5205.68,0.47499
5182.54,0.45966
5159.39,0.46054
5136.25,0.46938
5113.1,0.48411
5089.96,0.49646
5066.81,0.50991
5043.67,0.52332
5020.52,0.53480
4997.38,0.54078
4974.23,0.54452
4951.09,0.53683
4927.94,0.52102
4904.8,0.49946
4881.65,0.47721
4858.51,0.46099
4835.36,0.44758
4812.22,0.43739
4789.07,0.43136
4765.93,0.43099
4742.78,0.43679
4719.64,0.44438
4696.49,0.45214
4673.35,0.46267
4650.2,0.47154
4627.06,0.48078
4603.92,0.48968
4580.77,0.49698
4557.63,0.50289
4534.48,0.50801
4511.34,0.51287
4488.19,0.51403
4465.05,0.50567
4441.9,0.48300
4418.76,0.45431
4395.61,0.44343
4372.47,0.44337
4349.32,0.43993
4326.18,0.42662
4303.03,0.41635
4279.89,0.40879
4256.74,0.40665
4233.6,0.40637
4210.45,0.40876
4187.31,0.41127
4164.16,0.40697
4141.02,0.39381
4117.87,0.37721
4094.73,0.35608
4071.58,0.33114
4048.44,0.31151
4025.29,0.29772
4002.15,0.29156
3979,0.29442
3955.86,0.29706
3932.71,0.30994
3909.57,0.31879
3886.42,0.33863
3863.28,0.35491
3840.13,0.37141
3816.99,0.36631
3793.84,0.35064
3770.7,0.34703
3747.55,0.35155
3724.41,0.31854
3701.26,0.27681
3678.12,0.22231
3654.97,0.14120
3631.83,0.08952
3608.68,0.05832
3585.54,0.04137
3562.39,0.03293
3539.25,0.02765
3516.1,0.02540
3492.96,0.02457
3469.81,0.02488
3446.67,0.02649
3423.52,0.02616
3400.38,0.02699
3377.23,0.02728
3354.09,0.02815
3330.94,0.02872
3307.8,0.02915
3284.65,0.03037
3261.51,0.03099
3238.36,0.03037
3215.22,0.03142
3192.07,0.03200
3168.93,0.03418
3145.78,0.03681
3122.64,0.04079
3099.49,0.04723
3076.35,0.05438
3053.2,0.06287
3030.06,0.07292
3006.91,0.07842
2983.77,0.07058
2960.62,0.05601
2937.48,0.04450
2914.33,0.04051
2891.19,0.04019
2868.04,0.04738
2844.9,0.06172
2821.75,0.07847
2798.61,0.09043
2775.46,0.10115
2752.32,0.10849
2729.17,0.11181
2706.03,0.11924
2682.88,0.13000
2659.74,0.14134
2636.59,0.15352
2613.45,0.16474
2590.3,0.17247
2567.16,0.17811
2544.02,0.18124
2520.87,0.18472
2497.73,0.18953
2474.58,0.19881
2451.44,0.20969
2428.29,0.22244
2405.15,0.23223
2382,0.23894
2358.86,0.24959
2335.71,0.25449
2312.57,0.25481
2289.42,0.25067
2266.28,0.24180
2243.13,0.23243
2219.99,0.22554
2196.84,0.21942
2173.7,0.20943
2150.55,0.20212
2127.41,0.20042
2104.26,0.20804
2081.12,0.21554
2057.97,0.21627
2034.83,0.21955
2011.68,0.23491
1988.54,0.24341
1965.39,0.25559
1942.25,0.27208
1919.1,0.28289
1895.96,0.28914
1872.81,0.28769
1849.67,0.27852
1826.52,0.26986
1803.38,0.25126
1780.23,0.23246
1757.09,0.20411
1733.94,0.17696
1710.8,0.09467
1687.65,0.05854
1664.51,0.05377
1641.36,0.05887
1618.22,0.07323
1595.07,0.09162
1571.93,0.10874
1548.78,0.11285
1525.64,0.09444
1502.49,0.06784
1479.35,0.05248
1456.2,0.03920
1433.06,0.03312
1409.91,0.03224
1386.77,0.03029
1363.62,0.02961
1340.48,0.03176
1317.33,0.03129
1294.19,0.03579
1271.04,0.03422
1247.9,0.03526
1224.75,0.03382
1201.61,0.02788
1178.46,0.02245
1155.32,0.02570
1132.17,0.02052
1109.03,0.02747
1085.88,0.03190
1062.74,0.04440
1039.59,0.04060
1016.45,0.04697
993.304,0.04882
970.159,0.06260
947.014,0.08710
923.869,0.08543
900.724,0.05474
877.579,0.08511
854.434,0.08563
831.289,0.07010
808.144,0.05983
784.999,0.05448
761.854,0.04864
738.709,0.04331
715.565,0.04001
692.42,0.03784
669.275,0.03430
646.13,0.03434
622.985,0.03154
599.84,0.03390

File: Rayon_Bamboo_Pillowcase_IS_S_220909_R4.dpt
7497.03,0.82118
7473.89,0.81341
7450.74,0.80898
7427.6,0.81489
7404.45,0.79310
7381.31,0.79315
7358.16,0.77945
7335.02,0.77613
7311.87,0.77921
7288.73,0.76661
7265.58,0.76297
7242.44,0.75930
7219.29,0.76837
7196.15,0.75220
7173,0.74623
7149.86,0.73515
7126.71,0.72631
7103.57,0.70349
7080.42,0.67408
7057.28,0.66054
7034.13,0.63261
7010.99,0.60593
6987.84,0.59762
6964.7,0.58509
6941.55,0.57841
6918.41,0.57785
6895.26,0.56719
6872.12,0.55891
6848.97,0.56104
6825.83,0.55692
6802.68,0.55081
6779.54,0.55004
6756.39,0.54970
6733.25,0.56046
6710.1,0.56187
6686.96,0.56040
6663.82,0.56923
6640.67,0.57535
6617.53,0.57774
6594.38,0.58487
6571.24,0.58734
6548.09,0.59280
6524.95,0.59933
6501.8,0.60074
6478.66,0.60470
6455.51,0.60249
6432.37,0.60550
6409.22,0.60864
6386.08,0.60560
6362.93,0.60418
6339.79,0.60614
6316.64,0.60851
6293.5,0.61500
6270.35,0.61559
6247.21,0.62058
6224.06,0.62804
6200.92,0.63428
6177.77,0.63779
6154.63,0.64246
6131.48,0.64890
6108.34,0.65091
6085.19,0.66271
6062.05,0.66816
6038.9,0.67042
6015.76,0.67570
5992.61,0.67898
5969.47,0.67901
5946.32,0.67571
5923.18,0.67155
5900.03,0.66363
5876.89,0.66269
5853.74,0.66202
5830.6,0.65532
5807.45,0.65129
5784.31,0.64824
5761.16,0.64745
5738.02,0.64753
5714.87,0.64583
5691.73,0.64280
5668.58,0.63963
5645.44,0.63866
5622.29,0.64123
5599.15,0.64273
5576,0.64370
5552.86,0.64653
5529.71,0.65037
5506.57,0.65177
5483.42,0.65194
5460.28,0.65578
5437.13,0.65802
5413.99,0.66422
5390.84,0.66884
5367.7,0.66930
5344.55,0.66418
5321.41,0.65157
5298.26,0.63022
5275.12,0.59159
5251.97,0.54123
5228.83,0.50323
5205.68,0.47948
5182.54,0.46943
5159.39,0.47143
5136.25,0.48052
5113.1,0.49367
5089.96,0.50687
5066.81,0.51960
5043.67,0.53270
5020.52,0.54311
4997.38,0.55078
4974.23,0.55213
4951.09,0.54238
4927.94,0.52632
4904.8,0.50344
4881.65,0.47934
4858.51,0.46278
4835.36,0.44963
4812.22,0.43777
4789.07,0.43268
4765.93,0.43181
4742.78,0.43798
4719.64,0.44457
4696.49,0.45460
4673.35,0.46413
4650.2,0.47462
4627.06,0.48270
4603.92,0.49242
4580.77,0.49867
4557.63,0.50419
4534.48,0.50904
4511.34,0.51411
4488.19,0.51490
4465.05,0.50735
4441.9,0.48415
4418.76,0.45497
4395.61,0.44438
4372.47,0.44446
4349.32,0.44122
4326.18,0.42728
4303.03,0.41656
4279.89,0.41134
4256.74,0.40773
4233.6,0.40782
4210.45,0.41148
4187.31,0.41245
4164.16,0.40996
4141.02,0.39706
4117.87,0.37949
4094.73,0.35802
4071.58,0.33353
4048.44,0.31342
4025.29,0.29907
4002.15,0.29319
3979,0.29556
3955.86,0.29886
3932.71,0.30822
3909.57,0.32020
3886.42,0.33285
3863.28,0.34534
3840.13,0.35615
3816.99,0.35609
3793.84,0.35061
3770.7,0.34474
3747.55,0.33627
3724.41,0.31409
3701.26,0.27802
3678.12,0.22098
3654.97,0.14455
3631.83,0.09158
3608.68,0.05920
3585.54,0.04210
3562.39,0.03286
3539.25,0.02713
3516.1,0.02527
3492.96,0.02417
3469.81,0.02511
3446.67,0.02582
3423.52,0.02706
3400.38,0.02730
3377.23,0.02703
3354.09,0.02763
3330.94,0.02843
3307.8,0.02882
3284.65,0.02894
3261.51,0.02981
3238.36,0.03022
3215.22,0.03079
3192.07,0.03259
3168.93,0.03442
3145.78,0.03732
3122.64,0.04218
3099.49,0.04907
3076.35,0.05626
3053.2,0.06527
3030.06,0.07499
3006.91,0.08035
2983.77,0.07174
2960.62,0.05679
2937.48,0.04447
2914.33,0.04045
2891.19,0.04047
2868.04,0.04792
2844.9,0.06257
2821.75,0.07893
2798.61,0.09138
2775.46,0.10234
2752.32,0.10988
2729.17,0.11284
2706.03,0.12097
2682.88,0.13125
2659.74,0.14250
2636.59,0.15477
2613.45,0.16550
2590.3,0.17396
2567.16,0.17927
2544.02,0.18241
2520.87,0.18583
2497.73,0.19151
2474.58,0.20006
2451.44,0.21157
2428.29,0.22380
2405.15,0.23429
2382,0.24097
2358.86,0.24927
2335.71,0.25482
2312.57,0.25663
2289.42,0.25475
2266.28,0.24571
2243.13,0.23651
2219.99,0.23016
2196.84,0.22405
2173.7,0.21411
2150.55,0.20666
2127.41,0.20478
2104.26,0.21229
2081.12,0.21999
2057.97,0.22001
2034.83,0.22442
2011.68,0.23919
1988.54,0.24692
1965.39,0.25930
1942.25,0.27453
1919.1,0.28585
1895.96,0.29374
1872.81,0.29187
1849.67,0.28302
1826.52,0.27005
1803.38,0.25336
1780.23,0.23398
1757.09,0.20498
1733.94,0.17341
1710.8,0.09405
1687.65,0.05808
1664.51,0.05477
1641.36,0.06050
1618.22,0.07431
1595.07,0.09443
1571.93,0.10930
1548.78,0.11261
1525.64,0.09112
1502.49,0.06643
1479.35,0.05268
1456.2,0.03740
1433.06,0.03260
1409.91,0.03223
1386.77,0.02995
1363.62,0.02904
1340.48,0.03096
1317.33,0.03096
1294.19,0.03616
1271.04,0.03452
1247.9,0.03525
1224.75,0.03388
1201.61,0.02720
1178.46,0.02277
1155.32,0.02619
1132.17,0.02040
1109.03,0.02747
1085.88,0.03290
1062.74,0.04371
1039.59,0.04108
1016.45,0.04755
993.304,0.04871
970.159,0.06351
947.014,0.08852
923.869,0.08677
900.724,0.05503
877.579,0.08772
854.434,0.08793
831.289,0.07407
808.144,0.06292
784.999,0.05673
761.854,0.05028
738.709,0.04459
715.565,0.03961
692.42,0.03700
669.275,0.03431
646.13,0.03311
622.985,0.03051
599.84,0.03326