Folder: fsri_materials_database/01_Data/Cotton_Felt/MCC/Deprecated

Note: README.md
# Materials and Products Database
### Repository of materials and products properties and fire test data to improve fire modeling and fire investigation.

This project was supported in part by Award No. 2019-DU-BX-0018, awarded by the National Institute of Justice, Office of Justice Programs, U.S. Department of Justice. The opinions, findings, and conclusions or recommendations expressed in this publication / program / exhibition are those of the author(s) and do not necessarily reflect those of the Department of Justice.

***
***

__Cite this database:__ "McKinnon, M., Weinschenk, C., Dow, N., DiDomizio, M., and Madrzykowski, D. Materials and Products Database (Version 1.0.0), Fire Safety Research Institute, UL Research Institutes. Columbia, MD 21045, 2023."

__Cite the Technical Reference Guide:__ "McKinnon, M., Weinschenk, C., and Madrzykowski, D. Materials and Products Database - Technical Reference Guide, Fire Safety Research Institute, UL Research Institutes. Columbia, MD 21045, 2023."

__Cite the User Guide:__ "McKinnon, M., and Weinschenk, C. Materials and Products Database - User Guide, Fire Safety Research Institute, UL Research Institutes. Columbia, MD 21045, 2023."

***
***

## Database Structure

## 01_Data/
Raw data generated from each apparatus are included here in plain-text format. The data is organized first by material, next by the short name of test apparatus used, and where applicable additional filtering by test settings.

### Test Apparatus and Data File Structure
- __Cone Calorimeter__ (Cone)
    + Data file structure includes the material, the short name for the apparatus, heat flux setting and scan/scalar, date of test, and replicate number. Scan is for the raw output data and scalar is for the initial conditions and high-level test parameters. 
        * Example: __MDF_Cone_HF25scalar_210323_R1__ stands for the first replicate of scalar data generated from a medium density fiber board test in cone calorimeter exposed to 25 kW/m<sup>2</sup> on March 23, 2021.
    + A _Cone_Notes.csv_ is generated for each material from the __plot_Cone_data.py__ script. For materials whose experiments deviated from typical behavior relevant pictures are included in the respective material directory.
- __Fourier Transform Infrared Spectrometer__ (FTIR)
    + The FTIR directory contains subdirectories for the Attenuated Total Reflectance method (ATR) and the Integrating Sphere (IS)
    + Data file structure for the ATR experiment files includes the material, the abbreviated name for the apparatus, date of test, and replicate number. 
        * Example: __MDF_ATR_210323_R5__ stands for the fifth replicate of data collected with the ATR accessory conducted on June 8, 2021.
    + Data file structure for the IS experiment files includes the material, the abbreviated name for the apparatus, the measurand, whether the test is a sample measurement or standard reference, date of test, and replicate number.
        * Example: __OSB_IS_REFLECT_MEAS_2

File: Cotton_Felt_MCC_60K_min_210709_3.txt
Sample ID:	C:\MCC\MCC Cal\Test\Cotton_Felt\Cotton_Felt_MCC_30K_min_21_07_09_R3.txt
Sample Weight (mg):	4.15
Heating Rate (C/s):	1
Combustor Temp (C):	900
N2 Flow Rate (cc/min):	80
O2 Flow Rate (cc/min):	20
Calibration File:	C:\MCC\MCC Cal\Coeff1 JN10440_30_210304.txt.txt
T Correction Coefficients:	0	1.024463	0
Time Shift (s):	14
*
Time (s)	Temperature (C)	N2 flow rate (cc/min)	O2 flow rate (cc/min)	Flow Rate (cc/min)	Oxygen (%)	HRR (W/g)	Heating rate (C/s)
0.000	105.454	79.996	19.996	99.951	20.071	0.417	-0.034
4.000	105.449	79.998	19.996	99.965	20.071	0.436	-0.013
8.000	105.402	79.997	19.996	99.958	20.071	0.397	-0.012
12.000	105.382	79.997	19.996	99.990	20.061	1.217	-0.021
16.000	105.461	79.996	19.999	100.100	20.053	1.773	0.035
20.000	105.725	79.998	19.997	100.180	20.039	2.871	0.078
24.000	106.153	79.997	19.996	100.213	20.029	3.570	0.134
28.000	106.812	79.998	19.996	100.253	20.020	4.263	0.190
32.000	107.581	79.997	19.995	100.279	20.012	4.888	0.206
36.000	108.627	79.997	19.997	100.301	20.004	5.506	0.259
40.001	109.852	79.994	19.996	100.318	20.004	5.467	0.318
44.000	111.231	79.995	19.999	100.347	19.995	6.163	0.362
48.000	112.848	79.994	19.998	100.365	19.993	6.289	0.436
52.000	114.642	79.993	19.997	100.371	19.992	6.378	0.490
56.000	116.598	79.995	19.997	100.395	19.987	6.789	0.478
60.000	118.776	79.995	19.996	100.406	19.980	7.310	0.551
64.000	121.094	79.997	19.996	100.407	19.982	7.187	0.589
68.000	123.651	79.995	19.997	100.411	19.978	7.455	0.640
72.000	126.304	79.994	19.996	100.419	19.978	7.447	0.704
76.000	129.068	79.994	19.997	100.437	19.973	7.819	0.714
80.000	132.014	79.995	19.996	100.438	19.976	7.612	0.739
84.000	135.138	79.996	19.997	100.442	19.978	7.463	0.781
88.000	138.357	79.997	19.996	100.444	19.980	7.286	0.812
92.000	141.680	79.996	19.995	100.431	19.980	7.318	0.846
96.001	145.144	79.997	19.996	100.441	19.974	7.727	0.862
100.000	148.692	79.996	19.997	100.428	19.978	7.450	0.914
104.000	152.349	79.996	19.996	100.415	19.978	7.477	0.904
108.001	156.001	79.997	19.995	100.413	19.980	7.301	0.917
112.000	159.733	79.998	19.996	100.400	19.982	7.128	0.927
116.001	163.517	79.998	19.995	100.396	19.980	7.276	0.924
120.000	167.439	79.996	19.996	100.396	19.983	7.045	0.972
124.000	171.394	79.997	19.996	100.395	19.985	6.938	1.012
128.000	175.322	79.995	19.996	100.402	19.986	6.840	0.995
132.000	179.376	79.994	19.997	100.397	19.986	6.834	1.034
136.000	183.407	79.994	19.997	100.370	19.985	6.923	1.025
140.000	187.524	79.995	19.997	100.365	19.987	6.788	1.041
144.000	191.643	79.994	19.997	100.368	19.990	6.549	0.980
148.000	195.767	79.995	19.996	100.361	19.991	6.493	1.027
152.000	199.874	79.996	19.997	100.363	19.991	6.440	1.036
156.000	204.073	79.995	19.996	100.366	19.991	6.502	1.058
160.000	208.279	79.996	19.996	100.342	19.995	6.182	1.044
164.000	212.390	79.996	19.995	100.332	19.996	6.070	1.027
168.000	216.509	79.995	19.996	100.332	19.996	6.118	0.996
172.001	220.662	79.997	19.995	100.328	19.994	6.215	1.001
176.000	224.745	79.997	19.996	100.325	19.989	6.615	1.038
180.000	228.890	79.997	19.996	100.326	19.983	7.095	1.039
184.000	232.965	79.997	19.996	100.319	19.977	7.535	1.004
188.000	237.062	79.997	19.996	100.325	19.971	8.006	1.001
192.000	241.058	79.999	19.996	100.335	19.962	8.680	1.009
196.000	245.051	79.998	19.996	100.338	19.959	8.878	0.981
200.000	249.062	79.997	19.996	100.354	19.947	9.761	1.004
204.000	253.055	79.995	19.997	100.358	19.934	10.759	1.017
208.000	257.021	79.996	19.997	100.364	19.920	11.831	0.997
212.000	260.922	79.996	19.997	100.368	19.905	12.939	0.929
216.000	264.884	79.995	19.996	100.370	19.888	14.244	0.974
220.000	268.790	79.994	19.997	100.375	19.870	15.636	0.972
224.000	272.755	79.996	19.997	100.383	19.854	16.792	0.996
228.000	276.653	79.995	19.997	100.409	19.830	18.602	0.953
232.000	280.573	79.995	19.997	100.409	19.804	20.607	0.966
236.000	284.484	79.995	19.997	100.439	19.771	23.099	0.984
240.000	288.435	79.996	19.996	100.450	19.732	26.031	0.963
244.000	292.395	79.997	19.996	100.488	19.691	29.183	1.001
248.000	296.343	79.997	19.996	100.519	19.633	33.587	0.988
252.001	300.289	79.999	19.997	100.563	19.565	38.692	0.991
256.000	304.267	79.997	19.997	100.590	19.494	44.139	0.964
260.000	308.255	79.996	19.997	100.620	19.409	50.571	0.972
264.000	312.249	79.998	19.997	100.666	19.313	57.891	1.024
268.000	316.236	79.999	19.995	100.698	19.216	65.255	0.994
272.000	320.213	79.998	19.996	100.739	19.109	73.359	0.953
276.000	324.258	79.997	19.996	100.783	18.998	81.819	1.021
280.000	328.269	79.997	19.996	100.823	18.874	91.266	1.016
284.000	332.296	79.996	19.997	100.865	18.742	101.333	0.999
288.000	336.358	79.996	19.996	100.888	18.609	111.393	1.015
292.000	340.411	79.995	19.995	100.926	18.471	121.796	1.007
296.000	344.529	79.997	19.997	100.946	18.341	131.566	1.034
300.000	348.427	79.998	19.996	100.935	18.226	140.132	0.866
304.000	352.647	79.998	19.997	100.889	18.149	145.610	1.019
308.000	356.714	79.995	19.996	100.809	18.132	146.558	1.038
312.000	360.766	79.996	19.997	100.652	18.227	139.244	1.056
316.000	364.825	79.994	19.997	100.424	18.438	123.381	1.009
320.000	368.845	79.997	19.998	100.216	18.770	98.470	1.035
324.000	372.862	79.995	19.998	100.132	19.129	71.492	0.993
328.000	376.957	79.998	19.997	100.172	19.428	48.883	1.019
332.000	380.973	79.998	19.996	100.258	19.638	33.055	0.998
336.000	384.999	79.995	19.996	100.289	19.762	23.733	0.996
340.000	389.003	79.994	19.996	100.259	19.838	18.004	0.995
344.000	393.019	79.996	19.996	100.244	19.876	15.143	1.013
348.000	397.078	79.998	19.996	100.216	19.901	13.208	1.019
352.000	401.061	79.999	19.995	100.214	19.916	12.080	0.971
356.000	405.061	79.997	19.997	100.214	19.927	11.261	0.985
360.000	409.092	79.998	19.996	100.212	19.934	10.741	1.020
364.000	413.041	79.997	19.996	100.201	19.934	10.783	0.987
368.000	417.039	79.995	19.995	100.215	19.937	10.540	1.033
372.000	421.050	79.997	19.996	100.204	19.935	10.645	1.011
376.000	425.055	79.993	19.997	100.207	19.934	10.786	1.006
380.000	429.072	79.997	19.997	100.201	19.934	10.719	1.007
384.000	433.101	79.995	19.997	100.195	19.938	10.463	1.015
388.000	437.191	79.996	19.996	100.204	19.934	10.761	1.043
392.000	441.217	79.995	19.998	100.197	19.940	10.283	1.016
396.000	445.302	79.995	19.997	100.198	19.938	10.444	1.011
400.000	449.386	79.995	19.997	100.204	19.940	10.323	1.034
404.000	453.451	79.995	19.998	100.116	19.941	10.248	1.011
408.000	457.580	79.995	19.997	100.261	19.944	9.997	1.044
412.000	461.641	79.995	19.996	100.180	19.942	10.154	0.980
416.000	465.684	79.995	19.996	100.094	19.950	9.564	1.022
420.000	469.730	79.995	19.995	100.205	19.951	9.488	1.033
424.000	473.813	79.998	19.996	100.174	19.957	9.020	1.023
428.000	477.806	79.996	19.995	100.168	19.960	8.812	0.982
432.000	481.900	79.997	19.995	100.166	19.965	8.384	1.030
436.000	485.947	79.999	19.996	100.162	19.968	8.174	1.011
440.000	489.913	79.997	19.996	100.159	19.971	7.954	0.969
444.000	494.000	79.995	19.996	100.157	19.971	7.962	1.002
448.001	498.061	79.996	19.996	100.152	19.977	7.505	1.031
452.000	502.041	79.997	19.997	100.137	19.980	7.264	0.992
456.000	506.084	79.996	19.997	100.161	19.983	7.054	1.019
460.000	510.122	79.996	19.996	100.160	19.987	6.719	1.001
464.000	514.246	79.995	19.997	100.150	19.987	6.777	1.027
468.000	518.360	79.995	19.997	100.140	19.986	6.817	1.031
472.000	522.543	79.995	19.996	100.141	19.990	6.535	1.009
476.000	526.697	79.997	19.996	100.213	19.997	6.011	1.043
480.000	530.780	79.997	19.997	100.157	19.996	6.059	1.005
484.000	534.977	79.993	19.996	100.148	20.000	5.771	1.068
488.000	539.138	79.997	19.996	100.132	20.003	5.575	1.038
492.000	543.279	79.997	19.998	100.131	20.001	5.697	1.053
496.000	547.353	79.994	19.998	100.133	20.006	5.312	1.046
500.000	551.477	79.995	19.996	100.134	20.009	5.080	1.044
504.000	555.609	79.996	19.996	100.134	20.012	4.883	1.038
508.000	559.704	79.997	19.996	100.120	20.014	4.708	1.020
512.000	563.760	79.997	19.996	100.136	20.017	4.530	1.007
516.000	567.835	79.998	19.996	100.131	20.015	4.625	1.006
520.000	571.856	79.997	19.996	100.129	20.016	4.605	0.997
524.000	575.944	79.996	19.996	100.123	20.017	4.489	1.018
528.001	579.934	79.995	19.996	100.133	20.015	4.617	1.015
532.000	583.962	79.997	19.997	100.134	20.017	4.501	0.969
536.000	587.959	79.997	19.996	100.133	20.019	4.384	0.979
540.000	591.955	79.994	19.995	100.136	20.021	4.224	1.011
544.000	595.966	79.996	19.996	100.133	20.025	3.872	1.015
548.000	599.892	79.995	19.996	100.138	20.027	3.737	0.977
552.000	603.954	79.996	19.998	100.133	20.023	4.061	0.976
556.000	607.931	79.995	19.997	100.125	20.023	4.040	0.989
560.000	611.963	79.995	19.998	100.106	20.027	3.731	0.986
564.000	615.954	79.996	19.997	100.195	20.023	4.009	1.007
568.000	619.915	79.998	19.997	100.132	20.027	3.781	1.005
572.001	623.883	79.997	19.995	100.118	20.020	4.253	1.021
576.000	627.828	79.997	19.998	100.130	20.028	3.657	0.985
580.000	631.825	79.996	19.998	100.128	20.031	3.450	1.006
584.000	635.867	79.996	19.997	100.125	20.030	3.494	1.018
588.000	639.907	79.999	19.999	100.130	20.028	3.694	1.027
592.000	643.922	79.997	19.996	100.125	20.029	3.558	1.037
596.000	647.941	79.997	19.995	100.132	20.032	3.353	1.037
600.000	652.066	79.998	19.995	100.131	20.023	4.019	1.037
604.000	656.200	79.995	19.996	100.136	20.027	3.711	1.021
608.000	660.368	79.996	19.996	100.133	20.028	3.655	1.044
612.000	664.630	79.995	19.996	100.132	20.031	3.447	1.084
616.000	668.732	79.997	19.996	100.128	20.025	3.891	1.103
620.000	672.843	79.997	19.997	100.124	20.028	3.688	1.000
624.000	677.067	79.996	19.997	100.095	20.030	3.495	1.066
628.000	681.195	79.997	19.996	100.121	20.030	3.544	1.033
632.000	685.312	79.997	19.995	100.120	20.035	3.150	1.007
636.000	689.451	79.996	19.995	100.108	20.029	3.581	1.029
640.000	693.603	79.996	19.995	100.104	20.035	3.139	1.060
644.000	697.766	79.997	19.997	100.109	20.033	3.263	1.032
648.000	701.816	79.997	19.996	100.101	20.039	2.843	1.036
652.000	705.890	79.998	19.997	100.105	20.037	2.963	1.017
656.000	709.925	79.997	19.995	100.102	20.035	3.124	1.007
660.000	713.940	79.995	19.996	100.098	20.039	2.851	1.025
664.000	717.921	79.995	19.996	100.097	20.035	3.144	0.981
668.000	721.882	79.998	19.997	100.087	20.040	2.745	0.969
672.000	725.866	79.995	19.996	100.101	20.035	3.168	1.028
676.000	729.878	79.999	19.997	100.122	20.031	3.416	1.034
680.000	733.946	79.998	19.996	100.114	20.033	3.327	1.018
684.000	737.943	79.996	19.996	100.099	20.037	3.025	0.984
686.500	740.492	79.996	19.996	100.093	20.033	3.282	1.002