Folder: fsri_materials_database/01_Data/Straw/FTIR/IS

Note: README.md
# Materials and Products Database
### Repository of materials and products properties and fire test data to improve fire modeling and fire investigation.

This project was supported in part by Award No. 2019-DU-BX-0018, awarded by the National Institute of Justice, Office of Justice Programs, U.S. Department of Justice. The opinions, findings, and conclusions or recommendations expressed in this publication / program / exhibition are those of the author(s) and do not necessarily reflect those of the Department of Justice.

***
***

__Cite this database:__ "McKinnon, M., Weinschenk, C., Dow, N., DiDomizio, M., and Madrzykowski, D. Materials and Products Database (Version 1.0.0), Fire Safety Research Institute, UL Research Institutes. Columbia, MD 21045, 2023."

__Cite the Technical Reference Guide:__ "McKinnon, M., Weinschenk, C., and Madrzykowski, D. Materials and Products Database - Technical Reference Guide, Fire Safety Research Institute, UL Research Institutes. Columbia, MD 21045, 2023."

__Cite the User Guide:__ "McKinnon, M., and Weinschenk, C. Materials and Products Database - User Guide, Fire Safety Research Institute, UL Research Institutes. Columbia, MD 21045, 2023."

***
***

## Database Structure

## 01_Data/
Raw data generated from each apparatus are included here in plain-text format. The data is organized first by material, next by the short name of test apparatus used, and where applicable additional filtering by test settings.

### Test Apparatus and Data File Structure
- __Cone Calorimeter__ (Cone)
    + Data file structure includes the material, the short name for the apparatus, heat flux setting and scan/scalar, date of test, and replicate number. Scan is for the raw output data and scalar is for the initial conditions and high-level test parameters. 
        * Example: __MDF_Cone_HF25scalar_210323_R1__ stands for the first replicate of scalar data generated from a medium density fiber board test in cone calorimeter exposed to 25 kW/m<sup>2</sup> on March 23, 2021.
    + A _Cone_Notes.csv_ is generated for each material from the __plot_Cone_data.py__ script. For materials whose experiments deviated from typical behavior relevant pictures are included in the respective material directory.
- __Fourier Transform Infrared Spectrometer__ (FTIR)
    + The FTIR directory contains subdirectories for the Attenuated Total Reflectance method (ATR) and the Integrating Sphere (IS)
    + Data file structure for the ATR experiment files includes the material, the abbreviated name for the apparatus, date of test, and replicate number. 
        * Example: __MDF_ATR_210323_R5__ stands for the fifth replicate of data collected with the ATR accessory conducted on June 8, 2021.
    + Data file structure for the IS experiment files includes the material, the abbreviated name for the apparatus, the measurand, whether the test is a sample measurement or standard reference, date of test, and replicate number.
        * Example: __OSB_IS_REFLECT_MEAS_2

File: Straw_IS_S_221109_R1.dpt
7497.03,0.84261
7473.89,0.85500
7450.74,0.83107
7427.6,0.83463
7404.45,0.83893
7381.31,0.83175
7358.16,0.81525
7335.02,0.82310
7311.87,0.81780
7288.73,0.81394
7265.58,0.80594
7242.44,0.81732
7219.29,0.81138
7196.15,0.80175
7173,0.81020
7149.86,0.79702
7126.71,0.79410
7103.57,0.77997
7080.42,0.75906
7057.28,0.74216
7034.13,0.72866
7010.99,0.72009
6987.84,0.70716
6964.7,0.69296
6941.55,0.69638
6918.41,0.68522
6895.26,0.68215
6872.12,0.68664
6848.97,0.68562
6825.83,0.67856
6802.68,0.68477
6779.54,0.68108
6756.39,0.67968
6733.25,0.68036
6710.1,0.68815
6686.96,0.68277
6663.82,0.69023
6640.67,0.69581
6617.53,0.69178
6594.38,0.69967
6571.24,0.70936
6548.09,0.71360
6524.95,0.70970
6501.8,0.71293
6478.66,0.71257
6455.51,0.72127
6432.37,0.71480
6409.22,0.71571
6386.08,0.72515
6362.93,0.72375
6339.79,0.72699
6316.64,0.72423
6293.5,0.72995
6270.35,0.73493
6247.21,0.73833
6224.06,0.74264
6200.92,0.74864
6177.77,0.75588
6154.63,0.75718
6131.48,0.75813
6108.34,0.76150
6085.19,0.76457
6062.05,0.76261
6038.9,0.76210
6015.76,0.76118
5992.61,0.75674
5969.47,0.74794
5946.32,0.75038
5923.18,0.74981
5900.03,0.74846
5876.89,0.74203
5853.74,0.73699
5830.6,0.73893
5807.45,0.73477
5784.31,0.73523
5761.16,0.73872
5738.02,0.74192
5714.87,0.74098
5691.73,0.74215
5668.58,0.74069
5645.44,0.74100
5622.29,0.73668
5599.15,0.73831
5576,0.74099
5552.86,0.74177
5529.71,0.74465
5506.57,0.74468
5483.42,0.74577
5460.28,0.74791
5437.13,0.75215
5413.99,0.75594
5390.84,0.75915
5367.7,0.75772
5344.55,0.75870
5321.41,0.75100
5298.26,0.73111
5275.12,0.70007
5251.97,0.65565
5228.83,0.62494
5205.68,0.61127
5182.54,0.61317
5159.39,0.62265
5136.25,0.63655
5113.1,0.65016
5089.96,0.66222
5066.81,0.67158
5043.67,0.68197
5020.52,0.68632
4997.38,0.68845
4974.23,0.68288
4951.09,0.66808
4927.94,0.64687
4904.8,0.62307
4881.65,0.59783
4858.51,0.57851
4835.36,0.55974
4812.22,0.54842
4789.07,0.54368
4765.93,0.54008
4742.78,0.53917
4719.64,0.54423
4696.49,0.54693
4673.35,0.55541
4650.2,0.56455
4627.06,0.57387
4603.92,0.58347
4580.77,0.59229
4557.63,0.59776
4534.48,0.60329
4511.34,0.60424
4488.19,0.59598
4465.05,0.57181
4441.9,0.53984
4418.76,0.51401
4395.61,0.50402
4372.47,0.51142
4349.32,0.51227
4326.18,0.50165
4303.03,0.49178
4279.89,0.48700
4256.74,0.49070
4233.6,0.49504
4210.45,0.49694
4187.31,0.49934
4164.16,0.50355
4141.02,0.49564
4117.87,0.48017
4094.73,0.45800
4071.58,0.43211
4048.44,0.40678
4025.29,0.38927
4002.15,0.38767
3979,0.39634
3955.86,0.40804
3932.71,0.42066
3909.57,0.43443
3886.42,0.44703
3863.28,0.46150
3840.13,0.47535
3816.99,0.48115
3793.84,0.47959
3770.7,0.47600
3747.55,0.46845
3724.41,0.44891
3701.26,0.41097
3678.12,0.33148
3654.97,0.22812
3631.83,0.16155
3608.68,0.12024
3585.54,0.09326
3562.39,0.07660
3539.25,0.06498
3516.1,0.05827
3492.96,0.05259
3469.81,0.04825
3446.67,0.04582
3423.52,0.04520
3400.38,0.04532
3377.23,0.04691
3354.09,0.04780
3330.94,0.05055
3307.8,0.05401
3284.65,0.05676
3261.51,0.06273
3238.36,0.06931
3215.22,0.07640
3192.07,0.08305
3168.93,0.09114
3145.78,0.09937
3122.64,0.10771
3099.49,0.11522
3076.35,0.12307
3053.2,0.13236
3030.06,0.13737
3006.91,0.13284
2983.77,0.12107
2960.62,0.10118
2937.48,0.08775
2914.33,0.08952
2891.19,0.08901
2868.04,0.09497
2844.9,0.11156
2821.75,0.13670
2798.61,0.15423
2775.46,0.16255
2752.32,0.16799
2729.17,0.17143
2706.03,0.18095
2682.88,0.19064
2659.74,0.20088
2636.59,0.21025
2613.45,0.22088
2590.3,0.23035
2567.16,0.23625
2544.02,0.24000
2520.87,0.24672
2497.73,0.25691
2474.58,0.26845
2451.44,0.28032
2428.29,0.29440
2405.15,0.31035
2382,0.32347
2358.86,0.33438
2335.71,0.34468
2312.57,0.34942
2289.42,0.34909
2266.28,0.34570
2243.13,0.34136
2219.99,0.34172
2196.84,0.33834
2173.7,0.32267
2150.55,0.30974
2127.41,0.30890
2104.26,0.31770
2081.12,0.32631
2057.97,0.32757
2034.83,0.33500
2011.68,0.35278
1988.54,0.36683
1965.39,0.37144
1942.25,0.37904
1919.1,0.39188
1895.96,0.39444
1872.81,0.39187
1849.67,0.38235
1826.52,0.36566
1803.38,0.33285
1780.23,0.26990
1757.09,0.15357
1733.94,0.10431
1710.8,0.12075
1687.65,0.12734
1664.51,0.09295
1641.36,0.08929
1618.22,0.07998
1595.07,0.07599
1571.93,0.10482
1548.78,0.12651
1525.64,0.10424
1502.49,0.07451
1479.35,0.07952
1456.2,0.05860
1433.06,0.05446
1409.91,0.06074
1386.77,0.05097
1363.62,0.04906
1340.48,0.05180
1317.33,0.05084
1294.19,0.05453
1271.04,0.04512
1247.9,0.04647
1224.75,0.05429
1201.61,0.05457
1178.46,0.04536
1155.32,0.05278
1132.17,0.05057
1109.03,0.06438
1085.88,0.07103
1062.74,0.07335
1039.59,0.08657
1016.45,0.08377
993.304,0.08418
970.159,0.10697
947.014,0.14571
923.869,0.15900
900.724,0.13095
877.579,0.16956
854.434,0.16662
831.289,0.15984
808.144,0.16570
784.999,0.16103
761.854,0.14528
738.709,0.12801
715.565,0.11604
692.42,0.10966
669.275,0.09763
646.13,0.10021
622.985,0.10032
599.84,0.11073

File: Straw_IS_S_221109_R2.dpt
7497.03,0.83995
7473.89,0.82883
7450.74,0.82673
7427.6,0.82561
7404.45,0.83427
7381.31,0.82602
7358.16,0.81649
7335.02,0.82634
7311.87,0.81684
7288.73,0.81052
7265.58,0.80363
7242.44,0.81167
7219.29,0.80856
7196.15,0.80451
7173,0.80579
7149.86,0.80064
7126.71,0.79093
7103.57,0.77989
7080.42,0.76776
7057.28,0.74246
7034.13,0.73275
7010.99,0.71555
6987.84,0.70624
6964.7,0.68970
6941.55,0.69169
6918.41,0.68197
6895.26,0.68357
6872.12,0.68892
6848.97,0.68486
6825.83,0.68553
6802.68,0.67848
6779.54,0.68158
6756.39,0.68154
6733.25,0.68760
6710.1,0.68753
6686.96,0.68973
6663.82,0.69375
6640.67,0.69073
6617.53,0.69802
6594.38,0.70244
6571.24,0.71010
6548.09,0.71212
6524.95,0.70928
6501.8,0.71378
6478.66,0.71389
6455.51,0.71795
6432.37,0.71486
6409.22,0.72046
6386.08,0.72175
6362.93,0.72358
6339.79,0.72496
6316.64,0.73057
6293.5,0.72747
6270.35,0.73135
6247.21,0.73927
6224.06,0.74097
6200.92,0.74758
6177.77,0.75377
6154.63,0.75500
6131.48,0.76163
6108.34,0.76357
6085.19,0.76330
6062.05,0.76450
6038.9,0.76190
6015.76,0.75732
5992.61,0.75528
5969.47,0.75109
5946.32,0.75299
5923.18,0.75107
5900.03,0.74323
5876.89,0.74206
5853.74,0.74385
5830.6,0.73795
5807.45,0.73331
5784.31,0.73527
5761.16,0.73752
5738.02,0.73873
5714.87,0.73945
5691.73,0.74145
5668.58,0.73774
5645.44,0.73817
5622.29,0.73916
5599.15,0.73882
5576,0.73824
5552.86,0.74180
5529.71,0.74033
5506.57,0.74356
5483.42,0.74445
5460.28,0.74885
5437.13,0.75231
5413.99,0.75452
5390.84,0.75884
5367.7,0.75768
5344.55,0.75637
5321.41,0.74956
5298.26,0.73356
5275.12,0.69961
5251.97,0.65772
5228.83,0.62682
5205.68,0.61333
5182.54,0.61398
5159.39,0.62441
5136.25,0.63882
5113.1,0.65192
5089.96,0.66387
5066.81,0.67322
5043.67,0.68256
5020.52,0.68716
4997.38,0.68839
4974.23,0.68185
4951.09,0.66801
4927.94,0.64670
4904.8,0.62267
4881.65,0.59796
4858.51,0.57771
4835.36,0.56002
4812.22,0.54728
4789.07,0.54280
4765.93,0.53862
4742.78,0.54132
4719.64,0.54322
4696.49,0.54847
4673.35,0.55406
4650.2,0.56504
4627.06,0.57445
4603.92,0.58299
4580.77,0.59134
4557.63,0.59822
4534.48,0.60196
4511.34,0.60526
4488.19,0.59494
4465.05,0.57145
4441.9,0.53905
4418.76,0.51399
4395.61,0.50401
4372.47,0.51111
4349.32,0.51150
4326.18,0.50020
4303.03,0.49143
4279.89,0.48715
4256.74,0.48999
4233.6,0.49535
4210.45,0.49717
4187.31,0.49901
4164.16,0.50349
4141.02,0.49607
4117.87,0.47938
4094.73,0.45717
4071.58,0.43214
4048.44,0.40643
4025.29,0.38919
4002.15,0.38756
3979,0.39627
3955.86,0.40847
3932.71,0.42132
3909.57,0.43399
3886.42,0.44808
3863.28,0.46070
3840.13,0.47480
3816.99,0.48093
3793.84,0.47984
3770.7,0.47608
3747.55,0.46793
3724.41,0.44926
3701.26,0.41231
3678.12,0.33314
3654.97,0.23004
3631.83,0.16420
3608.68,0.12191
3585.54,0.09447
3562.39,0.07700
3539.25,0.06572
3516.1,0.05801
3492.96,0.05251
3469.81,0.04839
3446.67,0.04608
3423.52,0.04524
3400.38,0.04531
3377.23,0.04718
3354.09,0.04732
3330.94,0.04972
3307.8,0.05287
3284.65,0.05753
3261.51,0.06231
3238.36,0.06963
3215.22,0.07595
3192.07,0.08326
3168.93,0.09096
3145.78,0.09969
3122.64,0.10763
3099.49,0.11617
3076.35,0.12393
3053.2,0.13258
3030.06,0.13726
3006.91,0.13308
2983.77,0.12071
2960.62,0.10101
2937.48,0.08770
2914.33,0.08985
2891.19,0.08875
2868.04,0.09480
2844.9,0.11142
2821.75,0.13688
2798.61,0.15372
2775.46,0.16285
2752.32,0.16830
2729.17,0.17157
2706.03,0.18049
2682.88,0.19066
2659.74,0.20057
2636.59,0.21014
2613.45,0.22106
2590.3,0.23045
2567.16,0.23596
2544.02,0.24054
2520.87,0.24682
2497.73,0.25668
2474.58,0.26826
2451.44,0.27980
2428.29,0.29420
2405.15,0.31024
2382,0.32349
2358.86,0.33482
2335.71,0.34443
2312.57,0.35013
2289.42,0.34894
2266.28,0.34553
2243.13,0.34169
2219.99,0.34207
2196.84,0.33877
2173.7,0.32315
2150.55,0.30994
2127.41,0.30920
2104.26,0.31858
2081.12,0.32707
2057.97,0.32805
2034.83,0.33571
2011.68,0.35349
1988.54,0.36748
1965.39,0.37140
1942.25,0.37931
1919.1,0.39243
1895.96,0.39475
1872.81,0.39220
1849.67,0.38300
1826.52,0.36578
1803.38,0.33272
1780.23,0.26958
1757.09,0.15302
1733.94,0.10386
1710.8,0.12119
1687.65,0.12767
1664.51,0.09335
1641.36,0.08951
1618.22,0.07994
1595.07,0.07588
1571.93,0.10519
1548.78,0.12642
1525.64,0.10461
1502.49,0.07405
1479.35,0.07967
1456.2,0.05875
1433.06,0.05406
1409.91,0.06074
1386.77,0.05107
1363.62,0.04941
1340.48,0.05155
1317.33,0.05064
1294.19,0.05469
1271.04,0.04532
1247.9,0.04653
1224.75,0.05420
1201.61,0.05424
1178.46,0.04547
1155.32,0.05298
1132.17,0.05053
1109.03,0.06465
1085.88,0.07032
1062.74,0.07305
1039.59,0.08608
1016.45,0.08361
993.304,0.08488
970.159,0.10633
947.014,0.14606
923.869,0.15916
900.724,0.13170
877.579,0.16978
854.434,0.16671
831.289,0.16097
808.144,0.16660
784.999,0.16182
761.854,0.14671
738.709,0.12920
715.565,0.11677
692.42,0.11191
669.275,0.09787
646.13,0.10241
622.985,0.10077
599.84,0.11255

File: Straw_IS_S_221109_R3.dpt
7497.03,0.83159
7473.89,0.83016
7450.74,0.82911
7427.6,0.83731
7404.45,0.82573
7381.31,0.82766
7358.16,0.81896
7335.02,0.81235
7311.87,0.81033
7288.73,0.80868
7265.58,0.80481
7242.44,0.81386
7219.29,0.80528
7196.15,0.81050
7173,0.80297
7149.86,0.79375
7126.71,0.78530
7103.57,0.77795
7080.42,0.76304
7057.28,0.74493
7034.13,0.72711
7010.99,0.71189
6987.84,0.70469
6964.7,0.69025
6941.55,0.69339
6918.41,0.69495
6895.26,0.68282
6872.12,0.68554
6848.97,0.68794
6825.83,0.67717
6802.68,0.68492
6779.54,0.68511
6756.39,0.68273
6733.25,0.68219
6710.1,0.68845
6686.96,0.68595
6663.82,0.69288
6640.67,0.69679
6617.53,0.69343
6594.38,0.70706
6571.24,0.70833
6548.09,0.70792
6524.95,0.71136
6501.8,0.71521
6478.66,0.71706
6455.51,0.72116
6432.37,0.71965
6409.22,0.72331
6386.08,0.72535
6362.93,0.72619
6339.79,0.72902
6316.64,0.72442
6293.5,0.72636
6270.35,0.73373
6247.21,0.74191
6224.06,0.74485
6200.92,0.74857
6177.77,0.75942
6154.63,0.75903
6131.48,0.76250
6108.34,0.76432
6085.19,0.76721
6062.05,0.76267
6038.9,0.76130
6015.76,0.75895
5992.61,0.75422
5969.47,0.75233
5946.32,0.75121
5923.18,0.74859
5900.03,0.74736
5876.89,0.74414
5853.74,0.74274
5830.6,0.74235
5807.45,0.73294
5784.31,0.73379
5761.16,0.73917
5738.02,0.74461
5714.87,0.74280
5691.73,0.73884
5668.58,0.74147
5645.44,0.74059
5622.29,0.74135
5599.15,0.74029
5576,0.74095
5552.86,0.74485
5529.71,0.74532
5506.57,0.74687
5483.42,0.74841
5460.28,0.75093
5437.13,0.75429
5413.99,0.75834
5390.84,0.75764
5367.7,0.76196
5344.55,0.75782
5321.41,0.75261
5298.26,0.73547
5275.12,0.70028
5251.97,0.65995
5228.83,0.63183
5205.68,0.61840
5182.54,0.61856
5159.39,0.62896
5136.25,0.64284
5113.1,0.65555
5089.96,0.66587
5066.81,0.67774
5043.67,0.68520
5020.52,0.69148
4997.38,0.69123
4974.23,0.68460
4951.09,0.67124
4927.94,0.64972
4904.8,0.62479
4881.65,0.60011
4858.51,0.57832
4835.36,0.56103
4812.22,0.54983
4789.07,0.54459
4765.93,0.54246
4742.78,0.54152
4719.64,0.54478
4696.49,0.54866
4673.35,0.55621
4650.2,0.56585
4627.06,0.57552
4603.92,0.58472
4580.77,0.59209
4557.63,0.59906
4534.48,0.60459
4511.34,0.60556
4488.19,0.59718
4465.05,0.57256
4441.9,0.54049
4418.76,0.51528
4395.61,0.50450
4372.47,0.51244
4349.32,0.51334
4326.18,0.50184
4303.03,0.49252
4279.89,0.48774
4256.74,0.49175
4233.6,0.49578
4210.45,0.49852
4187.31,0.49974
4164.16,0.50465
4141.02,0.49769
4117.87,0.48161
4094.73,0.45825
4071.58,0.43295
4048.44,0.40784
4025.29,0.38999
4002.15,0.38943
3979,0.39754
3955.86,0.40971
3932.71,0.42221
3909.57,0.43529
3886.42,0.44964
3863.28,0.46292
3840.13,0.47657
3816.99,0.48215
3793.84,0.48224
3770.7,0.47831
3747.55,0.47087
3724.41,0.45253
3701.26,0.41606
3678.12,0.33618
3654.97,0.23359
3631.83,0.16647
3608.68,0.12357
3585.54,0.09433
3562.39,0.07703
3539.25,0.06627
3516.1,0.05777
3492.96,0.05213
3469.81,0.04880
3446.67,0.04583
3423.52,0.04470
3400.38,0.04547
3377.23,0.04635
3354.09,0.04763
3330.94,0.04939
3307.8,0.05295
3284.65,0.05670
3261.51,0.06198
3238.36,0.06980
3215.22,0.07651
3192.07,0.08397
3168.93,0.09178
3145.78,0.10097
3122.64,0.10864
3099.49,0.11687
3076.35,0.12409
3053.2,0.13349
3030.06,0.13892
3006.91,0.13417
2983.77,0.12176
2960.62,0.10131
2937.48,0.08794
2914.33,0.08978
2891.19,0.08885
2868.04,0.09484
2844.9,0.11161
2821.75,0.13695
2798.61,0.15419
2775.46,0.16355
2752.32,0.16860
2729.17,0.17219
2706.03,0.18153
2682.88,0.19140
2659.74,0.20142
2636.59,0.21053
2613.45,0.22152
2590.3,0.23101
2567.16,0.23671
2544.02,0.24112
2520.87,0.24776
2497.73,0.25776
2474.58,0.26951
2451.44,0.28066
2428.29,0.29533
2405.15,0.31108
2382,0.32490
2358.86,0.33573
2335.71,0.34564
2312.57,0.35158
2289.42,0.35047
2266.28,0.34760
2243.13,0.34310
2219.99,0.34410
2196.84,0.34026
2173.7,0.32513
2150.55,0.31155
2127.41,0.31113
2104.26,0.32026
2081.12,0.32870
2057.97,0.32932
2034.83,0.33761
2011.68,0.35556
1988.54,0.36901
1965.39,0.37332
1942.25,0.38123
1919.1,0.39403
1895.96,0.39667
1872.81,0.39404
1849.67,0.38467
1826.52,0.36738
1803.38,0.33414
1780.23,0.27025
1757.09,0.15316
1733.94,0.10400
1710.8,0.12142
1687.65,0.12831
1664.51,0.09402
1641.36,0.08991
1618.22,0.08004
1595.07,0.07644
1571.93,0.10538
1548.78,0.12693
1525.64,0.10427
1502.49,0.07406
1479.35,0.07961
1456.2,0.05850
1433.06,0.05433
1409.91,0.06084
1386.77,0.05106
1363.62,0.04902
1340.48,0.05142
1317.33,0.05091
1294.19,0.05460
1271.04,0.04515
1247.9,0.04612
1224.75,0.05466
1201.61,0.05370
1178.46,0.04562
1155.32,0.05324
1132.17,0.05079
1109.03,0.06439
1085.88,0.07026
1062.74,0.07228
1039.59,0.08669
1016.45,0.08411
993.304,0.08417
970.159,0.10664
947.014,0.14622
923.869,0.15959
900.724,0.13174
877.579,0.17093
854.434,0.16844
831.289,0.16135
808.144,0.16803
784.999,0.16341
761.854,0.14650
738.709,0.12940
715.565,0.11830
692.42,0.11232
669.275,0.09860
646.13,0.10263
622.985,0.09941
599.84,0.11146

File: Straw_IS_S_221109_R4.dpt
7497.03,0.83970
7473.89,0.82779
7450.74,0.84217
7427.6,0.82514
7404.45,0.82355
7381.31,0.83128
7358.16,0.81521
7335.02,0.81248
7311.87,0.81506
7288.73,0.80848
7265.58,0.81403
7242.44,0.81943
7219.29,0.80765
7196.15,0.80322
7173,0.80507
7149.86,0.79624
7126.71,0.78769
7103.57,0.77854
7080.42,0.76178
7057.28,0.74617
7034.13,0.72342
7010.99,0.71356
6987.84,0.70567
6964.7,0.69819
6941.55,0.69279
6918.41,0.69215
6895.26,0.69006
6872.12,0.68993
6848.97,0.68687
6825.83,0.68700
6802.68,0.68745
6779.54,0.67711
6756.39,0.68411
6733.25,0.68333
6710.1,0.68073
6686.96,0.68774
6663.82,0.68702
6640.67,0.69252
6617.53,0.70012
6594.38,0.70394
6571.24,0.71202
6548.09,0.70920
6524.95,0.70699
6501.8,0.71604
6478.66,0.71984
6455.51,0.71820
6432.37,0.72059
6409.22,0.72428
6386.08,0.72436
6362.93,0.72261
6339.79,0.72670
6316.64,0.72386
6293.5,0.73162
6270.35,0.73081
6247.21,0.73952
6224.06,0.74697
6200.92,0.75111
6177.77,0.75695
6154.63,0.75924
6131.48,0.76343
6108.34,0.76590
6085.19,0.76693
6062.05,0.76689
6038.9,0.76266
6015.76,0.75987
5992.61,0.75582
5969.47,0.75548
5946.32,0.74891
5923.18,0.75001
5900.03,0.74500
5876.89,0.74197
5853.74,0.74073
5830.6,0.74105
5807.45,0.73290
5784.31,0.73750
5761.16,0.74424
5738.02,0.74408
5714.87,0.74236
5691.73,0.74496
5668.58,0.74093
5645.44,0.74051
5622.29,0.74050
5599.15,0.74179
5576,0.74017
5552.86,0.74628
5529.71,0.74755
5506.57,0.74780
5483.42,0.74560
5460.28,0.75029
5437.13,0.75230
5413.99,0.75823
5390.84,0.75903
5367.7,0.76081
5344.55,0.76004
5321.41,0.75254
5298.26,0.73697
5275.12,0.70501
5251.97,0.66409
5228.83,0.63417
5205.68,0.62048
5182.54,0.62264
5159.39,0.63230
5136.25,0.64415
5113.1,0.65856
5089.96,0.67031
5066.81,0.67980
5043.67,0.68733
5020.52,0.69189
4997.38,0.69322
4974.23,0.68733
4951.09,0.67173
4927.94,0.65045
4904.8,0.62506
4881.65,0.60141
4858.51,0.57856
4835.36,0.56141
4812.22,0.54899
4789.07,0.54362
4765.93,0.54223
4742.78,0.54151
4719.64,0.54446
4696.49,0.54880
4673.35,0.55694
4650.2,0.56755
4627.06,0.57651
4603.92,0.58570
4580.77,0.59263
4557.63,0.59965
4534.48,0.60460
4511.34,0.60667
4488.19,0.59648
4465.05,0.57212
4441.9,0.54022
4418.76,0.51552
4395.61,0.50503
4372.47,0.51193
4349.32,0.51245
4326.18,0.50165
4303.03,0.49338
4279.89,0.48820
4256.74,0.49188
4233.6,0.49594
4210.45,0.49805
4187.31,0.50026
4164.16,0.50497
4141.02,0.49852
4117.87,0.48129
4094.73,0.46016
4071.58,0.43349
4048.44,0.40803
4025.29,0.39060
4002.15,0.38917
3979,0.39795
3955.86,0.41040
3932.71,0.42329
3909.57,0.43581
3886.42,0.44991
3863.28,0.46342
3840.13,0.47800
3816.99,0.48345
3793.84,0.48312
3770.7,0.47993
3747.55,0.47299
3724.41,0.45418
3701.26,0.41722
3678.12,0.33910
3654.97,0.23561
3631.83,0.16820
3608.68,0.12457
3585.54,0.09566
3562.39,0.07784
3539.25,0.06644
3516.1,0.05859
3492.96,0.05246
3469.81,0.04875
3446.67,0.04611
3423.52,0.04569
3400.38,0.04552
3377.23,0.04708
3354.09,0.04706
3330.94,0.04961
3307.8,0.05276
3284.65,0.05699
3261.51,0.06243
3238.36,0.06937
3215.22,0.07625
3192.07,0.08434
3168.93,0.09244
3145.78,0.10069
3122.64,0.10912
3099.49,0.11725
3076.35,0.12505
3053.2,0.13421
3030.06,0.13891
3006.91,0.13484
2983.77,0.12162
2960.62,0.10100
2937.48,0.08805
2914.33,0.09017
2891.19,0.08853
2868.04,0.09493
2844.9,0.11142
2821.75,0.13711
2798.61,0.15459
2775.46,0.16335
2752.32,0.16894
2729.17,0.17266
2706.03,0.18144
2682.88,0.19158
2659.74,0.20156
2636.59,0.21073
2613.45,0.22178
2590.3,0.23101
2567.16,0.23670
2544.02,0.24113
2520.87,0.24778
2497.73,0.25774
2474.58,0.26938
2451.44,0.28086
2428.29,0.29527
2405.15,0.31191
2382,0.32479
2358.86,0.33585
2335.71,0.34601
2312.57,0.35191
2289.42,0.35082
2266.28,0.34808
2243.13,0.34323
2219.99,0.34457
2196.84,0.34111
2173.7,0.32562
2150.55,0.31246
2127.41,0.31177
2104.26,0.32113
2081.12,0.32937
2057.97,0.33041
2034.83,0.33795
2011.68,0.35601
1988.54,0.36984
1965.39,0.37461
1942.25,0.38200
1919.1,0.39499
1895.96,0.39719
1872.81,0.39469
1849.67,0.38476
1826.52,0.36800
1803.38,0.33461
1780.23,0.27047
1757.09,0.15309
1733.94,0.10438
1710.8,0.12112
1687.65,0.12823
1664.51,0.09435
1641.36,0.09012
1618.22,0.08059
1595.07,0.07577
1571.93,0.10555
1548.78,0.12716
1525.64,0.10430
1502.49,0.07375
1479.35,0.07999
1456.2,0.05870
1433.06,0.05413
1409.91,0.06083
1386.77,0.05094
1363.62,0.04904
1340.48,0.05131
1317.33,0.05055
1294.19,0.05503
1271.04,0.04500
1247.9,0.04636
1224.75,0.05453
1201.61,0.05411
1178.46,0.04554
1155.32,0.05341
1132.17,0.05095
1109.03,0.06456
1085.88,0.07062
1062.74,0.07337
1039.59,0.08647
1016.45,0.08377
993.304,0.08381
970.159,0.10750
947.014,0.14723
923.869,0.16009
900.724,0.13156
877.579,0.17181
854.434,0.16759
831.289,0.16196
808.144,0.16859
784.999,0.16360
761.854,0.14775
738.709,0.12951
715.565,0.11883
692.42,0.11083
669.275,0.09967
646.13,0.10235
622.985,0.09811
599.84,0.11052