Folder: fsri_materials_database/01_Data/Straw/FTIR/IS (part 3)

File: Straw_IS_T_221109_R5.dpt
7497.03,0.02263
7473.89,0.01935
7450.74,0.02643
7427.6,0.02161
7404.45,0.02311
7381.31,0.02351
7358.16,0.02481
7335.02,0.01175
7311.87,0.02341
7288.73,0.02997
7265.58,0.02597
7242.44,0.03141
7219.29,0.01937
7196.15,0.02122
7173,0.03008
7149.86,0.02142
7126.71,0.02164
7103.57,0.02009
7080.42,0.02246
7057.28,0.02401
7034.13,0.02362
7010.99,0.02779
6987.84,0.02614
6964.7,0.02303
6941.55,0.02112
6918.41,0.02412
6895.26,0.01983
6872.12,0.01788
6848.97,0.02288
6825.83,0.02742
6802.68,0.02144
6779.54,0.02546
6756.39,0.01638
6733.25,0.02366
6710.1,0.02507
6686.96,0.02279
6663.82,0.02241
6640.67,0.02045
6617.53,0.02152
6594.38,0.02602
6571.24,0.02228
6548.09,0.02064
6524.95,0.02569
6501.8,0.02403
6478.66,0.01889
6455.51,0.02595
6432.37,0.02026
6409.22,0.01916
6386.08,0.02168
6362.93,0.02096
6339.79,0.02121
6316.64,0.02289
6293.5,0.02418
6270.35,0.02406
6247.21,0.02305
6224.06,0.01932
6200.92,0.02284
6177.77,0.02065
6154.63,0.02013
6131.48,0.02285
6108.34,0.02129
6085.19,0.02104
6062.05,0.02199
6038.9,0.02144
6015.76,0.01962
5992.61,0.02080
5969.47,0.01560
5946.32,0.02167
5923.18,0.02187
5900.03,0.02327
5876.89,0.02140
5853.74,0.02077
5830.6,0.02342
5807.45,0.02231
5784.31,0.02134
5761.16,0.02392
5738.02,0.02342
5714.87,0.01908
5691.73,0.02021
5668.58,0.01925
5645.44,0.02023
5622.29,0.02241
5599.15,0.02177
5576,0.02202
5552.86,0.02238
5529.71,0.02118
5506.57,0.02120
5483.42,0.02285
5460.28,0.02246
5437.13,0.01939
5413.99,0.02216
5390.84,0.02076
5367.7,0.02104
5344.55,0.02186
5321.41,0.02212
5298.26,0.02130
5275.12,0.02295
5251.97,0.02198
5228.83,0.02097
5205.68,0.02212
5182.54,0.02147
5159.39,0.02141
5136.25,0.02195
5113.1,0.02072
5089.96,0.02269
5066.81,0.02191
5043.67,0.02173
5020.52,0.02163
4997.38,0.02061
4974.23,0.02003
4951.09,0.02139
4927.94,0.02214
4904.8,0.02115
4881.65,0.02233
4858.51,0.02205
4835.36,0.02240
4812.22,0.02295
4789.07,0.02215
4765.93,0.02260
4742.78,0.02139
4719.64,0.02270
4696.49,0.02149
4673.35,0.02056
4650.2,0.02207
4627.06,0.02184
4603.92,0.02184
4580.77,0.02186
4557.63,0.02304
4534.48,0.02326
4511.34,0.02196
4488.19,0.02256
4465.05,0.02273
4441.9,0.02116
4418.76,0.02209
4395.61,0.02286
4372.47,0.02250
4349.32,0.02206
4326.18,0.02203
4303.03,0.02199
4279.89,0.02210
4256.74,0.02234
4233.6,0.02261
4210.45,0.02239
4187.31,0.02211
4164.16,0.02229
4141.02,0.02250
4117.87,0.02264
4094.73,0.02217
4071.58,0.02283
4048.44,0.02212
4025.29,0.02242
4002.15,0.02256
3979,0.02263
3955.86,0.02316
3932.71,0.02332
3909.57,0.02228
3886.42,0.02279
3863.28,0.02311
3840.13,0.02398
3816.99,0.02239
3793.84,0.02238
3770.7,0.02287
3747.55,0.02185
3724.41,0.02271
3701.26,0.02214
3678.12,0.02287
3654.97,0.02195
3631.83,0.02204
3608.68,0.02209
3585.54,0.02189
3562.39,0.02111
3539.25,0.02200
3516.1,0.02102
3492.96,0.02125
3469.81,0.02104
3446.67,0.02133
3423.52,0.02040
3400.38,0.02036
3377.23,0.02014
3354.09,0.02006
3330.94,0.02007
3307.8,0.02045
3284.65,0.02107
3261.51,0.02086
3238.36,0.02108
3215.22,0.02093
3192.07,0.02072
3168.93,0.02144
3145.78,0.02087
3122.64,0.02088
3099.49,0.02138
3076.35,0.02124
3053.2,0.02090
3030.06,0.02087
3006.91,0.02086
2983.77,0.01997
2960.62,0.01982
2937.48,0.01987
2914.33,0.02040
2891.19,0.02084
2868.04,0.02087
2844.9,0.02158
2821.75,0.02184
2798.61,0.02125
2775.46,0.02150
2752.32,0.02111
2729.17,0.02176
2706.03,0.02108
2682.88,0.02169
2659.74,0.02176
2636.59,0.02163
2613.45,0.02133
2590.3,0.02163
2567.16,0.02182
2544.02,0.02170
2520.87,0.02155
2497.73,0.02141
2474.58,0.02195
2451.44,0.02159
2428.29,0.02161
2405.15,0.02137
2382,0.02180
2358.86,0.02156
2335.71,0.02149
2312.57,0.02148
2289.42,0.02151
2266.28,0.02137
2243.13,0.02166
2219.99,0.02087
2196.84,0.02144
2173.7,0.02139
2150.55,0.02166
2127.41,0.02135
2104.26,0.02130
2081.12,0.02132
2057.97,0.02133
2034.83,0.02138
2011.68,0.02104
1988.54,0.02127
1965.39,0.02122
1942.25,0.02116
1919.1,0.02129
1895.96,0.02093
1872.81,0.02102
1849.67,0.02070
1826.52,0.02047
1803.38,0.02026
1780.23,0.01934
1757.09,0.01791
1733.94,0.02008
1710.8,0.02053
1687.65,0.01933
1664.51,0.01829
1641.36,0.01898
1618.22,0.01974
1595.07,0.01920
1571.93,0.01866
1548.78,0.01814
1525.64,0.01880
1502.49,0.01930
1479.35,0.01893
1456.2,0.01830
1433.06,0.01882
1409.91,0.01875
1386.77,0.01834
1363.62,0.01864
1340.48,0.01806
1317.33,0.01730
1294.19,0.01806
1271.04,0.01983
1247.9,0.02051
1224.75,0.01999
1201.61,0.01893
1178.46,0.01783
1155.32,0.01745
1132.17,0.01773
1109.03,0.01908
1085.88,0.01826
1062.74,0.02022
1039.59,0.01933
1016.45,0.01942
993.304,0.02150
970.159,0.02040
947.014,0.01968
923.869,0.02008
900.724,0.01915
877.579,0.01974
854.434,0.01918
831.289,0.01929
808.144,0.01908
784.999,0.01856
761.854,0.01817
738.709,0.01774
715.565,0.01839
692.42,0.01804
669.275,0.01670
646.13,0.01677
622.985,0.01540
599.84,0.01365

File: Straw_IS_T_221109_R6.dpt
7497.03,0.02697
7473.89,0.02832
7450.74,0.01122
7427.6,0.02566
7404.45,0.02933
7381.31,0.02117
7358.16,0.03025
7335.02,0.03060
7311.87,0.02563
7288.73,0.02004
7265.58,0.02178
7242.44,0.02283
7219.29,0.02621
7196.15,0.02629
7173,0.01476
7149.86,0.02486
7126.71,0.02293
7103.57,0.01586
7080.42,0.02372
7057.28,0.02402
7034.13,0.01806
7010.99,0.02590
6987.84,0.02263
6964.7,0.02962
6941.55,0.02107
6918.41,0.02783
6895.26,0.01884
6872.12,0.02459
6848.97,0.02781
6825.83,0.02226
6802.68,0.02280
6779.54,0.01834
6756.39,0.02349
6733.25,0.02391
6710.1,0.02238
6686.96,0.02650
6663.82,0.02054
6640.67,0.02340
6617.53,0.02693
6594.38,0.02017
6571.24,0.02339
6548.09,0.02431
6524.95,0.01938
6501.8,0.02224
6478.66,0.02276
6455.51,0.02035
6432.37,0.02068
6409.22,0.02372
6386.08,0.02401
6362.93,0.02028
6339.79,0.01956
6316.64,0.02134
6293.5,0.01858
6270.35,0.02629
6247.21,0.02231
6224.06,0.02079
6200.92,0.02329
6177.77,0.02408
6154.63,0.01975
6131.48,0.01935
6108.34,0.02204
6085.19,0.02161
6062.05,0.02015
6038.9,0.02220
6015.76,0.01874
5992.61,0.02081
5969.47,0.02062
5946.32,0.02122
5923.18,0.02186
5900.03,0.01889
5876.89,0.02310
5853.74,0.02163
5830.6,0.01829
5807.45,0.02094
5784.31,0.02411
5761.16,0.01953
5738.02,0.02449
5714.87,0.01872
5691.73,0.01978
5668.58,0.02189
5645.44,0.02161
5622.29,0.01983
5599.15,0.02050
5576,0.01864
5552.86,0.02209
5529.71,0.02235
5506.57,0.02119
5483.42,0.02126
5460.28,0.02138
5437.13,0.01947
5413.99,0.02215
5390.84,0.02004
5367.7,0.02059
5344.55,0.02089
5321.41,0.02244
5298.26,0.02171
5275.12,0.02262
5251.97,0.02203
5228.83,0.02270
5205.68,0.02147
5182.54,0.02061
5159.39,0.02044
5136.25,0.02280
5113.1,0.02178
5089.96,0.02241
5066.81,0.02206
5043.67,0.02082
5020.52,0.02071
4997.38,0.02165
4974.23,0.02250
4951.09,0.02217
4927.94,0.02191
4904.8,0.02224
4881.65,0.02202
4858.51,0.02151
4835.36,0.02130
4812.22,0.02187
4789.07,0.02245
4765.93,0.02128
4742.78,0.02140
4719.64,0.02246
4696.49,0.02166
4673.35,0.02243
4650.2,0.02165
4627.06,0.02248
4603.92,0.02310
4580.77,0.02171
4557.63,0.02223
4534.48,0.02173
4511.34,0.02152
4488.19,0.02266
4465.05,0.02095
4441.9,0.02146
4418.76,0.02118
4395.61,0.02261
4372.47,0.02164
4349.32,0.02238
4326.18,0.02192
4303.03,0.02178
4279.89,0.02240
4256.74,0.02264
4233.6,0.02252
4210.45,0.02194
4187.31,0.02235
4164.16,0.02253
4141.02,0.02169
4117.87,0.02258
4094.73,0.02243
4071.58,0.02301
4048.44,0.02246
4025.29,0.02229
4002.15,0.02232
3979,0.02236
3955.86,0.02275
3932.71,0.02229
3909.57,0.02254
3886.42,0.02234
3863.28,0.02250
3840.13,0.02205
3816.99,0.02269
3793.84,0.02195
3770.7,0.02169
3747.55,0.02237
3724.41,0.02210
3701.26,0.02203
3678.12,0.02219
3654.97,0.02163
3631.83,0.02145
3608.68,0.02156
3585.54,0.02159
3562.39,0.02122
3539.25,0.02029
3516.1,0.02097
3492.96,0.02115
3469.81,0.02064
3446.67,0.02060
3423.52,0.02086
3400.38,0.02115
3377.23,0.02000
3354.09,0.02020
3330.94,0.01960
3307.8,0.01946
3284.65,0.02040
3261.51,0.01986
3238.36,0.02097
3215.22,0.02157
3192.07,0.02047
3168.93,0.02100
3145.78,0.02070
3122.64,0.02132
3099.49,0.02069
3076.35,0.01982
3053.2,0.02068
3030.06,0.02072
3006.91,0.02034
2983.77,0.02017
2960.62,0.01971
2937.48,0.01990
2914.33,0.02043
2891.19,0.02108
2868.04,0.02017
2844.9,0.02096
2821.75,0.02101
2798.61,0.02106
2775.46,0.02145
2752.32,0.02119
2729.17,0.02157
2706.03,0.02154
2682.88,0.02164
2659.74,0.02127
2636.59,0.02100
2613.45,0.02131
2590.3,0.02138
2567.16,0.02119
2544.02,0.02082
2520.87,0.02123
2497.73,0.02138
2474.58,0.02113
2451.44,0.02141
2428.29,0.02137
2405.15,0.02118
2382,0.02130
2358.86,0.02098
2335.71,0.02145
2312.57,0.02113
2289.42,0.02122
2266.28,0.02108
2243.13,0.02135
2219.99,0.02145
2196.84,0.02091
2173.7,0.02100
2150.55,0.02094
2127.41,0.02134
2104.26,0.02104
2081.12,0.02147
2057.97,0.02117
2034.83,0.02124
2011.68,0.02094
1988.54,0.02074
1965.39,0.02100
1942.25,0.02101
1919.1,0.02069
1895.96,0.02048
1872.81,0.02087
1849.67,0.02057
1826.52,0.02045
1803.38,0.02025
1780.23,0.01924
1757.09,0.01802
1733.94,0.01948
1710.8,0.02048
1687.65,0.01951
1664.51,0.01884
1641.36,0.01858
1618.22,0.01871
1595.07,0.01907
1571.93,0.01825
1548.78,0.01827
1525.64,0.01869
1502.49,0.01900
1479.35,0.01887
1456.2,0.01896
1433.06,0.01882
1409.91,0.01847
1386.77,0.01821
1363.62,0.01857
1340.48,0.01757
1317.33,0.01703
1294.19,0.01788
1271.04,0.01924
1247.9,0.02013
1224.75,0.01929
1201.61,0.01864
1178.46,0.01780
1155.32,0.01715
1132.17,0.01821
1109.03,0.01957
1085.88,0.01857
1062.74,0.02008
1039.59,0.02006
1016.45,0.01935
993.304,0.02099
970.159,0.02028
947.014,0.02005
923.869,0.01914
900.724,0.01974
877.579,0.01865
854.434,0.01932
831.289,0.01920
808.144,0.01901
784.999,0.01903
761.854,0.01876
738.709,0.01777
715.565,0.01819
692.42,0.01731
669.275,0.01843
646.13,0.01736
622.985,0.01627
599.84,0.01494