Folder: fsri_materials_database/01_Data/Straw/FTIR/IS (part 2)

File: Straw_IS_S_221109_R5.dpt
7497.03,0.83331
7473.89,0.83593
7450.74,0.83870
7427.6,0.84274
7404.45,0.82622
7381.31,0.83331
7358.16,0.82420
7335.02,0.81937
7311.87,0.81149
7288.73,0.80504
7265.58,0.81654
7242.44,0.82105
7219.29,0.80694
7196.15,0.80736
7173,0.81068
7149.86,0.79898
7126.71,0.79033
7103.57,0.77234
7080.42,0.77214
7057.28,0.74910
7034.13,0.73248
7010.99,0.72113
6987.84,0.69584
6964.7,0.69025
6941.55,0.69771
6918.41,0.68408
6895.26,0.69117
6872.12,0.68458
6848.97,0.68349
6825.83,0.68811
6802.68,0.68553
6779.54,0.68168
6756.39,0.68278
6733.25,0.68337
6710.1,0.68961
6686.96,0.69226
6663.82,0.69648
6640.67,0.69574
6617.53,0.69560
6594.38,0.70316
6571.24,0.70155
6548.09,0.71608
6524.95,0.71600
6501.8,0.71545
6478.66,0.71485
6455.51,0.71613
6432.37,0.71912
6409.22,0.71973
6386.08,0.72308
6362.93,0.72579
6339.79,0.72727
6316.64,0.72570
6293.5,0.73030
6270.35,0.73553
6247.21,0.73928
6224.06,0.74288
6200.92,0.75242
6177.77,0.75520
6154.63,0.76065
6131.48,0.76310
6108.34,0.76424
6085.19,0.76484
6062.05,0.76230
6038.9,0.76286
6015.76,0.76555
5992.61,0.75666
5969.47,0.75423
5946.32,0.75116
5923.18,0.74984
5900.03,0.74563
5876.89,0.74062
5853.74,0.74415
5830.6,0.73668
5807.45,0.73510
5784.31,0.73563
5761.16,0.74261
5738.02,0.74245
5714.87,0.74145
5691.73,0.74184
5668.58,0.74245
5645.44,0.74120
5622.29,0.74056
5599.15,0.74116
5576,0.74491
5552.86,0.74410
5529.71,0.74599
5506.57,0.74706
5483.42,0.74771
5460.28,0.75258
5437.13,0.75330
5413.99,0.75832
5390.84,0.76050
5367.7,0.75891
5344.55,0.76100
5321.41,0.75615
5298.26,0.73900
5275.12,0.70760
5251.97,0.66848
5228.83,0.64106
5205.68,0.62924
5182.54,0.62836
5159.39,0.63776
5136.25,0.65143
5113.1,0.66293
5089.96,0.67363
5066.81,0.68413
5043.67,0.69092
5020.52,0.69647
4997.38,0.69467
4974.23,0.68814
4951.09,0.67308
4927.94,0.65071
4904.8,0.62489
4881.65,0.60010
4858.51,0.57789
4835.36,0.56312
4812.22,0.55037
4789.07,0.54402
4765.93,0.54053
4742.78,0.54279
4719.64,0.54413
4696.49,0.54971
4673.35,0.55551
4650.2,0.56664
4627.06,0.57674
4603.92,0.58566
4580.77,0.59280
4557.63,0.59911
4534.48,0.60476
4511.34,0.60639
4488.19,0.59624
4465.05,0.57320
4441.9,0.54055
4418.76,0.51644
4395.61,0.50485
4372.47,0.51170
4349.32,0.51320
4326.18,0.50170
4303.03,0.49275
4279.89,0.48832
4256.74,0.49129
4233.6,0.49595
4210.45,0.49813
4187.31,0.50006
4164.16,0.50457
4141.02,0.49874
4117.87,0.48239
4094.73,0.45964
4071.58,0.43372
4048.44,0.40810
4025.29,0.39082
4002.15,0.38966
3979,0.39872
3955.86,0.41033
3932.71,0.42333
3909.57,0.43710
3886.42,0.45087
3863.28,0.46429
3840.13,0.47879
3816.99,0.48485
3793.84,0.48392
3770.7,0.48148
3747.55,0.47592
3724.41,0.45711
3701.26,0.42093
3678.12,0.34441
3654.97,0.24211
3631.83,0.17279
3608.68,0.12740
3585.54,0.09704
3562.39,0.07890
3539.25,0.06708
3516.1,0.05912
3492.96,0.05278
3469.81,0.04859
3446.67,0.04613
3423.52,0.04568
3400.38,0.04598
3377.23,0.04669
3354.09,0.04794
3330.94,0.05035
3307.8,0.05408
3284.65,0.05786
3261.51,0.06274
3238.36,0.07034
3215.22,0.07690
3192.07,0.08455
3168.93,0.09276
3145.78,0.10179
3122.64,0.11001
3099.49,0.11838
3076.35,0.12613
3053.2,0.13532
3030.06,0.13997
3006.91,0.13522
2983.77,0.12190
2960.62,0.10127
2937.48,0.08733
2914.33,0.08919
2891.19,0.08889
2868.04,0.09453
2844.9,0.11195
2821.75,0.13725
2798.61,0.15497
2775.46,0.16361
2752.32,0.16925
2729.17,0.17309
2706.03,0.18161
2682.88,0.19198
2659.74,0.20177
2636.59,0.21111
2613.45,0.22226
2590.3,0.23142
2567.16,0.23691
2544.02,0.24098
2520.87,0.24813
2497.73,0.25770
2474.58,0.26927
2451.44,0.28091
2428.29,0.29528
2405.15,0.31114
2382,0.32514
2358.86,0.33627
2335.71,0.34642
2312.57,0.35239
2289.42,0.35158
2266.28,0.34902
2243.13,0.34484
2219.99,0.34582
2196.84,0.34264
2173.7,0.32704
2150.55,0.31393
2127.41,0.31297
2104.26,0.32237
2081.12,0.33126
2057.97,0.33218
2034.83,0.33961
2011.68,0.35782
1988.54,0.37132
1965.39,0.37568
1942.25,0.38279
1919.1,0.39567
1895.96,0.39815
1872.81,0.39586
1849.67,0.38592
1826.52,0.36900
1803.38,0.33524
1780.23,0.27039
1757.09,0.15255
1733.94,0.10478
1710.8,0.12176
1687.65,0.12943
1664.51,0.09507
1641.36,0.09078
1618.22,0.08055
1595.07,0.07601
1571.93,0.10547
1548.78,0.12749
1525.64,0.10432
1502.49,0.07382
1479.35,0.07984
1456.2,0.05860
1433.06,0.05413
1409.91,0.06036
1386.77,0.05107
1363.62,0.04910
1340.48,0.05121
1317.33,0.05093
1294.19,0.05466
1271.04,0.04558
1247.9,0.04655
1224.75,0.05429
1201.61,0.05410
1178.46,0.04584
1155.32,0.05384
1132.17,0.05028
1109.03,0.06501
1085.88,0.07180
1062.74,0.07396
1039.59,0.08651
1016.45,0.08372
993.304,0.08434
970.159,0.10772
947.014,0.14699
923.869,0.16041
900.724,0.13215
877.579,0.17214
854.434,0.17010
831.289,0.16313
808.144,0.16977
784.999,0.16560
761.854,0.14962
738.709,0.13164
715.565,0.11963
692.42,0.11213
669.275,0.09999
646.13,0.10207
622.985,0.09831
599.84,0.11015

File: Straw_IS_S_221109_R6.dpt
7497.03,0.84355
7473.89,0.83851
7450.74,0.84026
7427.6,0.83420
7404.45,0.82994
7381.31,0.83474
7358.16,0.81641
7335.02,0.81741
7311.87,0.81333
7288.73,0.81278
7265.58,0.80395
7242.44,0.81074
7219.29,0.81163
7196.15,0.81262
7173,0.80338
7149.86,0.79366
7126.71,0.78889
7103.57,0.77896
7080.42,0.76609
7057.28,0.74518
7034.13,0.72459
7010.99,0.71101
6987.84,0.70958
6964.7,0.70494
6941.55,0.68676
6918.41,0.68667
6895.26,0.68742
6872.12,0.68455
6848.97,0.68133
6825.83,0.68173
6802.68,0.68680
6779.54,0.68593
6756.39,0.68344
6733.25,0.68680
6710.1,0.69055
6686.96,0.69125
6663.82,0.69359
6640.67,0.69717
6617.53,0.70354
6594.38,0.69759
6571.24,0.70758
6548.09,0.70821
6524.95,0.70820
6501.8,0.71264
6478.66,0.71876
6455.51,0.72112
6432.37,0.71841
6409.22,0.72115
6386.08,0.72170
6362.93,0.72370
6339.79,0.72696
6316.64,0.72461
6293.5,0.73027
6270.35,0.73413
6247.21,0.73692
6224.06,0.73869
6200.92,0.75071
6177.77,0.75662
6154.63,0.76075
6131.48,0.76436
6108.34,0.76646
6085.19,0.76656
6062.05,0.76483
6038.9,0.76579
6015.76,0.76076
5992.61,0.75606
5969.47,0.75239
5946.32,0.74841
5923.18,0.75334
5900.03,0.74632
5876.89,0.74310
5853.74,0.74344
5830.6,0.73985
5807.45,0.73364
5784.31,0.73671
5761.16,0.74079
5738.02,0.74279
5714.87,0.74326
5691.73,0.74185
5668.58,0.74034
5645.44,0.73967
5622.29,0.74183
5599.15,0.74065
5576,0.74086
5552.86,0.74170
5529.71,0.74665
5506.57,0.74406
5483.42,0.74842
5460.28,0.75161
5437.13,0.75398
5413.99,0.75621
5390.84,0.76008
5367.7,0.75996
5344.55,0.76049
5321.41,0.75334
5298.26,0.73840
5275.12,0.70944
5251.97,0.67031
5228.83,0.64161
5205.68,0.62882
5182.54,0.63034
5159.39,0.63878
5136.25,0.65223
5113.1,0.66435
5089.96,0.67429
5066.81,0.68453
5043.67,0.69143
5020.52,0.69577
4997.38,0.69565
4974.23,0.68788
4951.09,0.67389
4927.94,0.64940
4904.8,0.62520
4881.65,0.59954
4858.51,0.57939
4835.36,0.56123
4812.22,0.54977
4789.07,0.54307
4765.93,0.54042
4742.78,0.54197
4719.64,0.54349
4696.49,0.54850
4673.35,0.55542
4650.2,0.56644
4627.06,0.57539
4603.92,0.58516
4580.77,0.59226
4557.63,0.59997
4534.48,0.60363
4511.34,0.60591
4488.19,0.59604
4465.05,0.57288
4441.9,0.54086
4418.76,0.51519
4395.61,0.50370
4372.47,0.51191
4349.32,0.51338
4326.18,0.50191
4303.03,0.49171
4279.89,0.48732
4256.74,0.49044
4233.6,0.49499
4210.45,0.49841
4187.31,0.49948
4164.16,0.50515
4141.02,0.49729
4117.87,0.48193
4094.73,0.45939
4071.58,0.43338
4048.44,0.40777
4025.29,0.39004
4002.15,0.38972
3979,0.39911
3955.86,0.41017
3932.71,0.42351
3909.57,0.43626
3886.42,0.45001
3863.28,0.46395
3840.13,0.47826
3816.99,0.48415
3793.84,0.48492
3770.7,0.48071
3747.55,0.47524
3724.41,0.45756
3701.26,0.42192
3678.12,0.34603
3654.97,0.24348
3631.83,0.17497
3608.68,0.12917
3585.54,0.09760
3562.39,0.07896
3539.25,0.06724
3516.1,0.05881
3492.96,0.05325
3469.81,0.04835
3446.67,0.04642
3423.52,0.04557
3400.38,0.04681
3377.23,0.04701
3354.09,0.04798
3330.94,0.05039
3307.8,0.05407
3284.65,0.05725
3261.51,0.06305
3238.36,0.07000
3215.22,0.07712
3192.07,0.08536
3168.93,0.09274
3145.78,0.10112
3122.64,0.10993
3099.49,0.11863
3076.35,0.12667
3053.2,0.13501
3030.06,0.14036
3006.91,0.13531
2983.77,0.12215
2960.62,0.10149
2937.48,0.08838
2914.33,0.08969
2891.19,0.08913
2868.04,0.09485
2844.9,0.11155
2821.75,0.13723
2798.61,0.15471
2775.46,0.16371
2752.32,0.16908
2729.17,0.17318
2706.03,0.18158
2682.88,0.19147
2659.74,0.20159
2636.59,0.21087
2613.45,0.22182
2590.3,0.23128
2567.16,0.23626
2544.02,0.24087
2520.87,0.24755
2497.73,0.25780
2474.58,0.26945
2451.44,0.28069
2428.29,0.29507
2405.15,0.31153
2382,0.32465
2358.86,0.33566
2335.71,0.34613
2312.57,0.35212
2289.42,0.35145
2266.28,0.34865
2243.13,0.34466
2219.99,0.34587
2196.84,0.34279
2173.7,0.32689
2150.55,0.31408
2127.41,0.31353
2104.26,0.32287
2081.12,0.33149
2057.97,0.33200
2034.83,0.33946
2011.68,0.35723
1988.54,0.37166
1965.39,0.37576
1942.25,0.38317
1919.1,0.39626
1895.96,0.39822
1872.81,0.39563
1849.67,0.38595
1826.52,0.36880
1803.38,0.33496
1780.23,0.27035
1757.09,0.15218
1733.94,0.10463
1710.8,0.12208
1687.65,0.12931
1664.51,0.09472
1641.36,0.09112
1618.22,0.08070
1595.07,0.07619
1571.93,0.10508
1548.78,0.12753
1525.64,0.10478
1502.49,0.07359
1479.35,0.07967
1456.2,0.05866
1433.06,0.05402
1409.91,0.06025
1386.77,0.05097
1363.62,0.04884
1340.48,0.05131
1317.33,0.05069
1294.19,0.05436
1271.04,0.04485
1247.9,0.04643
1224.75,0.05424
1201.61,0.05403
1178.46,0.04596
1155.32,0.05356
1132.17,0.05095
1109.03,0.06477
1085.88,0.07112
1062.74,0.07308
1039.59,0.08674
1016.45,0.08369
993.304,0.08413
970.159,0.10689
947.014,0.14728
923.869,0.16076
900.724,0.13254
877.579,0.17197
854.434,0.17055
831.289,0.16401
808.144,0.17091
784.999,0.16638
761.854,0.14955
738.709,0.13172
715.565,0.11962
692.42,0.11340
669.275,0.09974
646.13,0.10311
622.985,0.10084
599.84,0.11355

File: Straw_IS_S_221109_R7.dpt
7497.03,0.85843
7473.89,0.84485
7450.74,0.83063
7427.6,0.83159
7404.45,0.82955
7381.31,0.82576
7358.16,0.81371
7335.02,0.81045
7311.87,0.81568
7288.73,0.81556
7265.58,0.80753
7242.44,0.81000
7219.29,0.80884
7196.15,0.81631
7173,0.80735
7149.86,0.79465
7126.71,0.79397
7103.57,0.77332
7080.42,0.76859
7057.28,0.74179
7034.13,0.72476
7010.99,0.72196
6987.84,0.70338
6964.7,0.69356
6941.55,0.69573
6918.41,0.69381
6895.26,0.68613
6872.12,0.68517
6848.97,0.67871
6825.83,0.68365
6802.68,0.67783
6779.54,0.68970
6756.39,0.68618
6733.25,0.68839
6710.1,0.68498
6686.96,0.69046
6663.82,0.68858
6640.67,0.69870
6617.53,0.69646
6594.38,0.70282
6571.24,0.70956
6548.09,0.71049
6524.95,0.71814
6501.8,0.71065
6478.66,0.71635
6455.51,0.72413
6432.37,0.71899
6409.22,0.72194
6386.08,0.72233
6362.93,0.72259
6339.79,0.72349
6316.64,0.72617
6293.5,0.73109
6270.35,0.73050
6247.21,0.73902
6224.06,0.74787
6200.92,0.74948
6177.77,0.75443
6154.63,0.76034
6131.48,0.76427
6108.34,0.76242
6085.19,0.76822
6062.05,0.76846
6038.9,0.76089
6015.76,0.75926
5992.61,0.75643
5969.47,0.75419
5946.32,0.75071
5923.18,0.75274
5900.03,0.74450
5876.89,0.74243
5853.74,0.74149
5830.6,0.74094
5807.45,0.73363
5784.31,0.73646
5761.16,0.74071
5738.02,0.74533
5714.87,0.74371
5691.73,0.74187
5668.58,0.74203
5645.44,0.74142
5622.29,0.73895
5599.15,0.74045
5576,0.74261
5552.86,0.74365
5529.71,0.74604
5506.57,0.74650
5483.42,0.74720
5460.28,0.75098
5437.13,0.75513
5413.99,0.75826
5390.84,0.76312
5367.7,0.76047
5344.55,0.75837
5321.41,0.75579
5298.26,0.73913
5275.12,0.71022
5251.97,0.67004
5228.83,0.64339
5205.68,0.63068
5182.54,0.63094
5159.39,0.63915
5136.25,0.65301
5113.1,0.66523
5089.96,0.67668
5066.81,0.68572
5043.67,0.69332
5020.52,0.69669
4997.38,0.69624
4974.23,0.68911
4951.09,0.67343
4927.94,0.64980
4904.8,0.62402
4881.65,0.59954
4858.51,0.57951
4835.36,0.56191
4812.22,0.54949
4789.07,0.54388
4765.93,0.54118
4742.78,0.54168
4719.64,0.54432
4696.49,0.54946
4673.35,0.55624
4650.2,0.56639
4627.06,0.57541
4603.92,0.58469
4580.77,0.59251
4557.63,0.59953
4534.48,0.60507
4511.34,0.60596
4488.19,0.59769
4465.05,0.57247
4441.9,0.54015
4418.76,0.51514
4395.61,0.50487
4372.47,0.51209
4349.32,0.51278
4326.18,0.50129
4303.03,0.49244
4279.89,0.48753
4256.74,0.49105
4233.6,0.49619
4210.45,0.49760
4187.31,0.50029
4164.16,0.50515
4141.02,0.49919
4117.87,0.48279
4094.73,0.46009
4071.58,0.43439
4048.44,0.40831
4025.29,0.39042
4002.15,0.39042
3979,0.39925
3955.86,0.41102
3932.71,0.42407
3909.57,0.43728
3886.42,0.45013
3863.28,0.46385
3840.13,0.47822
3816.99,0.48566
3793.84,0.48544
3770.7,0.48280
3747.55,0.47559
3724.41,0.45847
3701.26,0.42308
3678.12,0.34744
3654.97,0.24557
3631.83,0.17644
3608.68,0.12999
3585.54,0.09863
3562.39,0.08003
3539.25,0.06655
3516.1,0.05946
3492.96,0.05272
3469.81,0.04873
3446.67,0.04714
3423.52,0.04552
3400.38,0.04535
3377.23,0.04670
3354.09,0.04784
3330.94,0.05018
3307.8,0.05398
3284.65,0.05745
3261.51,0.06346
3238.36,0.07117
3215.22,0.07805
3192.07,0.08597
3168.93,0.09335
3145.78,0.10205
3122.64,0.11118
3099.49,0.11872
3076.35,0.12657
3053.2,0.13603
3030.06,0.14081
3006.91,0.13539
2983.77,0.12195
2960.62,0.10065
2937.48,0.08786
2914.33,0.08955
2891.19,0.08894
2868.04,0.09492
2844.9,0.11164
2821.75,0.13764
2798.61,0.15549
2775.46,0.16364
2752.32,0.16894
2729.17,0.17274
2706.03,0.18177
2682.88,0.19210
2659.74,0.20216
2636.59,0.21108
2613.45,0.22212
2590.3,0.23171
2567.16,0.23676
2544.02,0.24148
2520.87,0.24819
2497.73,0.25833
2474.58,0.26913
2451.44,0.28085
2428.29,0.29554
2405.15,0.31150
2382,0.32525
2358.86,0.33627
2335.71,0.34698
2312.57,0.35268
2289.42,0.35203
2266.28,0.34920
2243.13,0.34510
2219.99,0.34627
2196.84,0.34350
2173.7,0.32747
2150.55,0.31504
2127.41,0.31394
2104.26,0.32367
2081.12,0.33167
2057.97,0.33281
2034.83,0.34005
2011.68,0.35808
1988.54,0.37187
1965.39,0.37643
1942.25,0.38356
1919.1,0.39634
1895.96,0.39912
1872.81,0.39639
1849.67,0.38677
1826.52,0.36945
1803.38,0.33571
1780.23,0.27079
1757.09,0.15249
1733.94,0.10500
1710.8,0.12223
1687.65,0.13008
1664.51,0.09509
1641.36,0.09136
1618.22,0.08085
1595.07,0.07593
1571.93,0.10532
1548.78,0.12746
1525.64,0.10455
1502.49,0.07372
1479.35,0.07978
1456.2,0.05899
1433.06,0.05427
1409.91,0.06057
1386.77,0.05110
1363.62,0.04885
1340.48,0.05133
1317.33,0.05053
1294.19,0.05478
1271.04,0.04509
1247.9,0.04679
1224.75,0.05433
1201.61,0.05457
1178.46,0.04587
1155.32,0.05378
1132.17,0.05077
1109.03,0.06495
1085.88,0.07080
1062.74,0.07279
1039.59,0.08662
1016.45,0.08368
993.304,0.08474
970.159,0.10766
947.014,0.14771
923.869,0.16069
900.724,0.13302
877.579,0.17391
854.434,0.17107
831.289,0.16429
808.144,0.17128
784.999,0.16702
761.854,0.15004
738.709,0.13181
715.565,0.12121
692.42,0.11348
669.275,0.10071
646.13,0.10270
622.985,0.09940
599.84,0.11093

File: Straw_IS_S_221109_R8.dpt
7497.03,0.85133
7473.89,0.82625
7450.74,0.83524
7427.6,0.82049
7404.45,0.82157
7381.31,0.81885
7358.16,0.82160
7335.02,0.81340
7311.87,0.81571
7288.73,0.82154
7265.58,0.80185
7242.44,0.80885
7219.29,0.80826
7196.15,0.81129
7173,0.80584
7149.86,0.80752
7126.71,0.78862
7103.57,0.78498
7080.42,0.76073
7057.28,0.74321
7034.13,0.72737
7010.99,0.70942
6987.84,0.70320
6964.7,0.69608
6941.55,0.69119
6918.41,0.68926
6895.26,0.69306
6872.12,0.68961
6848.97,0.68709
6825.83,0.69119
6802.68,0.68684
6779.54,0.67884
6756.39,0.68499
6733.25,0.69061
6710.1,0.68702
6686.96,0.69130
6663.82,0.69378
6640.67,0.69386
6617.53,0.70119
6594.38,0.70200
6571.24,0.70680
6548.09,0.71027
6524.95,0.71086
6501.8,0.71501
6478.66,0.71350
6455.51,0.72027
6432.37,0.71774
6409.22,0.72221
6386.08,0.72306
6362.93,0.72511
6339.79,0.72657
6316.64,0.73047
6293.5,0.73085
6270.35,0.73131
6247.21,0.74008
6224.06,0.74296
6200.92,0.74969
6177.77,0.75536
6154.63,0.76189
6131.48,0.76451
6108.34,0.76502
6085.19,0.76635
6062.05,0.76689
6038.9,0.76347
6015.76,0.75754
5992.61,0.75511
5969.47,0.75464
5946.32,0.74864
5923.18,0.74909
5900.03,0.74638
5876.89,0.74136
5853.74,0.74288
5830.6,0.73765
5807.45,0.73351
5784.31,0.73919
5761.16,0.73998
5738.02,0.74392
5714.87,0.74327
5691.73,0.74142
5668.58,0.74083
5645.44,0.74141
5622.29,0.74086
5599.15,0.74088
5576,0.74128
5552.86,0.74255
5529.71,0.74606
5506.57,0.74629
5483.42,0.74712
5460.28,0.74910
5437.13,0.75438
5413.99,0.75587
5390.84,0.75882
5367.7,0.76195
5344.55,0.76071
5321.41,0.75412
5298.26,0.73861
5275.12,0.70988
5251.97,0.67363
5228.83,0.64464
5205.68,0.63513
5182.54,0.63496
5159.39,0.64308
5136.25,0.65523
5113.1,0.66797
5089.96,0.67756
5066.81,0.68612
5043.67,0.69327
5020.52,0.69730
4997.38,0.69478
4974.23,0.68908
4951.09,0.67273
4927.94,0.64904
4904.8,0.62489
4881.65,0.60027
4858.51,0.57966
4835.36,0.56154
4812.22,0.54926
4789.07,0.54241
4765.93,0.53998
4742.78,0.54123
4719.64,0.54282
4696.49,0.54836
4673.35,0.55518
4650.2,0.56544
4627.06,0.57622
4603.92,0.58418
4580.77,0.59318
4557.63,0.59946
4534.48,0.60502
4511.34,0.60472
4488.19,0.59627
4465.05,0.57250
4441.9,0.53993
4418.76,0.51423
4395.61,0.50374
4372.47,0.51080
4349.32,0.51206
4326.18,0.50119
4303.03,0.49220
4279.89,0.48692
4256.74,0.49105
4233.6,0.49539
4210.45,0.49774
4187.31,0.49948
4164.16,0.50514
4141.02,0.49797
4117.87,0.48212
4094.73,0.45947
4071.58,0.43389
4048.44,0.40837
4025.29,0.39065
4002.15,0.38997
3979,0.39831
3955.86,0.41053
3932.71,0.42460
3909.57,0.43694
3886.42,0.45066
3863.28,0.46445
3840.13,0.47945
3816.99,0.48509
3793.84,0.48611
3770.7,0.48327
3747.55,0.47635
3724.41,0.45981
3701.26,0.42498
3678.12,0.34982
3654.97,0.24732
3631.83,0.17859
3608.68,0.13101
3585.54,0.09972
3562.39,0.07996
3539.25,0.06820
3516.1,0.05946
3492.96,0.05394
3469.81,0.04939
3446.67,0.04657
3423.52,0.04596
3400.38,0.04597
3377.23,0.04680
3354.09,0.04772
3330.94,0.05004
3307.8,0.05405
3284.65,0.05756
3261.51,0.06388
3238.36,0.07101
3215.22,0.07792
3192.07,0.08583
3168.93,0.09392
3145.78,0.10217
3122.64,0.11130
3099.49,0.11920
3076.35,0.12735
3053.2,0.13630
3030.06,0.14105
3006.91,0.13542
2983.77,0.12193
2960.62,0.10157
2937.48,0.08788
2914.33,0.08964
2891.19,0.08914
2868.04,0.09438
2844.9,0.11190
2821.75,0.13695
2798.61,0.15512
2775.46,0.16382
2752.32,0.16914
2729.17,0.17313
2706.03,0.18191
2682.88,0.19193
2659.74,0.20201
2636.59,0.21145
2613.45,0.22189
2590.3,0.23154
2567.16,0.23695
2544.02,0.24090
2520.87,0.24773
2497.73,0.25800
2474.58,0.26896
2451.44,0.28092
2428.29,0.29510
2405.15,0.31133
2382,0.32489
2358.86,0.33630
2335.71,0.34731
2312.57,0.35263
2289.42,0.35228
2266.28,0.34947
2243.13,0.34544
2219.99,0.34662
2196.84,0.34402
2173.7,0.32851
2150.55,0.31521
2127.41,0.31446
2104.26,0.32364
2081.12,0.33252
2057.97,0.33358
2034.83,0.34091
2011.68,0.35865
1988.54,0.37251
1965.39,0.37686
1942.25,0.38386
1919.1,0.39659
1895.96,0.39915
1872.81,0.39668
1849.67,0.38672
1826.52,0.36961
1803.38,0.33597
1780.23,0.27037
1757.09,0.15189
1733.94,0.10446
1710.8,0.12186
1687.65,0.13032
1664.51,0.09558
1641.36,0.09128
1618.22,0.08116
1595.07,0.07597
1571.93,0.10541
1548.78,0.12760
1525.64,0.10447
1502.49,0.07350
1479.35,0.07970
1456.2,0.05848
1433.06,0.05381
1409.91,0.06033
1386.77,0.05109
1363.62,0.04915
1340.48,0.05130
1317.33,0.05023
1294.19,0.05457
1271.04,0.04550
1247.9,0.04655
1224.75,0.05440
1201.61,0.05421
1178.46,0.04621
1155.32,0.05318
1132.17,0.05087
1109.03,0.06525
1085.88,0.07107
1062.74,0.07344
1039.59,0.08665
1016.45,0.08328
993.304,0.08445
970.159,0.10758
947.014,0.14728
923.869,0.16095
900.724,0.13362
877.579,0.17301
854.434,0.17080
831.289,0.16523
808.144,0.17255
784.999,0.16709
761.854,0.15076
738.709,0.13364
715.565,0.12047
692.42,0.11406
669.275,0.10057
646.13,0.10349
622.985,0.10079
599.84,0.11316

File: Straw_IS_T_221109_R2.dpt
7497.03,0.02096
7473.89,0.02232
7450.74,0.02905
7427.6,0.02849
7404.45,0.01661
7381.31,0.02491
7358.16,0.01768
7335.02,0.01748
7311.87,0.02457
7288.73,0.02881
7265.58,0.02055
7242.44,0.02193
7219.29,0.02256
7196.15,0.02260
7173,0.02431
7149.86,0.02222
7126.71,0.02112
7103.57,0.02497
7080.42,0.02300
7057.28,0.01968
7034.13,0.03155
7010.99,0.02055
6987.84,0.02367
6964.7,0.02240
6941.55,0.01987
6918.41,0.02165
6895.26,0.02111
6872.12,0.02505
6848.97,0.02067
6825.83,0.02715
6802.68,0.01864
6779.54,0.02466
6756.39,0.01966
6733.25,0.02049
6710.1,0.02449
6686.96,0.02084
6663.82,0.02327
6640.67,0.01767
6617.53,0.02642
6594.38,0.02563
6571.24,0.02076
6548.09,0.02162
6524.95,0.02015
6501.8,0.02306
6478.66,0.02062
6455.51,0.02402
6432.37,0.02592
6409.22,0.02116
6386.08,0.02208
6362.93,0.02219
6339.79,0.02218
6316.64,0.02290
6293.5,0.01756
6270.35,0.02359
6247.21,0.01703
6224.06,0.02510
6200.92,0.02462
6177.77,0.02350
6154.63,0.02269
6131.48,0.01824
6108.34,0.02615
6085.19,0.02005
6062.05,0.02100
6038.9,0.02001
6015.76,0.02052
5992.61,0.01860
5969.47,0.01923
5946.32,0.02067
5923.18,0.02029
5900.03,0.02291
5876.89,0.02257
5853.74,0.02264
5830.6,0.02289
5807.45,0.02018
5784.31,0.02204
5761.16,0.02172
5738.02,0.02228
5714.87,0.02185
5691.73,0.02301
5668.58,0.02116
5645.44,0.02098
5622.29,0.02135
5599.15,0.02219
5576,0.02046
5552.86,0.02249
5529.71,0.02193
5506.57,0.02150
5483.42,0.02351
5460.28,0.02163
5437.13,0.02252
5413.99,0.02044
5390.84,0.02183
5367.7,0.02087
5344.55,0.02198
5321.41,0.02155
5298.26,0.02182
5275.12,0.02188
5251.97,0.02241
5228.83,0.02100
5205.68,0.02198
5182.54,0.02325
5159.39,0.02050
5136.25,0.02222
5113.1,0.02256
5089.96,0.02300
5066.81,0.02169
5043.67,0.02025
5020.52,0.02147
4997.38,0.02165
4974.23,0.02224
4951.09,0.02165
4927.94,0.02246
4904.8,0.02126
4881.65,0.02076
4858.51,0.02096
4835.36,0.02222
4812.22,0.02225
4789.07,0.02330
4765.93,0.02252
4742.78,0.02305
4719.64,0.02217
4696.49,0.02337
4673.35,0.02128
4650.2,0.02305
4627.06,0.02202
4603.92,0.02263
4580.77,0.02075
4557.63,0.02240
4534.48,0.02249
4511.34,0.02249
4488.19,0.02170
4465.05,0.02191
4441.9,0.02267
4418.76,0.02285
4395.61,0.02274
4372.47,0.02166
4349.32,0.02230
4326.18,0.02184
4303.03,0.02248
4279.89,0.02333
4256.74,0.02309
4233.6,0.02198
4210.45,0.02247
4187.31,0.02275
4164.16,0.02206
4141.02,0.02223
4117.87,0.02244
4094.73,0.02165
4071.58,0.02314
4048.44,0.02250
4025.29,0.02266
4002.15,0.02302
3979,0.02245
3955.86,0.02274
3932.71,0.02264
3909.57,0.02332
3886.42,0.02236
3863.28,0.02222
3840.13,0.02276
3816.99,0.02185
3793.84,0.02248
3770.7,0.02248
3747.55,0.02315
3724.41,0.02229
3701.26,0.02220
3678.12,0.02269
3654.97,0.02248
3631.83,0.02226
3608.68,0.02131
3585.54,0.02204
3562.39,0.02160
3539.25,0.02110
3516.1,0.02107
3492.96,0.02123
3469.81,0.02089
3446.67,0.02086
3423.52,0.02016
3400.38,0.01999
3377.23,0.02031
3354.09,0.01974
3330.94,0.02097
3307.8,0.02059
3284.65,0.02018
3261.51,0.02035
3238.36,0.02100
3215.22,0.02072
3192.07,0.02075
3168.93,0.02042
3145.78,0.02121
3122.64,0.02138
3099.49,0.02090
3076.35,0.02119
3053.2,0.02087
3030.06,0.02055
3006.91,0.02078
2983.77,0.02006
2960.62,0.02017
2937.48,0.01965
2914.33,0.01997
2891.19,0.02096
2868.04,0.02088
2844.9,0.02090
2821.75,0.02207
2798.61,0.02205
2775.46,0.02128
2752.32,0.02146
2729.17,0.02128
2706.03,0.02155
2682.88,0.02152
2659.74,0.02195
2636.59,0.02155
2613.45,0.02145
2590.3,0.02175
2567.16,0.02152
2544.02,0.02162
2520.87,0.02117
2497.73,0.02172
2474.58,0.02158
2451.44,0.02120
2428.29,0.02153
2405.15,0.02142
2382,0.02130
2358.86,0.02177
2335.71,0.02154
2312.57,0.02134
2289.42,0.02145
2266.28,0.02102
2243.13,0.02121
2219.99,0.02164
2196.84,0.02107
2173.7,0.02094
2150.55,0.02137
2127.41,0.02146
2104.26,0.02123
2081.12,0.02146
2057.97,0.02125
2034.83,0.02124
2011.68,0.02146
1988.54,0.02113
1965.39,0.02104
1942.25,0.02114
1919.1,0.02098
1895.96,0.02103
1872.81,0.02069
1849.67,0.02093
1826.52,0.02076
1803.38,0.02038
1780.23,0.01950
1757.09,0.01806
1733.94,0.01989
1710.8,0.02074
1687.65,0.01920
1664.51,0.01860
1641.36,0.01891
1618.22,0.01914
1595.07,0.01904
1571.93,0.01844
1548.78,0.01847
1525.64,0.01861
1502.49,0.01891
1479.35,0.01911
1456.2,0.01868
1433.06,0.01884
1409.91,0.01857
1386.77,0.01860
1363.62,0.01860
1340.48,0.01826
1317.33,0.01773
1294.19,0.01798
1271.04,0.01932
1247.9,0.02041
1224.75,0.01964
1201.61,0.01904
1178.46,0.01820
1155.32,0.01781
1132.17,0.01840
1109.03,0.01867
1085.88,0.01844
1062.74,0.02047
1039.59,0.01985
1016.45,0.01969
993.304,0.02208
970.159,0.02018
947.014,0.02020
923.869,0.01949
900.724,0.01974
877.579,0.01962
854.434,0.01872
831.289,0.01913
808.144,0.01881
784.999,0.01888
761.854,0.01883
738.709,0.01918
715.565,0.01821
692.42,0.01767
669.275,0.01890
646.13,0.01693
622.985,0.01543
599.84,0.01613