Folder: fsri_materials_database/01_Data/FDNY_LDF/Cone (part 2)

File: FDNY_LDF_HRRPUA_75.csv
Time after Ignition,FDNY_LDF_R1,FDNY_LDF_R2,FDNY_LDF_R3,Mean,Std. Dev.
0.0,36.7,31.5,25.4,31.2,5.6
0.75,58.9,64.6,48.9,57.5,7.9
1.5,83.9,93.1,74.8,83.9,9.2
2.25,113.9,119.1,112.1,115.0,3.6
3.0,147.1,151.8,147.8,148.9,2.5
3.75,178.0,177.1,176.9,177.3,0.6
4.5,191.8,198.9,201.1,197.3,4.9
5.25,217.1,224.1,227.3,222.8,5.2
6.0,233.2,241.8,245.4,240.2,6.3
6.75,249.6,251.9,261.2,254.2,6.1
7.5,262.0,266.1,270.9,266.3,4.4
8.25,270.4,267.9,272.2,270.2,2.1
9.0,274.9,281.3,288.5,281.6,6.8
9.75,280.9,288.8,280.2,283.3,4.8
10.5,277.6,292.5,290.9,287.0,8.2
11.25,282.1,297.4,292.0,290.5,7.8
12.0,282.3,289.7,294.0,288.6,5.9
12.75,280.6,288.9,291.2,286.9,5.5
13.5,283.0,294.5,293.8,290.4,6.5
14.25,279.3,292.2,292.7,288.1,7.6
15.0,276.7,293.9,290.7,287.1,9.2
15.75,276.9,287.4,287.8,284.0,6.2
16.5,276.0,286.3,283.7,282.0,5.3
17.25,277.9,284.5,285.3,282.5,4.1
18.0,272.9,284.2,280.1,279.0,5.7
18.75,273.5,279.2,280.6,277.8,3.8
19.5,267.2,278.3,277.0,274.2,6.1
20.25,263.1,275.4,275.5,271.3,7.1
21.0,258.1,275.1,263.7,265.6,8.6
21.75,260.6,264.8,268.0,264.5,3.7
22.5,254.4,266.1,267.2,262.6,7.1
23.25,252.9,268.5,262.2,261.2,7.8
24.0,247.2,256.2,255.4,252.9,5.0
24.75,247.2,260.4,260.5,256.0,7.7
25.5,242.2,262.0,257.5,253.9,10.4
26.25,244.1,255.3,254.6,251.3,6.3
27.0,246.1,253.6,246.6,248.7,4.2
27.75,241.1,252.4,253.5,249.0,6.9
28.5,237.1,244.1,250.2,243.8,6.5
29.25,236.1,247.7,244.6,242.8,6.0
30.0,241.0,242.0,246.8,243.3,3.1
30.75,231.6,240.6,238.7,237.0,4.8
31.5,231.9,243.7,236.2,237.3,6.0
32.25,230.5,240.7,235.0,235.4,5.2
33.0,231.4,235.6,239.9,235.6,4.3
33.75,228.6,231.8,233.9,231.4,2.7
34.5,222.7,226.7,231.4,226.9,4.4
35.25,225.9,230.8,226.4,227.7,2.7
36.0,220.2,225.1,226.5,224.0,3.3
36.75,219.6,224.6,224.3,222.8,2.8
37.5,219.7,220.4,219.6,219.9,0.4
38.25,211.6,215.2,219.9,215.6,4.2
39.0,210.9,218.5,216.6,215.3,3.9
39.75,209.8,217.6,218.8,215.4,4.9
40.5,209.3,212.3,215.5,212.4,3.1
41.25,209.3,211.6,214.2,211.7,2.5
42.0,210.5,211.8,213.3,211.9,1.4
42.75,203.8,209.3,203.4,205.5,3.3
43.5,205.0,207.8,209.0,207.3,2.1
44.25,200.9,208.3,204.5,204.6,3.7
45.0,197.6,201.2,208.3,202.4,5.5
45.75,195.9,205.4,208.6,203.3,6.6
46.5,195.8,201.9,202.7,200.1,3.8
47.25,192.5,199.8,198.3,196.9,3.8
48.0,192.2,196.1,199.2,195.8,3.5
48.75,188.8,199.1,194.6,194.2,5.2
49.5,190.3,195.3,195.0,193.5,2.8
50.25,184.4,191.3,191.8,189.2,4.1
51.0,187.1,191.6,192.7,190.5,3.0
51.75,181.8,188.4,190.3,186.8,4.4
52.5,184.4,191.8,188.2,188.1,3.7
53.25,186.1,186.5,186.5,186.4,0.3
54.0,181.2,186.6,187.3,185.1,3.3
54.75,180.5,185.3,186.7,184.2,3.2
55.5,179.9,183.0,184.1,182.3,2.2
56.25,177.8,182.2,176.9,179.0,2.9
57.0,174.9,179.3,179.0,177.7,2.5
57.75,174.3,185.8,176.5,178.9,6.1
58.5,173.3,176.0,175.1,174.8,1.4
59.25,172.9,177.9,178.0,176.3,2.9
60.0,172.8,173.5,175.3,173.9,1.3
60.75,170.6,171.5,172.3,171.5,0.8
61.5,169.0,170.4,173.0,170.8,2.0
62.25,168.0,171.0,171.6,170.2,1.9
63.0,167.9,167.2,169.9,168.3,1.4
63.75,167.8,169.2,168.6,168.5,0.7
64.5,164.0,166.7,167.1,165.9,1.7
65.25,163.2,168.2,166.5,166.0,2.5
66.0,160.1,165.2,164.0,163.1,2.7
66.75,160.8,163.0,163.2,162.4,1.3
67.5,158.6,160.5,163.6,160.9,2.5
68.25,158.9,161.2,162.2,160.8,1.7
69.0,156.3,164.4,160.7,160.5,4.1
69.75,157.4,161.5,159.9,159.6,2.1
70.5,157.1,159.6,159.2,158.6,1.3
71.25,153.5,161.1,159.9,158.2,4.1
72.0,154.5,157.3,155.8,155.9,1.4
72.75,154.6,158.8,155.9,156.4,2.1
73.5,154.5,156.0,155.9,155.5,0.9
74.25,156.6,158.7,157.6,157.6,1.0
75.0,154.5,154.2,154.3,154.3,0.1
75.75,155.4,154.8,152.4,154.2,1.6
76.5,150.8,153.7,151.9,152.1,1.5
77.25,154.3,155.3,150.2,153.3,2.7
78.0,152.4,152.8,152.1,152.5,0.4
78.75,151.2,152.6,152.1,152.0,0.7
79.5,149.7,150.6,150.4,150.2,0.5
80.25,150.4,154.2,152.0,152.2,1.9
81.0,150.7,151.2,150.3,150.7,0.4
81.75,147.8,150.4,150.4,149.5,1.5
82.5,147.6,150.9,148.9,149.1,1.7
83.25,149.0,147.8,147.5,148.1,0.8
84.0,146.8,148.6,148.7,148.0,1.1
84.75,146.7,149.8,149.5,148.7,1.7
85.5,146.4,150.5,150.5,149.1,2.4
86.25,147.2,151.2,148.6,149.0,2.0
87.0,144.6,151.5,148.5,148.2,3.4
87.75,147.1,150.1,147.6,148.2,1.6
88.5,144.7,151.6,151.8,149.4,4.0
89.25,143.8,146.9,146.6,145.8,1.7
90.0,143.9,148.0,148.7,146.8,2.6
90.75,147.6,148.1,148.0,147.9,0.3
91.5,146.6,148.2,151.7,148.8,2.6
92.25,144.6,150.7,149.2,148.2,3.2
93.0,145.2,150.3,149.2,148.2,2.7
93.75,147.3,151.4,150.2,149.6,2.1
94.5,146.4,149.7,146.9,147.6,1.8
95.25,146.8,150.9,151.1,149.6,2.4
96.0,148.0,154.7,149.7,150.8,3.5
96.75,146.3,150.8,149.3,148.8,2.3
97.5,148.1,153.7,153.9,151.9,3.3
98.25,151.5,153.4,153.9,152.9,1.2
99.0,149.9,153.9,157.8,153.9,4.0
99.75,148.6,154.5,155.8,153.0,3.8
100.5,150.2,155.7,157.8,154.6,4.0
101.25,150.2,155.8,159.1,155.0,4.5
102.0,150.9,158.3,160.4,156.5,5.0
102.75,153.3,160.5,165.7,159.9,6.2
103.5,152.6,163.3,165.9,160.6,7.0
104.25,155.5,163.2,168.2,162.3,6.4
105.0,154.4,163.8,168.8,162.3,7.3
105.75,157.8,167.1,171.1,165.3,6.8
106.5,159.8,171.7,171.5,167.7,6.8
107.25,158.9,173.3,173.3,168.5,8.3
108.0,162.2,178.3,171.9,170.8,8.1
108.75,166.2,178.0,173.2,172.5,6.0
109.5,165.7,178.9,176.8,173.8,7.1
110.25,170.7,183.8,176.3,176.9,6.6
111.0,170.1,184.5,176.5,177.0,7.2
111.75,169.3,188.6,183.5,180.5,10.0
112.5,171.8,189.2,182.8,181.3,8.8
113.25,171.0,189.9,181.9,180.9,9.5
114.0,176.7,192.3,186.6,185.2,7.9
114.75,176.8,197.1,183.7,185.8,10.3
115.5,179.8,196.1,186.9,187.6,8.2
116.25,183.9,197.8,189.1,190.3,7.0
117.0,187.0,199.0,188.8,191.6,6.4
117.75,189.6,198.0,189.1,192.2,5.0
118.5,188.6,202.7,194.3,195.2,7.1
119.25,192.9,198.6,194.4,195.3,3.0
120.0,191.6,202.5,200.6,198.3,5.8
120.75,196.0,200.4,197.7,198.0,2.2
121.5,197.4,205.0,201.8,201.4,3.8
122.25,195.9,208.2,204.0,202.7,6.2
123.0,198.1,205.5,205.7,203.1,4.3
123.75,201.7,210.5,210.1,207.4,5.0
124.5,204.6,205.8,210.8,207.1,3.3
125.25,204.5,208.6,211.9,208.3,3.7
126.0,210.5,208.7,213.7,211.0,2.6
126.75,209.0,208.7,218.0,211.9,5.3
127.5,211.1,210.5,221.0,214.2,5.9
128.25,211.8,215.4,218.6,215.2,3.4
129.0,211.2,216.3,222.0,216.5,5.4
129.75,215.5,215.3,218.4,216.4,1.7
130.5,213.7,219.5,215.9,216.4,2.9
131.25,217.1,217.2,221.2,218.5,2.3
132.0,217.2,220.7,222.2,220.0,2.6
132.75,219.2,220.6,223.6,221.1,2.2
133.5,219.5,218.3,223.5,220.4,2.7
134.25,220.2,226.1,226.8,224.4,3.6
135.0,221.5,221.0,223.7,222.1,1.4
135.75,225.7,227.8,226.7,226.7,1.0
136.5,220.7,223.9,225.2,223.3,2.3
137.25,227.4,225.0,226.0,226.1,1.2
138.0,223.7,230.5,229.1,227.8,3.6
138.75,223.8,231.3,233.0,229.4,4.9
139.5,231.1,232.3,233.4,232.3,1.1
140.25,228.9,235.1,240.3,234.8,5.7
141.0,235.5,236.5,235.9,236.0,0.5
141.75,233.1,236.7,239.6,236.5,3.2
142.5,233.9,235.6,239.5,236.3,2.9
143.25,230.7,235.2,244.4,236.8,7.0
144.0,238.3,241.0,242.3,240.5,2.0
144.75,236.3,242.4,247.1,241.9,5.4
145.5,241.2,242.8,240.3,241.4,1.2
146.25,241.5,247.7,243.2,244.2,3.2
147.0,239.1,247.8,242.1,243.0,4.5
147.75,240.5,252.8,244.7,246.0,6.3
148.5,239.6,247.5,245.1,244.1,4.0
149.25,243.9,247.1,245.5,245.5,1.6
150.0,247.5,246.8,247.3,247.2,0.3
150.75,243.1,246.2,243.6,244.3,1.7
151.5,244.6,245.6,243.6,244.6,1.0
152.25,245.7,249.9,244.4,246.7,2.9
153.0,243.1,242.9,240.7,242.2,1.3
153.75,244.3,241.6,240.9,242.3,1.8
154.5,252.7,237.9,240.0,243.5,8.0
155.25,246.6,245.5,242.5,244.8,2.1
156.0,243.0,244.2,236.0,241.1,4.4
156.75,245.6,241.7,236.4,241.2,4.6
157.5,244.1,241.9,235.0,240.4,4.8
158.25,244.3,245.1,234.0,241.1,6.2
159.0,245.0,235.9,231.5,237.4,6.9
159.75,247.1,234.2,229.0,236.8,9.3
160.5,242.9,234.2,230.9,236.0,6.2
161.25,237.7,225.9,227.6,230.4,6.4
162.0,238.1,226.7,220.1,228.3,9.1
162.75,233.9,223.5,220.1,225.8,7.2
163.5,231.9,221.9,211.8,221.8,10.1
164.25,226.3,219.0,210.9,218.7,7.7
165.0,227.7,215.4,205.2,216.1,11.3
165.75,221.0,209.7,197.1,209.3,12.0
166.5,220.8,206.7,193.8,207.1,13.5
167.25,213.7,200.9,187.0,200.5,13.4
168.0,213.2,194.7,180.7,196.2,16.3
168.75,206.1,186.6,176.5,189.7,15.0
169.5,197.7,180.5,169.5,182.6,14.2
170.25,190.3,172.0,165.4,175.9,12.9
171.0,184.3,166.1,156.6,169.0,14.1
171.75,174.5,156.4,149.6,160.2,12.9
172.5,157.5,148.2,140.5,148.7,8.5
173.25,147.4,138.0,128.2,137.9,9.6
174.0,136.5,132.1,117.2,128.6,10.1
174.75,126.5,117.1,107.4,117.0,9.5
175.5,117.0,105.5,96.6,106.4,10.2
176.25,105.7,95.7,88.9,96.8,8.4
177.0,95.6,87.3,80.8,87.9,7.4
177.75,85.0,80.5,73.9,79.8,5.6
178.5,76.8,74.5,71.3,74.2,2.7
179.25,68.7,68.3,65.8,67.6,1.6
180.0,62.3,62.6,60.9,62.0,0.9
180.75,58.2,58.7,56.7,57.9,1.1
181.5,54.0,55.8,54.4,54.7,1.0
182.25,51.5,52.7,50.5,51.6,1.1
183.0,47.9,50.6,48.7,49.1,1.4
183.75,45.3,47.7,47.7,46.9,1.3
184.5,43.4,45.7,45.8,45.0,1.3
185.25,42.3,,45.2,43.8,2.0
186.0,40.6,,,40.6,
186.75,39.9,,,39.9,
187.5,39.1,,,39.1,
188.25,38.1,,,38.1,
189.0,37.5,,,37.5,
189.75,36.7,,,36.7,
190.5,36.6,,,36.6,
191.25,35.6,,,35.6,
192.0,35.2,,,35.2,
192.75,34.8,,,34.8,
193.5,34.5,,,34.5,
194.25,34.3,,,34.3,
195.0,35.0,,,35.0,
195.5,33.8,,,33.8,