Folder: fsri_materials_database/01_Data/Concrete_Block/FTIR/IS

Note: README.md
# Materials and Products Database
### Repository of materials and products properties and fire test data to improve fire modeling and fire investigation.

This project was supported in part by Award No. 2019-DU-BX-0018, awarded by the National Institute of Justice, Office of Justice Programs, U.S. Department of Justice. The opinions, findings, and conclusions or recommendations expressed in this publication / program / exhibition are those of the author(s) and do not necessarily reflect those of the Department of Justice.

***
***

__Cite this database:__ "McKinnon, M., Weinschenk, C., Dow, N., DiDomizio, M., and Madrzykowski, D. Materials and Products Database (Version 1.0.0), Fire Safety Research Institute, UL Research Institutes. Columbia, MD 21045, 2023."

__Cite the Technical Reference Guide:__ "McKinnon, M., Weinschenk, C., and Madrzykowski, D. Materials and Products Database - Technical Reference Guide, Fire Safety Research Institute, UL Research Institutes. Columbia, MD 21045, 2023."

__Cite the User Guide:__ "McKinnon, M., and Weinschenk, C. Materials and Products Database - User Guide, Fire Safety Research Institute, UL Research Institutes. Columbia, MD 21045, 2023."

***
***

## Database Structure

## 01_Data/
Raw data generated from each apparatus are included here in plain-text format. The data is organized first by material, next by the short name of test apparatus used, and where applicable additional filtering by test settings.

### Test Apparatus and Data File Structure
- __Cone Calorimeter__ (Cone)
    + Data file structure includes the material, the short name for the apparatus, heat flux setting and scan/scalar, date of test, and replicate number. Scan is for the raw output data and scalar is for the initial conditions and high-level test parameters. 
        * Example: __MDF_Cone_HF25scalar_210323_R1__ stands for the first replicate of scalar data generated from a medium density fiber board test in cone calorimeter exposed to 25 kW/m<sup>2</sup> on March 23, 2021.
    + A _Cone_Notes.csv_ is generated for each material from the __plot_Cone_data.py__ script. For materials whose experiments deviated from typical behavior relevant pictures are included in the respective material directory.
- __Fourier Transform Infrared Spectrometer__ (FTIR)
    + The FTIR directory contains subdirectories for the Attenuated Total Reflectance method (ATR) and the Integrating Sphere (IS)
    + Data file structure for the ATR experiment files includes the material, the abbreviated name for the apparatus, date of test, and replicate number. 
        * Example: __MDF_ATR_210323_R5__ stands for the fifth replicate of data collected with the ATR accessory conducted on June 8, 2021.
    + Data file structure for the IS experiment files includes the material, the abbreviated name for the apparatus, the measurand, whether the test is a sample measurement or standard reference, date of test, and replicate number.
        * Example: __OSB_IS_REFLECT_MEAS_2

File: Concrete_Block_IS_S_221214_R1.dpt
7497.03,0.26596
7473.89,0.27284
7450.74,0.28289
7427.6,0.28162
7404.45,0.26955
7381.31,0.28395
7358.16,0.27519
7335.02,0.27264
7311.87,0.28137
7288.73,0.28134
7265.58,0.27287
7242.44,0.27050
7219.29,0.28552
7196.15,0.27425
7173,0.27144
7149.86,0.27465
7126.71,0.27499
7103.57,0.26529
7080.42,0.27383
7057.28,0.26659
7034.13,0.27371
7010.99,0.27818
6987.84,0.27456
6964.7,0.27511
6941.55,0.27360
6918.41,0.27360
6895.26,0.27632
6872.12,0.26981
6848.97,0.27550
6825.83,0.27018
6802.68,0.27224
6779.54,0.26961
6756.39,0.27173
6733.25,0.27265
6710.1,0.26735
6686.96,0.27781
6663.82,0.27539
6640.67,0.27706
6617.53,0.27057
6594.38,0.27373
6571.24,0.27286
6548.09,0.27254
6524.95,0.27230
6501.8,0.27672
6478.66,0.27414
6455.51,0.27343
6432.37,0.27492
6409.22,0.27502
6386.08,0.27515
6362.93,0.27271
6339.79,0.27197
6316.64,0.27616
6293.5,0.27224
6270.35,0.27514
6247.21,0.27530
6224.06,0.27248
6200.92,0.27546
6177.77,0.27408
6154.63,0.27551
6131.48,0.27683
6108.34,0.27383
6085.19,0.27641
6062.05,0.27224
6038.9,0.27401
6015.76,0.27118
5992.61,0.27616
5969.47,0.27298
5946.32,0.27424
5923.18,0.27580
5900.03,0.27272
5876.89,0.27481
5853.74,0.27503
5830.6,0.27397
5807.45,0.27327
5784.31,0.27330
5761.16,0.27409
5738.02,0.27308
5714.87,0.27152
5691.73,0.27302
5668.58,0.27400
5645.44,0.27157
5622.29,0.27258
5599.15,0.27293
5576,0.27326
5552.86,0.27153
5529.71,0.27246
5506.57,0.27400
5483.42,0.27008
5460.28,0.27048
5437.13,0.27146
5413.99,0.27049
5390.84,0.27248
5367.7,0.26942
5344.55,0.26742
5321.41,0.26696
5298.26,0.26306
5275.12,0.26063
5251.97,0.25426
5228.83,0.25076
5205.68,0.24639
5182.54,0.24514
5159.39,0.24742
5136.25,0.24758
5113.1,0.24960
5089.96,0.25125
5066.81,0.24996
5043.67,0.25295
5020.52,0.25362
4997.38,0.25489
4974.23,0.25675
4951.09,0.25768
4927.94,0.25867
4904.8,0.25917
4881.65,0.26144
4858.51,0.26024
4835.36,0.25983
4812.22,0.26032
4789.07,0.26129
4765.93,0.26072
4742.78,0.26098
4719.64,0.26172
4696.49,0.26080
4673.35,0.26067
4650.2,0.25818
4627.06,0.25786
4603.92,0.25714
4580.77,0.25722
4557.63,0.25550
4534.48,0.25245
4511.34,0.25084
4488.19,0.24966
4465.05,0.24922
4441.9,0.24824
4418.76,0.24507
4395.61,0.24327
4372.47,0.24107
4349.32,0.23792
4326.18,0.23451
4303.03,0.23192
4279.89,0.23120
4256.74,0.23734
4233.6,0.24154
4210.45,0.24254
4187.31,0.24045
4164.16,0.23744
4141.02,0.23487
4117.87,0.22926
4094.73,0.22351
4071.58,0.21748
4048.44,0.21312
4025.29,0.20846
4002.15,0.20208
3979,0.19874
3955.86,0.19804
3932.71,0.20487
3909.57,0.21553
3886.42,0.21854
3863.28,0.21892
3840.13,0.21874
3816.99,0.21662
3793.84,0.21306
3770.7,0.20726
3747.55,0.19711
3724.41,0.17350
3701.26,0.12833
3678.12,0.11658
3654.97,0.09394
3631.83,0.07784
3608.68,0.07096
3585.54,0.06986
3562.39,0.06757
3539.25,0.06617
3516.1,0.06459
3492.96,0.06204
3469.81,0.06167
3446.67,0.06014
3423.52,0.05949
3400.38,0.05886
3377.23,0.05958
3354.09,0.05958
3330.94,0.06077
3307.8,0.06271
3284.65,0.06204
3261.51,0.06351
3238.36,0.06525
3215.22,0.06584
3192.07,0.06821
3168.93,0.07041
3145.78,0.07311
3122.64,0.07462
3099.49,0.07663
3076.35,0.07783
3053.2,0.07801
3030.06,0.07174
3006.91,0.07041
2983.77,0.06671
2960.62,0.06928
2937.48,0.06913
2914.33,0.06845
2891.19,0.06677
2868.04,0.06751
2844.9,0.08193
2821.75,0.09760
2798.61,0.10510
2775.46,0.11066
2752.32,0.11444
2729.17,0.11601
2706.03,0.11638
2682.88,0.11396
2659.74,0.10234
2636.59,0.08960
2613.45,0.08385
2590.3,0.07784
2567.16,0.07352
2544.02,0.06537
2520.87,0.05662
2497.73,0.07115
2474.58,0.09622
2451.44,0.11022
2428.29,0.11542
2405.15,0.11682
2382,0.11827
2358.86,0.11529
2335.71,0.11268
2312.57,0.11184
2289.42,0.11239
2266.28,0.10607
2243.13,0.10218
2219.99,0.10133
2196.84,0.09822
2173.7,0.09309
2150.55,0.08872
2127.41,0.09450
2104.26,0.10021
2081.12,0.09976
2057.97,0.09776
2034.83,0.09327
2011.68,0.08943
1988.54,0.08650
1965.39,0.08304
1942.25,0.08209
1919.1,0.07838
1895.96,0.07138
1872.81,0.06602
1849.67,0.06146
1826.52,0.04826
1803.38,0.03963
1780.23,0.04514
1757.09,0.04683
1733.94,0.04433
1710.8,0.04242
1687.65,0.03869
1664.51,0.03683
1641.36,0.03748
1618.22,0.04428
1595.07,0.05899
1571.93,0.10943
1548.78,0.12010
1525.64,0.10866
1502.49,0.09878
1479.35,0.09267
1456.2,0.08831
1433.06,0.08782
1409.91,0.08139
1386.77,0.07085
1363.62,0.07626
1340.48,0.08282
1317.33,0.08636
1294.19,0.08880
1271.04,0.09144
1247.9,0.09290
1224.75,0.09577
1201.61,0.08629
1178.46,0.07369
1155.32,0.06732
1132.17,0.07007
1109.03,0.06880
1085.88,0.06778
1062.74,0.06162
1039.59,0.05316
1016.45,0.05020
993.304,0.05048
970.159,0.05232
947.014,0.05734
923.869,0.05838
900.724,0.07245
877.579,0.05868
854.434,0.05233
831.289,0.05080
808.144,0.05008
784.999,0.05091
761.854,0.04717
738.709,0.03939
715.565,0.03796
692.42,0.04198
669.275,0.04036
646.13,0.03790
622.985,0.03644
599.84,0.03373

File: Concrete_Block_IS_S_221214_R2.dpt
7497.03,0.27788
7473.89,0.28020
7450.74,0.27698
7427.6,0.27538
7404.45,0.27078
7381.31,0.28019
7358.16,0.27338
7335.02,0.27682
7311.87,0.27401
7288.73,0.26705
7265.58,0.28595
7242.44,0.27784
7219.29,0.27341
7196.15,0.27575
7173,0.27299
7149.86,0.26984
7126.71,0.26696
7103.57,0.27528
7080.42,0.27661
7057.28,0.27365
7034.13,0.27562
7010.99,0.27125
6987.84,0.26722
6964.7,0.27071
6941.55,0.27187
6918.41,0.27722
6895.26,0.26988
6872.12,0.27006
6848.97,0.27427
6825.83,0.27520
6802.68,0.27237
6779.54,0.27346
6756.39,0.27605
6733.25,0.26677
6710.1,0.27551
6686.96,0.26875
6663.82,0.27762
6640.67,0.27330
6617.53,0.26923
6594.38,0.27578
6571.24,0.27743
6548.09,0.28042
6524.95,0.27552
6501.8,0.27674
6478.66,0.27170
6455.51,0.27491
6432.37,0.27702
6409.22,0.27521
6386.08,0.27147
6362.93,0.27746
6339.79,0.27604
6316.64,0.27565
6293.5,0.27429
6270.35,0.27790
6247.21,0.27497
6224.06,0.27428
6200.92,0.27540
6177.77,0.27820
6154.63,0.27531
6131.48,0.27304
6108.34,0.27524
6085.19,0.27275
6062.05,0.27700
6038.9,0.27475
6015.76,0.27362
5992.61,0.27721
5969.47,0.27607
5946.32,0.27540
5923.18,0.27468
5900.03,0.27380
5876.89,0.27258
5853.74,0.27299
5830.6,0.27400
5807.45,0.27425
5784.31,0.27376
5761.16,0.27491
5738.02,0.27345
5714.87,0.27387
5691.73,0.27138
5668.58,0.27324
5645.44,0.27328
5622.29,0.27198
5599.15,0.27500
5576,0.27237
5552.86,0.27009
5529.71,0.27246
5506.57,0.27329
5483.42,0.27271
5460.28,0.26983
5437.13,0.27141
5413.99,0.27097
5390.84,0.26920
5367.7,0.26860
5344.55,0.26794
5321.41,0.26659
5298.26,0.26219
5275.12,0.26003
5251.97,0.25542
5228.83,0.25046
5205.68,0.24934
5182.54,0.24823
5159.39,0.24726
5136.25,0.24873
5113.1,0.24993
5089.96,0.25032
5066.81,0.25266
5043.67,0.25376
5020.52,0.25336
4997.38,0.25611
4974.23,0.25725
4951.09,0.25837
4927.94,0.25952
4904.8,0.26053
4881.65,0.26019
4858.51,0.26039
4835.36,0.26046
4812.22,0.26139
4789.07,0.26069
4765.93,0.26113
4742.78,0.26120
4719.64,0.26049
4696.49,0.25946
4673.35,0.25989
4650.2,0.25919
4627.06,0.25880
4603.92,0.25769
4580.77,0.25672
4557.63,0.25478
4534.48,0.25357
4511.34,0.25115
4488.19,0.25012
4465.05,0.24908
4441.9,0.24806
4418.76,0.24541
4395.61,0.24278
4372.47,0.24108
4349.32,0.23826
4326.18,0.23623
4303.03,0.23149
4279.89,0.23283
4256.74,0.23776
4233.6,0.24201
4210.45,0.24336
4187.31,0.24028
4164.16,0.23823
4141.02,0.23472
4117.87,0.22961
4094.73,0.22399
4071.58,0.21783
4048.44,0.21269
4025.29,0.20845
4002.15,0.20346
3979,0.19935
3955.86,0.19812
3932.71,0.20497
3909.57,0.21529
3886.42,0.21979
3863.28,0.21937
3840.13,0.21895
3816.99,0.21721
3793.84,0.21327
3770.7,0.20789
3747.55,0.19726
3724.41,0.17290
3701.26,0.12880
3678.12,0.11704
3654.97,0.09430
3631.83,0.07807
3608.68,0.07113
3585.54,0.06951
3562.39,0.06781
3539.25,0.06661
3516.1,0.06456
3492.96,0.06354
3469.81,0.06171
3446.67,0.06127
3423.52,0.05984
3400.38,0.05944
3377.23,0.05919
3354.09,0.06147
3330.94,0.06108
3307.8,0.06208
3284.65,0.06297
3261.51,0.06408
3238.36,0.06448
3215.22,0.06607
3192.07,0.06888
3168.93,0.07020
3145.78,0.07307
3122.64,0.07554
3099.49,0.07674
3076.35,0.07822
3053.2,0.07817
3030.06,0.07231
3006.91,0.07104
2983.77,0.06646
2960.62,0.06932
2937.48,0.06893
2914.33,0.06829
2891.19,0.06636
2868.04,0.06746
2844.9,0.08229
2821.75,0.09757
2798.61,0.10550
2775.46,0.11131
2752.32,0.11475
2729.17,0.11659
2706.03,0.11644
2682.88,0.11402
2659.74,0.10283
2636.59,0.08958
2613.45,0.08413
2590.3,0.07755
2567.16,0.07328
2544.02,0.06570
2520.87,0.05652
2497.73,0.07136
2474.58,0.09623
2451.44,0.11078
2428.29,0.11552
2405.15,0.11722
2382,0.11794
2358.86,0.11548
2335.71,0.11304
2312.57,0.11192
2289.42,0.11252
2266.28,0.10660
2243.13,0.10271
2219.99,0.10138
2196.84,0.09878
2173.7,0.09385
2150.55,0.08885
2127.41,0.09527
2104.26,0.10081
2081.12,0.10031
2057.97,0.09861
2034.83,0.09290
2011.68,0.08964
1988.54,0.08630
1965.39,0.08306
1942.25,0.08236
1919.1,0.07846
1895.96,0.07098
1872.81,0.06579
1849.67,0.06120
1826.52,0.04820
1803.38,0.03967
1780.23,0.04499
1757.09,0.04702
1733.94,0.04413
1710.8,0.04198
1687.65,0.03843
1664.51,0.03677
1641.36,0.03760
1618.22,0.04388
1595.07,0.05947
1571.93,0.10968
1548.78,0.12025
1525.64,0.10837
1502.49,0.09847
1479.35,0.09261
1456.2,0.08853
1433.06,0.08736
1409.91,0.08133
1386.77,0.07102
1363.62,0.07642
1340.48,0.08246
1317.33,0.08603
1294.19,0.08896
1271.04,0.09132
1247.9,0.09311
1224.75,0.09554
1201.61,0.08615
1178.46,0.07398
1155.32,0.06704
1132.17,0.07001
1109.03,0.06855
1085.88,0.06811
1062.74,0.06181
1039.59,0.05336
1016.45,0.05003
993.304,0.05008
970.159,0.05240
947.014,0.05714
923.869,0.05818
900.724,0.07250
877.579,0.05798
854.434,0.05220
831.289,0.05071
808.144,0.05023
784.999,0.05226
761.854,0.04768
738.709,0.04008
715.565,0.03744
692.42,0.04302
669.275,0.04094
646.13,0.03880
622.985,0.03497
599.84,0.03356

File: Concrete_Block_IS_S_221214_R3.dpt
7497.03,0.27148
7473.89,0.27434
7450.74,0.27767
7427.6,0.28965
7404.45,0.28621
7381.31,0.27318
7358.16,0.27551
7335.02,0.26854
7311.87,0.27455
7288.73,0.26895
7265.58,0.27799
7242.44,0.27838
7219.29,0.28040
7196.15,0.27134
7173,0.27397
7149.86,0.27860
7126.71,0.27462
7103.57,0.26865
7080.42,0.26771
7057.28,0.27445
7034.13,0.27239
7010.99,0.27360
6987.84,0.27424
6964.7,0.27747
6941.55,0.27424
6918.41,0.27587
6895.26,0.27285
6872.12,0.27410
6848.97,0.27063
6825.83,0.27445
6802.68,0.27386
6779.54,0.27391
6756.39,0.27338
6733.25,0.27213
6710.1,0.27695
6686.96,0.27132
6663.82,0.27468
6640.67,0.27046
6617.53,0.27748
6594.38,0.27143
6571.24,0.27800
6548.09,0.27914
6524.95,0.26916
6501.8,0.27458
6478.66,0.27665
6455.51,0.27754
6432.37,0.27836
6409.22,0.27517
6386.08,0.27600
6362.93,0.27273
6339.79,0.27410
6316.64,0.27527
6293.5,0.27801
6270.35,0.27598
6247.21,0.27592
6224.06,0.27554
6200.92,0.27108
6177.77,0.27233
6154.63,0.27459
6131.48,0.27699
6108.34,0.27401
6085.19,0.27329
6062.05,0.27573
6038.9,0.27616
6015.76,0.27426
5992.61,0.27354
5969.47,0.27484
5946.32,0.27615
5923.18,0.27480
5900.03,0.27415
5876.89,0.27351
5853.74,0.27582
5830.6,0.27518
5807.45,0.27548
5784.31,0.27500
5761.16,0.27371
5738.02,0.27397
5714.87,0.27286
5691.73,0.27608
5668.58,0.27192
5645.44,0.27409
5622.29,0.27332
5599.15,0.27423
5576,0.27432
5552.86,0.27180
5529.71,0.27377
5506.57,0.27296
5483.42,0.27049
5460.28,0.27233
5437.13,0.27312
5413.99,0.27048
5390.84,0.27028
5367.7,0.26922
5344.55,0.26863
5321.41,0.26602
5298.26,0.26474
5275.12,0.26153
5251.97,0.25595
5228.83,0.25135
5205.68,0.25041
5182.54,0.24709
5159.39,0.24846
5136.25,0.24843
5113.1,0.25017
5089.96,0.25168
5066.81,0.25355
5043.67,0.25469
5020.52,0.25510
4997.38,0.25724
4974.23,0.25835
4951.09,0.25814
4927.94,0.25886
4904.8,0.25894
4881.65,0.26100
4858.51,0.26133
4835.36,0.26098
4812.22,0.26225
4789.07,0.26147
4765.93,0.26092
4742.78,0.26131
4719.64,0.26146
4696.49,0.26049
4673.35,0.25995
4650.2,0.25936
4627.06,0.25747
4603.92,0.25854
4580.77,0.25752
4557.63,0.25710
4534.48,0.25294
4511.34,0.25104
4488.19,0.24977
4465.05,0.24966
4441.9,0.24792
4418.76,0.24558
4395.61,0.24349
4372.47,0.24096
4349.32,0.23866
4326.18,0.23551
4303.03,0.23285
4279.89,0.23321
4256.74,0.23745
4233.6,0.24215
4210.45,0.24290
4187.31,0.24117
4164.16,0.23857
4141.02,0.23621
4117.87,0.22964
4094.73,0.22420
4071.58,0.21885
4048.44,0.21373
4025.29,0.20890
4002.15,0.20297
3979,0.19925
3955.86,0.19862
3932.71,0.20579
3909.57,0.21654
3886.42,0.22000
3863.28,0.22010
3840.13,0.21902
3816.99,0.21731
3793.84,0.21415
3770.7,0.20838
3747.55,0.19789
3724.41,0.17272
3701.26,0.12922
3678.12,0.11718
3654.97,0.09331
3631.83,0.07926
3608.68,0.07110
3585.54,0.07045
3562.39,0.06830
3539.25,0.06626
3516.1,0.06465
3492.96,0.06325
3469.81,0.06273
3446.67,0.06167
3423.52,0.06035
3400.38,0.05946
3377.23,0.05968
3354.09,0.06090
3330.94,0.06248
3307.8,0.06307
3284.65,0.06330
3261.51,0.06475
3238.36,0.06566
3215.22,0.06671
3192.07,0.06804
3168.93,0.07152
3145.78,0.07373
3122.64,0.07570
3099.49,0.07764
3076.35,0.07858
3053.2,0.07902
3030.06,0.07205
3006.91,0.07116
2983.77,0.06693
2960.62,0.06970
2937.48,0.06900
2914.33,0.06885
2891.19,0.06725
2868.04,0.06800
2844.9,0.08254
2821.75,0.09824
2798.61,0.10527
2775.46,0.11158
2752.32,0.11513
2729.17,0.11653
2706.03,0.11671
2682.88,0.11449
2659.74,0.10286
2636.59,0.08966
2613.45,0.08427
2590.3,0.07786
2567.16,0.07384
2544.02,0.06599
2520.87,0.05635
2497.73,0.07112
2474.58,0.09628
2451.44,0.11052
2428.29,0.11615
2405.15,0.11761
2382,0.11896
2358.86,0.11620
2335.71,0.11327
2312.57,0.11237
2289.42,0.11325
2266.28,0.10678
2243.13,0.10295
2219.99,0.10205
2196.84,0.09914
2173.7,0.09392
2150.55,0.08925
2127.41,0.09525
2104.26,0.10119
2081.12,0.10047
2057.97,0.09882
2034.83,0.09331
2011.68,0.09001
1988.54,0.08684
1965.39,0.08362
1942.25,0.08323
1919.1,0.07836
1895.96,0.07143
1872.81,0.06566
1849.67,0.06175
1826.52,0.04839
1803.38,0.03956
1780.23,0.04506
1757.09,0.04704
1733.94,0.04442
1710.8,0.04264
1687.65,0.03878
1664.51,0.03721
1641.36,0.03754
1618.22,0.04395
1595.07,0.05944
1571.93,0.10962
1548.78,0.12060
1525.64,0.10848
1502.49,0.09886
1479.35,0.09248
1456.2,0.08866
1433.06,0.08788
1409.91,0.08141
1386.77,0.07131
1363.62,0.07637
1340.48,0.08300
1317.33,0.08643
1294.19,0.08897
1271.04,0.09122
1247.9,0.09330
1224.75,0.09551
1201.61,0.08577
1178.46,0.07373
1155.32,0.06693
1132.17,0.06994
1109.03,0.06919
1085.88,0.06840
1062.74,0.06161
1039.59,0.05283
1016.45,0.05038
993.304,0.04998
970.159,0.05367
947.014,0.05693
923.869,0.05799
900.724,0.07265
877.579,0.05878
854.434,0.05266
831.289,0.05139
808.144,0.05087
784.999,0.05130
761.854,0.04712
738.709,0.03974
715.565,0.03772
692.42,0.04162
669.275,0.04132
646.13,0.03680
622.985,0.03519
599.84,0.03525

File: Concrete_Block_IS_S_221214_R4.dpt
7497.03,0.27616
7473.89,0.28476
7450.74,0.27193
7427.6,0.28209
7404.45,0.27833
7381.31,0.27198
7358.16,0.27335
7335.02,0.27336
7311.87,0.27659
7288.73,0.27556
7265.58,0.27154
7242.44,0.27796
7219.29,0.28119
7196.15,0.27824
7173,0.27716
7149.86,0.27581
7126.71,0.27206
7103.57,0.27308
7080.42,0.27109
7057.28,0.26873
7034.13,0.27153
7010.99,0.27152
6987.84,0.27515
6964.7,0.27153
6941.55,0.27332
6918.41,0.28029
6895.26,0.27338
6872.12,0.27705
6848.97,0.27471
6825.83,0.27373
6802.68,0.26905
6779.54,0.27523
6756.39,0.26952
6733.25,0.27186
6710.1,0.26585
6686.96,0.27363
6663.82,0.28122
6640.67,0.27741
6617.53,0.27316
6594.38,0.27273
6571.24,0.27687
6548.09,0.27212
6524.95,0.27549
6501.8,0.26999
6478.66,0.27453
6455.51,0.27186
6432.37,0.27472
6409.22,0.27224
6386.08,0.27150
6362.93,0.27271
6339.79,0.27441
6316.64,0.27326
6293.5,0.27594
6270.35,0.27674
6247.21,0.27620
6224.06,0.27508
6200.92,0.27453
6177.77,0.27169
6154.63,0.27416
6131.48,0.27747
6108.34,0.27479
6085.19,0.27525
6062.05,0.27289
6038.9,0.27542
6015.76,0.27283
5992.61,0.27434
5969.47,0.27340
5946.32,0.27375
5923.18,0.27632
5900.03,0.27403
5876.89,0.27407
5853.74,0.27502
5830.6,0.27514
5807.45,0.27345
5784.31,0.27478
5761.16,0.27409
5738.02,0.27287
5714.87,0.27386
5691.73,0.27472
5668.58,0.27204
5645.44,0.27304
5622.29,0.27281
5599.15,0.27414
5576,0.27150
5552.86,0.27161
5529.71,0.27250
5506.57,0.27177
5483.42,0.27268
5460.28,0.27220
5437.13,0.27285
5413.99,0.27238
5390.84,0.27096
5367.7,0.27118
5344.55,0.26892
5321.41,0.26740
5298.26,0.26580
5275.12,0.26276
5251.97,0.25561
5228.83,0.25086
5205.68,0.24767
5182.54,0.24735
5159.39,0.24924
5136.25,0.24830
5113.1,0.25128
5089.96,0.25239
5066.81,0.25331
5043.67,0.25486
5020.52,0.25480
4997.38,0.25569
4974.23,0.25671
4951.09,0.25900
4927.94,0.26046
4904.8,0.26026
4881.65,0.26064
4858.51,0.26072
4835.36,0.26183
4812.22,0.26090
4789.07,0.26210
4765.93,0.26172
4742.78,0.26158
4719.64,0.26178
4696.49,0.26099
4673.35,0.26003
4650.2,0.25976
4627.06,0.25908
4603.92,0.25776
4580.77,0.25732
4557.63,0.25557
4534.48,0.25297
4511.34,0.25128
4488.19,0.24978
4465.05,0.25004
4441.9,0.24816
4418.76,0.24612
4395.61,0.24346
4372.47,0.24148
4349.32,0.23795
4326.18,0.23574
4303.03,0.23285
4279.89,0.23255
4256.74,0.23788
4233.6,0.24252
4210.45,0.24347
4187.31,0.24173
4164.16,0.23880
4141.02,0.23586
4117.87,0.23048
4094.73,0.22461
4071.58,0.21858
4048.44,0.21336
4025.29,0.20921
4002.15,0.20421
3979,0.19970
3955.86,0.19879
3932.71,0.20573
3909.57,0.21570
3886.42,0.21994
3863.28,0.22023
3840.13,0.22015
3816.99,0.21752
3793.84,0.21387
3770.7,0.20866
3747.55,0.19715
3724.41,0.17322
3701.26,0.12953
3678.12,0.11760
3654.97,0.09426
3631.83,0.07903
3608.68,0.07177
3585.54,0.06995
3562.39,0.06854
3539.25,0.06659
3516.1,0.06488
3492.96,0.06420
3469.81,0.06236
3446.67,0.06146
3423.52,0.06048
3400.38,0.05952
3377.23,0.06059
3354.09,0.06111
3330.94,0.06177
3307.8,0.06293
3284.65,0.06377
3261.51,0.06536
3238.36,0.06630
3215.22,0.06640
3192.07,0.06904
3168.93,0.07152
3145.78,0.07407
3122.64,0.07628
3099.49,0.07757
3076.35,0.07900
3053.2,0.07872
3030.06,0.07236
3006.91,0.07154
2983.77,0.06599
2960.62,0.06980
2937.48,0.06933
2914.33,0.06864
2891.19,0.06685
2868.04,0.06806
2844.9,0.08301
2821.75,0.09802
2798.61,0.10611
2775.46,0.11209
2752.32,0.11524
2729.17,0.11674
2706.03,0.11666
2682.88,0.11436
2659.74,0.10295
2636.59,0.08961
2613.45,0.08419
2590.3,0.07806
2567.16,0.07329
2544.02,0.06571
2520.87,0.05637
2497.73,0.07079
2474.58,0.09659
2451.44,0.11048
2428.29,0.11593
2405.15,0.11754
2382,0.11898
2358.86,0.11662
2335.71,0.11303
2312.57,0.11213
2289.42,0.11299
2266.28,0.10673
2243.13,0.10294
2219.99,0.10187
2196.84,0.09947
2173.7,0.09414
2150.55,0.08936
2127.41,0.09540
2104.26,0.10108
2081.12,0.10058
2057.97,0.09883
2034.83,0.09347
2011.68,0.08990
1988.54,0.08675
1965.39,0.08359
1942.25,0.08302
1919.1,0.07828
1895.96,0.07129
1872.81,0.06591
1849.67,0.06162
1826.52,0.04813
1803.38,0.03989
1780.23,0.04501
1757.09,0.04695
1733.94,0.04447
1710.8,0.04224
1687.65,0.03844
1664.51,0.03714
1641.36,0.03754
1618.22,0.04456
1595.07,0.05943
1571.93,0.10968
1548.78,0.12028
1525.64,0.10844
1502.49,0.09872
1479.35,0.09253
1456.2,0.08897
1433.06,0.08748
1409.91,0.08133
1386.77,0.07101
1363.62,0.07626
1340.48,0.08295
1317.33,0.08609
1294.19,0.08916
1271.04,0.09155
1247.9,0.09312
1224.75,0.09550
1201.61,0.08610
1178.46,0.07379
1155.32,0.06736
1132.17,0.07023
1109.03,0.06872
1085.88,0.06875
1062.74,0.06182
1039.59,0.05272
1016.45,0.04989
993.304,0.05024
970.159,0.05289
947.014,0.05722
923.869,0.05839
900.724,0.07250
877.579,0.05818
854.434,0.05251
831.289,0.05123
808.144,0.05010
784.999,0.05198
761.854,0.04677
738.709,0.03969
715.565,0.03761
692.42,0.04182
669.275,0.04003
646.13,0.03912
622.985,0.03675
599.84,0.03230