Folder: fsri_materials_database/01_Data/Concrete_Block/FTIR/IS (part 2)

File: Concrete_Block_IS_S_221214_R5.dpt
7497.03,0.26903
7473.89,0.27519
7450.74,0.27225
7427.6,0.28153
7404.45,0.27733
7381.31,0.26575
7358.16,0.28513
7335.02,0.28150
7311.87,0.28023
7288.73,0.28418
7265.58,0.28170
7242.44,0.27810
7219.29,0.27062
7196.15,0.27493
7173,0.27546
7149.86,0.27772
7126.71,0.27406
7103.57,0.27009
7080.42,0.26564
7057.28,0.27678
7034.13,0.27034
7010.99,0.27049
6987.84,0.27108
6964.7,0.27331
6941.55,0.27478
6918.41,0.27327
6895.26,0.27064
6872.12,0.27489
6848.97,0.27571
6825.83,0.27468
6802.68,0.27096
6779.54,0.27538
6756.39,0.28103
6733.25,0.27671
6710.1,0.27388
6686.96,0.27562
6663.82,0.26969
6640.67,0.27393
6617.53,0.27390
6594.38,0.27733
6571.24,0.27699
6548.09,0.27543
6524.95,0.27431
6501.8,0.27404
6478.66,0.27359
6455.51,0.27576
6432.37,0.27580
6409.22,0.27802
6386.08,0.27522
6362.93,0.27470
6339.79,0.27585
6316.64,0.27529
6293.5,0.27578
6270.35,0.27864
6247.21,0.27692
6224.06,0.27687
6200.92,0.27788
6177.77,0.27645
6154.63,0.27965
6131.48,0.27434
6108.34,0.27592
6085.19,0.27406
6062.05,0.27691
6038.9,0.27513
6015.76,0.27605
5992.61,0.27502
5969.47,0.27313
5946.32,0.27545
5923.18,0.27501
5900.03,0.27372
5876.89,0.27891
5853.74,0.27452
5830.6,0.27669
5807.45,0.27442
5784.31,0.27724
5761.16,0.27581
5738.02,0.27239
5714.87,0.27576
5691.73,0.27265
5668.58,0.27557
5645.44,0.27522
5622.29,0.27369
5599.15,0.27496
5576,0.27444
5552.86,0.27483
5529.71,0.27218
5506.57,0.27392
5483.42,0.27319
5460.28,0.27398
5437.13,0.27221
5413.99,0.27176
5390.84,0.27335
5367.7,0.27245
5344.55,0.26904
5321.41,0.26675
5298.26,0.26662
5275.12,0.26224
5251.97,0.25704
5228.83,0.25146
5205.68,0.24990
5182.54,0.24854
5159.39,0.24800
5136.25,0.25058
5113.1,0.25261
5089.96,0.25357
5066.81,0.25358
5043.67,0.25501
5020.52,0.25634
4997.38,0.25799
4974.23,0.26001
4951.09,0.26122
4927.94,0.26044
4904.8,0.26117
4881.65,0.26224
4858.51,0.26209
4835.36,0.26134
4812.22,0.26205
4789.07,0.26237
4765.93,0.26289
4742.78,0.26256
4719.64,0.26335
4696.49,0.26144
4673.35,0.26171
4650.2,0.26070
4627.06,0.25966
4603.92,0.25963
4580.77,0.25891
4557.63,0.25764
4534.48,0.25460
4511.34,0.25217
4488.19,0.25079
4465.05,0.25124
4441.9,0.25035
4418.76,0.24691
4395.61,0.24408
4372.47,0.24268
4349.32,0.24031
4326.18,0.23709
4303.03,0.23451
4279.89,0.23439
4256.74,0.23866
4233.6,0.24390
4210.45,0.24542
4187.31,0.24321
4164.16,0.24067
4141.02,0.23665
4117.87,0.23187
4094.73,0.22541
4071.58,0.21967
4048.44,0.21521
4025.29,0.21056
4002.15,0.20452
3979,0.20070
3955.86,0.19975
3932.71,0.20688
3909.57,0.21709
3886.42,0.22092
3863.28,0.22095
3840.13,0.22034
3816.99,0.21883
3793.84,0.21477
3770.7,0.20979
3747.55,0.19819
3724.41,0.17419
3701.26,0.12991
3678.12,0.11783
3654.97,0.09521
3631.83,0.07934
3608.68,0.07179
3585.54,0.07078
3562.39,0.06971
3539.25,0.06678
3516.1,0.06519
3492.96,0.06391
3469.81,0.06263
3446.67,0.06164
3423.52,0.06076
3400.38,0.06008
3377.23,0.06078
3354.09,0.06170
3330.94,0.06212
3307.8,0.06359
3284.65,0.06415
3261.51,0.06477
3238.36,0.06613
3215.22,0.06737
3192.07,0.06980
3168.93,0.07162
3145.78,0.07498
3122.64,0.07640
3099.49,0.07878
3076.35,0.07917
3053.2,0.07893
3030.06,0.07314
3006.91,0.07175
2983.77,0.06697
2960.62,0.06966
2937.48,0.07007
2914.33,0.06930
2891.19,0.06744
2868.04,0.06852
2844.9,0.08284
2821.75,0.09818
2798.61,0.10627
2775.46,0.11206
2752.32,0.11549
2729.17,0.11722
2706.03,0.11757
2682.88,0.11509
2659.74,0.10388
2636.59,0.09002
2613.45,0.08474
2590.3,0.07860
2567.16,0.07386
2544.02,0.06597
2520.87,0.05655
2497.73,0.07142
2474.58,0.09665
2451.44,0.11096
2428.29,0.11628
2405.15,0.11890
2382,0.11920
2358.86,0.11666
2335.71,0.11427
2312.57,0.11302
2289.42,0.11451
2266.28,0.10752
2243.13,0.10391
2219.99,0.10300
2196.84,0.09965
2173.7,0.09430
2150.55,0.08970
2127.41,0.09599
2104.26,0.10183
2081.12,0.10140
2057.97,0.09947
2034.83,0.09410
2011.68,0.09029
1988.54,0.08737
1965.39,0.08395
1942.25,0.08319
1919.1,0.07863
1895.96,0.07159
1872.81,0.06644
1849.67,0.06184
1826.52,0.04850
1803.38,0.03973
1780.23,0.04538
1757.09,0.04710
1733.94,0.04472
1710.8,0.04236
1687.65,0.03817
1664.51,0.03706
1641.36,0.03750
1618.22,0.04441
1595.07,0.05975
1571.93,0.11034
1548.78,0.12102
1525.64,0.10925
1502.49,0.09942
1479.35,0.09344
1456.2,0.08918
1433.06,0.08811
1409.91,0.08142
1386.77,0.07140
1363.62,0.07647
1340.48,0.08323
1317.33,0.08689
1294.19,0.08921
1271.04,0.09208
1247.9,0.09313
1224.75,0.09606
1201.61,0.08630
1178.46,0.07433
1155.32,0.06745
1132.17,0.07007
1109.03,0.06906
1085.88,0.06810
1062.74,0.06231
1039.59,0.05334
1016.45,0.04985
993.304,0.05028
970.159,0.05245
947.014,0.05695
923.869,0.05849
900.724,0.07267
877.579,0.05888
854.434,0.05231
831.289,0.05133
808.144,0.05032
784.999,0.05217
761.854,0.04651
738.709,0.04030
715.565,0.03699
692.42,0.04163
669.275,0.04039
646.13,0.03816
622.985,0.03511
599.84,0.03232

File: Concrete_Block_IS_S_221214_R6.dpt
7497.03,0.27613
7473.89,0.27965
7450.74,0.27939
7427.6,0.27276
7404.45,0.28650
7381.31,0.28329
7358.16,0.27872
7335.02,0.27207
7311.87,0.28081
7288.73,0.27586
7265.58,0.27995
7242.44,0.27245
7219.29,0.27221
7196.15,0.27758
7173,0.27562
7149.86,0.27398
7126.71,0.27493
7103.57,0.27541
7080.42,0.27175
7057.28,0.27055
7034.13,0.27164
7010.99,0.27562
6987.84,0.27441
6964.7,0.27547
6941.55,0.27906
6918.41,0.27357
6895.26,0.27064
6872.12,0.27504
6848.97,0.27934
6825.83,0.27552
6802.68,0.27389
6779.54,0.27380
6756.39,0.27706
6733.25,0.26914
6710.1,0.27597
6686.96,0.27744
6663.82,0.27498
6640.67,0.27134
6617.53,0.27613
6594.38,0.27731
6571.24,0.27006
6548.09,0.27826
6524.95,0.27641
6501.8,0.27856
6478.66,0.28227
6455.51,0.27548
6432.37,0.27350
6409.22,0.27573
6386.08,0.27444
6362.93,0.27229
6339.79,0.27566
6316.64,0.27254
6293.5,0.27451
6270.35,0.27335
6247.21,0.27901
6224.06,0.27416
6200.92,0.27602
6177.77,0.27688
6154.63,0.27436
6131.48,0.27362
6108.34,0.27219
6085.19,0.27595
6062.05,0.27416
6038.9,0.27422
6015.76,0.27528
5992.61,0.27354
5969.47,0.27760
5946.32,0.27506
5923.18,0.27574
5900.03,0.27785
5876.89,0.27666
5853.74,0.27566
5830.6,0.27380
5807.45,0.27442
5784.31,0.27349
5761.16,0.27440
5738.02,0.27458
5714.87,0.27366
5691.73,0.27414
5668.58,0.27172
5645.44,0.27378
5622.29,0.27256
5599.15,0.27411
5576,0.27325
5552.86,0.27303
5529.71,0.27355
5506.57,0.27187
5483.42,0.27245
5460.28,0.27268
5437.13,0.26996
5413.99,0.27194
5390.84,0.27144
5367.7,0.27042
5344.55,0.27034
5321.41,0.26779
5298.26,0.26388
5275.12,0.26027
5251.97,0.25584
5228.83,0.25033
5205.68,0.24999
5182.54,0.24819
5159.39,0.24856
5136.25,0.24938
5113.1,0.24967
5089.96,0.25071
5066.81,0.25360
5043.67,0.25420
5020.52,0.25418
4997.38,0.25731
4974.23,0.25877
4951.09,0.26075
4927.94,0.26008
4904.8,0.26091
4881.65,0.26188
4858.51,0.26145
4835.36,0.26191
4812.22,0.26203
4789.07,0.26218
4765.93,0.26173
4742.78,0.26168
4719.64,0.26218
4696.49,0.26081
4673.35,0.26049
4650.2,0.25983
4627.06,0.25931
4603.92,0.25845
4580.77,0.25747
4557.63,0.25658
4534.48,0.25349
4511.34,0.25162
4488.19,0.25060
4465.05,0.25022
4441.9,0.24884
4418.76,0.24605
4395.61,0.24370
4372.47,0.24246
4349.32,0.23880
4326.18,0.23565
4303.03,0.23262
4279.89,0.23388
4256.74,0.23801
4233.6,0.24346
4210.45,0.24363
4187.31,0.24148
4164.16,0.23864
4141.02,0.23674
4117.87,0.23087
4094.73,0.22498
4071.58,0.21927
4048.44,0.21357
4025.29,0.20945
4002.15,0.20464
3979,0.19979
3955.86,0.19861
3932.71,0.20646
3909.57,0.21637
3886.42,0.22047
3863.28,0.22115
3840.13,0.22006
3816.99,0.21779
3793.84,0.21452
3770.7,0.20839
3747.55,0.19792
3724.41,0.17305
3701.26,0.12892
3678.12,0.11786
3654.97,0.09394
3631.83,0.07917
3608.68,0.07162
3585.54,0.06971
3562.39,0.06933
3539.25,0.06698
3516.1,0.06580
3492.96,0.06410
3469.81,0.06316
3446.67,0.06179
3423.52,0.06092
3400.38,0.05976
3377.23,0.06075
3354.09,0.06187
3330.94,0.06230
3307.8,0.06353
3284.65,0.06399
3261.51,0.06499
3238.36,0.06586
3215.22,0.06725
3192.07,0.06947
3168.93,0.07160
3145.78,0.07389
3122.64,0.07649
3099.49,0.07775
3076.35,0.07955
3053.2,0.07964
3030.06,0.07295
3006.91,0.07110
2983.77,0.06716
2960.62,0.06958
2937.48,0.06926
2914.33,0.06853
2891.19,0.06730
2868.04,0.06799
2844.9,0.08259
2821.75,0.09853
2798.61,0.10642
2775.46,0.11178
2752.32,0.11521
2729.17,0.11739
2706.03,0.11715
2682.88,0.11472
2659.74,0.10326
2636.59,0.09013
2613.45,0.08405
2590.3,0.07818
2567.16,0.07374
2544.02,0.06583
2520.87,0.05662
2497.73,0.07123
2474.58,0.09665
2451.44,0.11091
2428.29,0.11627
2405.15,0.11817
2382,0.11917
2358.86,0.11678
2335.71,0.11345
2312.57,0.11272
2289.42,0.11371
2266.28,0.10688
2243.13,0.10313
2219.99,0.10252
2196.84,0.09973
2173.7,0.09406
2150.55,0.08979
2127.41,0.09546
2104.26,0.10149
2081.12,0.10109
2057.97,0.09892
2034.83,0.09380
2011.68,0.09001
1988.54,0.08695
1965.39,0.08333
1942.25,0.08272
1919.1,0.07878
1895.96,0.07104
1872.81,0.06596
1849.67,0.06157
1826.52,0.04848
1803.38,0.03990
1780.23,0.04498
1757.09,0.04707
1733.94,0.04466
1710.8,0.04235
1687.65,0.03847
1664.51,0.03699
1641.36,0.03742
1618.22,0.04422
1595.07,0.05949
1571.93,0.10937
1548.78,0.11994
1525.64,0.10848
1502.49,0.09910
1479.35,0.09297
1456.2,0.08903
1433.06,0.08755
1409.91,0.08097
1386.77,0.07112
1363.62,0.07644
1340.48,0.08274
1317.33,0.08614
1294.19,0.08896
1271.04,0.09161
1247.9,0.09299
1224.75,0.09563
1201.61,0.08622
1178.46,0.07382
1155.32,0.06715
1132.17,0.07052
1109.03,0.06884
1085.88,0.06830
1062.74,0.06180
1039.59,0.05267
1016.45,0.04990
993.304,0.04989
970.159,0.05286
947.014,0.05692
923.869,0.05869
900.724,0.07307
877.579,0.05820
854.434,0.05261
831.289,0.05148
808.144,0.05023
784.999,0.05260
761.854,0.04691
738.709,0.03977
715.565,0.03735
692.42,0.04234
669.275,0.04119
646.13,0.03904
622.985,0.03443
599.84,0.03297

File: Concrete_Block_IS_S_221214_R7.dpt
7497.03,0.27538
7473.89,0.27522
7450.74,0.28103
7427.6,0.27654
7404.45,0.27975
7381.31,0.27824
7358.16,0.27458
7335.02,0.27804
7311.87,0.26882
7288.73,0.27764
7265.58,0.27573
7242.44,0.27168
7219.29,0.27888
7196.15,0.26544
7173,0.27395
7149.86,0.27313
7126.71,0.27610
7103.57,0.27036
7080.42,0.26978
7057.28,0.28321
7034.13,0.26824
7010.99,0.27282
6987.84,0.27058
6964.7,0.27035
6941.55,0.27233
6918.41,0.27155
6895.26,0.27771
6872.12,0.27769
6848.97,0.26877
6825.83,0.27085
6802.68,0.27703
6779.54,0.27704
6756.39,0.26924
6733.25,0.27918
6710.1,0.27665
6686.96,0.27016
6663.82,0.27378
6640.67,0.27675
6617.53,0.27915
6594.38,0.27665
6571.24,0.27368
6548.09,0.27454
6524.95,0.27619
6501.8,0.28035
6478.66,0.27418
6455.51,0.27940
6432.37,0.27415
6409.22,0.27703
6386.08,0.28103
6362.93,0.27561
6339.79,0.27649
6316.64,0.27844
6293.5,0.27838
6270.35,0.27724
6247.21,0.27827
6224.06,0.27601
6200.92,0.27177
6177.77,0.27511
6154.63,0.27587
6131.48,0.27689
6108.34,0.27498
6085.19,0.27486
6062.05,0.27438
6038.9,0.27691
6015.76,0.27339
5992.61,0.27396
5969.47,0.27782
5946.32,0.27508
5923.18,0.27652
5900.03,0.27406
5876.89,0.27457
5853.74,0.27392
5830.6,0.27600
5807.45,0.27556
5784.31,0.27593
5761.16,0.27317
5738.02,0.27618
5714.87,0.27624
5691.73,0.27377
5668.58,0.27430
5645.44,0.27482
5622.29,0.27252
5599.15,0.27460
5576,0.27379
5552.86,0.27360
5529.71,0.27367
5506.57,0.27373
5483.42,0.27261
5460.28,0.27200
5437.13,0.27269
5413.99,0.27209
5390.84,0.27189
5367.7,0.27028
5344.55,0.26977
5321.41,0.26759
5298.26,0.26583
5275.12,0.26134
5251.97,0.25647
5228.83,0.25303
5205.68,0.24911
5182.54,0.24971
5159.39,0.24844
5136.25,0.25062
5113.1,0.25251
5089.96,0.25166
5066.81,0.25403
5043.67,0.25334
5020.52,0.25642
4997.38,0.25719
4974.23,0.25887
4951.09,0.26019
4927.94,0.26085
4904.8,0.26096
4881.65,0.26223
4858.51,0.26275
4835.36,0.26171
4812.22,0.26196
4789.07,0.26206
4765.93,0.26155
4742.78,0.26245
4719.64,0.26167
4696.49,0.26191
4673.35,0.26060
4650.2,0.26041
4627.06,0.25951
4603.92,0.25942
4580.77,0.25786
4557.63,0.25719
4534.48,0.25342
4511.34,0.25223
4488.19,0.25028
4465.05,0.25005
4441.9,0.24946
4418.76,0.24677
4395.61,0.24406
4372.47,0.24236
4349.32,0.23891
4326.18,0.23601
4303.03,0.23351
4279.89,0.23393
4256.74,0.23910
4233.6,0.24292
4210.45,0.24447
4187.31,0.24214
4164.16,0.23970
4141.02,0.23701
4117.87,0.23201
4094.73,0.22594
4071.58,0.21906
4048.44,0.21476
4025.29,0.20918
4002.15,0.20461
3979,0.20029
3955.86,0.19977
3932.71,0.20655
3909.57,0.21770
3886.42,0.22108
3863.28,0.22119
3840.13,0.22048
3816.99,0.21911
3793.84,0.21497
3770.7,0.20930
3747.55,0.19855
3724.41,0.17307
3701.26,0.12975
3678.12,0.11758
3654.97,0.09408
3631.83,0.07901
3608.68,0.07179
3585.54,0.07090
3562.39,0.06945
3539.25,0.06724
3516.1,0.06540
3492.96,0.06379
3469.81,0.06290
3446.67,0.06183
3423.52,0.06143
3400.38,0.06031
3377.23,0.06109
3354.09,0.06155
3330.94,0.06266
3307.8,0.06321
3284.65,0.06459
3261.51,0.06530
3238.36,0.06537
3215.22,0.06785
3192.07,0.07018
3168.93,0.07184
3145.78,0.07437
3122.64,0.07692
3099.49,0.07754
3076.35,0.07942
3053.2,0.07970
3030.06,0.07300
3006.91,0.07127
2983.77,0.06731
2960.62,0.07002
2937.48,0.06993
2914.33,0.06891
2891.19,0.06754
2868.04,0.06872
2844.9,0.08301
2821.75,0.09849
2798.61,0.10634
2775.46,0.11257
2752.32,0.11564
2729.17,0.11747
2706.03,0.11734
2682.88,0.11509
2659.74,0.10356
2636.59,0.09009
2613.45,0.08426
2590.3,0.07851
2567.16,0.07381
2544.02,0.06559
2520.87,0.05645
2497.73,0.07194
2474.58,0.09685
2451.44,0.11123
2428.29,0.11638
2405.15,0.11851
2382,0.11940
2358.86,0.11697
2335.71,0.11411
2312.57,0.11274
2289.42,0.11432
2266.28,0.10779
2243.13,0.10357
2219.99,0.10281
2196.84,0.10015
2173.7,0.09404
2150.55,0.08975
2127.41,0.09611
2104.26,0.10189
2081.12,0.10159
2057.97,0.09899
2034.83,0.09380
2011.68,0.09018
1988.54,0.08720
1965.39,0.08373
1942.25,0.08298
1919.1,0.07894
1895.96,0.07162
1872.81,0.06609
1849.67,0.06205
1826.52,0.04875
1803.38,0.04010
1780.23,0.04505
1757.09,0.04729
1733.94,0.04456
1710.8,0.04284
1687.65,0.03896
1664.51,0.03734
1641.36,0.03759
1618.22,0.04442
1595.07,0.05988
1571.93,0.10948
1548.78,0.12101
1525.64,0.10897
1502.49,0.09902
1479.35,0.09294
1456.2,0.08896
1433.06,0.08778
1409.91,0.08158
1386.77,0.07169
1363.62,0.07672
1340.48,0.08270
1317.33,0.08661
1294.19,0.08923
1271.04,0.09194
1247.9,0.09285
1224.75,0.09582
1201.61,0.08617
1178.46,0.07380
1155.32,0.06738
1132.17,0.07019
1109.03,0.06953
1085.88,0.06772
1062.74,0.06248
1039.59,0.05295
1016.45,0.05045
993.304,0.05010
970.159,0.05302
947.014,0.05665
923.869,0.05836
900.724,0.07245
877.579,0.05785
854.434,0.05271
831.289,0.05124
808.144,0.05044
784.999,0.05158
761.854,0.04754
738.709,0.03898
715.565,0.03747
692.42,0.04197
669.275,0.04104
646.13,0.03832
622.985,0.03773
599.84,0.03487

File: Concrete_Block_IS_S_221214_R8.dpt
7497.03,0.28331
7473.89,0.28561
7450.74,0.28087
7427.6,0.27304
7404.45,0.27653
7381.31,0.27175
7358.16,0.27595
7335.02,0.26913
7311.87,0.28180
7288.73,0.27651
7265.58,0.27185
7242.44,0.27504
7219.29,0.27299
7196.15,0.26764
7173,0.27410
7149.86,0.27218
7126.71,0.26398
7103.57,0.27844
7080.42,0.27314
7057.28,0.26460
7034.13,0.27073
7010.99,0.27504
6987.84,0.27648
6964.7,0.27608
6941.55,0.27177
6918.41,0.27727
6895.26,0.27384
6872.12,0.27246
6848.97,0.26781
6825.83,0.26761
6802.68,0.27509
6779.54,0.27208
6756.39,0.27939
6733.25,0.27247
6710.1,0.27424
6686.96,0.27619
6663.82,0.27489
6640.67,0.27519
6617.53,0.27078
6594.38,0.27655
6571.24,0.27458
6548.09,0.27646
6524.95,0.27662
6501.8,0.27437
6478.66,0.27413
6455.51,0.27615
6432.37,0.27527
6409.22,0.27579
6386.08,0.27510
6362.93,0.27639
6339.79,0.27520
6316.64,0.27726
6293.5,0.27525
6270.35,0.27769
6247.21,0.27049
6224.06,0.27439
6200.92,0.27746
6177.77,0.27884
6154.63,0.27567
6131.48,0.27547
6108.34,0.27430
6085.19,0.27783
6062.05,0.27961
6038.9,0.27522
6015.76,0.27675
5992.61,0.27243
5969.47,0.27379
5946.32,0.27397
5923.18,0.27691
5900.03,0.27638
5876.89,0.27211
5853.74,0.27529
5830.6,0.27288
5807.45,0.27246
5784.31,0.27862
5761.16,0.27207
5738.02,0.27517
5714.87,0.27684
5691.73,0.27624
5668.58,0.27324
5645.44,0.27597
5622.29,0.27622
5599.15,0.27198
5576,0.27411
5552.86,0.27638
5529.71,0.27452
5506.57,0.27130
5483.42,0.27374
5460.28,0.27370
5437.13,0.27226
5413.99,0.27199
5390.84,0.27168
5367.7,0.27033
5344.55,0.27139
5321.41,0.26798
5298.26,0.26493
5275.12,0.26327
5251.97,0.25727
5228.83,0.25282
5205.68,0.25035
5182.54,0.24875
5159.39,0.24941
5136.25,0.25075
5113.1,0.25069
5089.96,0.25277
5066.81,0.25539
5043.67,0.25468
5020.52,0.25483
4997.38,0.25655
4974.23,0.25948
4951.09,0.26037
4927.94,0.26112
4904.8,0.26204
4881.65,0.26208
4858.51,0.26174
4835.36,0.26176
4812.22,0.26312
4789.07,0.26270
4765.93,0.26272
4742.78,0.26260
4719.64,0.26228
4696.49,0.26128
4673.35,0.26135
4650.2,0.26092
4627.06,0.25933
4603.92,0.25939
4580.77,0.25884
4557.63,0.25740
4534.48,0.25434
4511.34,0.25241
4488.19,0.25086
4465.05,0.25133
4441.9,0.24961
4418.76,0.24703
4395.61,0.24527
4372.47,0.24239
4349.32,0.23934
4326.18,0.23671
4303.03,0.23278
4279.89,0.23418
4256.74,0.23890
4233.6,0.24400
4210.45,0.24357
4187.31,0.24261
4164.16,0.23918
4141.02,0.23592
4117.87,0.23112
4094.73,0.22582
4071.58,0.21925
4048.44,0.21475
4025.29,0.21015
4002.15,0.20409
3979,0.20054
3955.86,0.19954
3932.71,0.20708
3909.57,0.21730
3886.42,0.22065
3863.28,0.22130
3840.13,0.22028
3816.99,0.21863
3793.84,0.21475
3770.7,0.20945
3747.55,0.19743
3724.41,0.17302
3701.26,0.12947
3678.12,0.11743
3654.97,0.09474
3631.83,0.07883
3608.68,0.07234
3585.54,0.07043
3562.39,0.06901
3539.25,0.06666
3516.1,0.06636
3492.96,0.06468
3469.81,0.06360
3446.67,0.06161
3423.52,0.06081
3400.38,0.06074
3377.23,0.06080
3354.09,0.06174
3330.94,0.06320
3307.8,0.06347
3284.65,0.06451
3261.51,0.06554
3238.36,0.06649
3215.22,0.06778
3192.07,0.06995
3168.93,0.07165
3145.78,0.07495
3122.64,0.07705
3099.49,0.07887
3076.35,0.07929
3053.2,0.07982
3030.06,0.07332
3006.91,0.07165
2983.77,0.06742
2960.62,0.06988
2937.48,0.06943
2914.33,0.06904
2891.19,0.06739
2868.04,0.06905
2844.9,0.08327
2821.75,0.09844
2798.61,0.10649
2775.46,0.11218
2752.32,0.11598
2729.17,0.11729
2706.03,0.11757
2682.88,0.11480
2659.74,0.10344
2636.59,0.08993
2613.45,0.08478
2590.3,0.07828
2567.16,0.07395
2544.02,0.06563
2520.87,0.05668
2497.73,0.07163
2474.58,0.09682
2451.44,0.11114
2428.29,0.11652
2405.15,0.11842
2382,0.11947
2358.86,0.11712
2335.71,0.11331
2312.57,0.11311
2289.42,0.11422
2266.28,0.10729
2243.13,0.10388
2219.99,0.10297
2196.84,0.09984
2173.7,0.09462
2150.55,0.09013
2127.41,0.09586
2104.26,0.10175
2081.12,0.10142
2057.97,0.09911
2034.83,0.09427
2011.68,0.09005
1988.54,0.08720
1965.39,0.08410
1942.25,0.08315
1919.1,0.07869
1895.96,0.07157
1872.81,0.06641
1849.67,0.06152
1826.52,0.04856
1803.38,0.03991
1780.23,0.04533
1757.09,0.04709
1733.94,0.04443
1710.8,0.04269
1687.65,0.03867
1664.51,0.03706
1641.36,0.03771
1618.22,0.04439
1595.07,0.05926
1571.93,0.10958
1548.78,0.12097
1525.64,0.10868
1502.49,0.09909
1479.35,0.09290
1456.2,0.08846
1433.06,0.08774
1409.91,0.08155
1386.77,0.07113
1363.62,0.07655
1340.48,0.08295
1317.33,0.08643
1294.19,0.08865
1271.04,0.09167
1247.9,0.09328
1224.75,0.09570
1201.61,0.08607
1178.46,0.07417
1155.32,0.06707
1132.17,0.07044
1109.03,0.06940
1085.88,0.06768
1062.74,0.06194
1039.59,0.05367
1016.45,0.04990
993.304,0.04995
970.159,0.05283
947.014,0.05689
923.869,0.05882
900.724,0.07281
877.579,0.05851
854.434,0.05198
831.289,0.05104
808.144,0.04989
784.999,0.05272
761.854,0.04857
738.709,0.03944
715.565,0.03725
692.42,0.04368
669.275,0.04012
646.13,0.03761
622.985,0.03492
599.84,0.03007

File: Concrete_Block_IS_T_221214_R8.dpt
7497.03,0.02451
7473.89,0.02759
7450.74,0.02046
7427.6,0.02082
7404.45,0.02367
7381.31,0.02496
7358.16,0.02663
7335.02,0.01609
7311.87,0.02799
7288.73,0.02225
7265.58,0.02602
7242.44,0.02010
7219.29,0.01636
7196.15,0.02241
7173,0.01980
7149.86,0.01821
7126.71,0.02404
7103.57,0.02053
7080.42,0.02533
7057.28,0.02352
7034.13,0.02217
7010.99,0.02291
6987.84,0.02132
6964.7,0.02152
6941.55,0.02359
6918.41,0.02917
6895.26,0.02232
6872.12,0.01999
6848.97,0.02737
6825.83,0.02735
6802.68,0.02690
6779.54,0.02669
6756.39,0.02399
6733.25,0.02598
6710.1,0.02123
6686.96,0.02268
6663.82,0.02181
6640.67,0.02392
6617.53,0.02055
6594.38,0.02148
6571.24,0.02540
6548.09,0.02643
6524.95,0.02170
6501.8,0.02337
6478.66,0.02222
6455.51,0.02112
6432.37,0.02123
6409.22,0.02374
6386.08,0.02342
6362.93,0.02448
6339.79,0.02488
6316.64,0.02131
6293.5,0.02025
6270.35,0.02378
6247.21,0.02506
6224.06,0.02390
6200.92,0.02430
6177.77,0.02711
6154.63,0.02235
6131.48,0.02499
6108.34,0.02581
6085.19,0.02401
6062.05,0.02427
6038.9,0.01912
6015.76,0.02278
5992.61,0.02144
5969.47,0.02336
5946.32,0.02443
5923.18,0.02127
5900.03,0.02248
5876.89,0.02238
5853.74,0.02213
5830.6,0.02273
5807.45,0.02352
5784.31,0.02081
5761.16,0.02369
5738.02,0.02263
5714.87,0.02318
5691.73,0.02242
5668.58,0.02278
5645.44,0.02401
5622.29,0.02137
5599.15,0.02280
5576,0.02324
5552.86,0.02289
5529.71,0.02286
5506.57,0.02411
5483.42,0.02233
5460.28,0.02530
5437.13,0.02259
5413.99,0.02268
5390.84,0.02256
5367.7,0.02308
5344.55,0.02234
5321.41,0.02366
5298.26,0.02222
5275.12,0.02400
5251.97,0.02234
5228.83,0.02210
5205.68,0.02355
5182.54,0.02273
5159.39,0.02252
5136.25,0.02265
5113.1,0.02269
5089.96,0.02462
5066.81,0.02331
5043.67,0.02364
5020.52,0.02298
4997.38,0.02321
4974.23,0.02311
4951.09,0.02309
4927.94,0.02239
4904.8,0.02240
4881.65,0.02385
4858.51,0.02333
4835.36,0.02274
4812.22,0.02347
4789.07,0.02384
4765.93,0.02373
4742.78,0.02312
4719.64,0.02335
4696.49,0.02368
4673.35,0.02247
4650.2,0.02308
4627.06,0.02290
4603.92,0.02364
4580.77,0.02406
4557.63,0.02317
4534.48,0.02334
4511.34,0.02325
4488.19,0.02358
4465.05,0.02399
4441.9,0.02358
4418.76,0.02321
4395.61,0.02408
4372.47,0.02355
4349.32,0.02362
4326.18,0.02277
4303.03,0.02346
4279.89,0.02340
4256.74,0.02369
4233.6,0.02324
4210.45,0.02318
4187.31,0.02312
4164.16,0.02294
4141.02,0.02358
4117.87,0.02401
4094.73,0.02326
4071.58,0.02326
4048.44,0.02396
4025.29,0.02367
4002.15,0.02388
3979,0.02437
3955.86,0.02382
3932.71,0.02422
3909.57,0.02419
3886.42,0.02401
3863.28,0.02377
3840.13,0.02403
3816.99,0.02429
3793.84,0.02389
3770.7,0.02401
3747.55,0.02431
3724.41,0.02410
3701.26,0.02455
3678.12,0.02406
3654.97,0.02296
3631.83,0.02342
3608.68,0.02353
3585.54,0.02266
3562.39,0.02258
3539.25,0.02288
3516.1,0.02228
3492.96,0.02213
3469.81,0.02206
3446.67,0.02185
3423.52,0.02091
3400.38,0.02183
3377.23,0.02145
3354.09,0.02108
3330.94,0.02143
3307.8,0.02125
3284.65,0.02173
3261.51,0.02228
3238.36,0.02213
3215.22,0.02200
3192.07,0.02169
3168.93,0.02234
3145.78,0.02204
3122.64,0.02186
3099.49,0.02214
3076.35,0.02230
3053.2,0.02262
3030.06,0.02183
3006.91,0.02209
2983.77,0.02142
2960.62,0.02010
2937.48,0.02109
2914.33,0.02154
2891.19,0.02167
2868.04,0.02155
2844.9,0.02292
2821.75,0.02314
2798.61,0.02309
2775.46,0.02271
2752.32,0.02305
2729.17,0.02309
2706.03,0.02274
2682.88,0.02318
2659.74,0.02292
2636.59,0.02298
2613.45,0.02303
2590.3,0.02290
2567.16,0.02313
2544.02,0.02289
2520.87,0.02297
2497.73,0.02303
2474.58,0.02264
2451.44,0.02310
2428.29,0.02306
2405.15,0.02306
2382,0.02297
2358.86,0.02295
2335.71,0.02298
2312.57,0.02322
2289.42,0.02298
2266.28,0.02310
2243.13,0.02305
2219.99,0.02300
2196.84,0.02267
2173.7,0.02303
2150.55,0.02252
2127.41,0.02256
2104.26,0.02263
2081.12,0.02264
2057.97,0.02264
2034.83,0.02274
2011.68,0.02283
1988.54,0.02248
1965.39,0.02304
1942.25,0.02302
1919.1,0.02245
1895.96,0.02268
1872.81,0.02245
1849.67,0.02230
1826.52,0.02223
1803.38,0.02160
1780.23,0.02105
1757.09,0.01973
1733.94,0.02129
1710.8,0.02240
1687.65,0.02104
1664.51,0.02057
1641.36,0.02046
1618.22,0.02053
1595.07,0.02069
1571.93,0.02004
1548.78,0.02042
1525.64,0.02063
1502.49,0.02019
1479.35,0.01984
1456.2,0.01992
1433.06,0.02017
1409.91,0.02013
1386.77,0.01961
1363.62,0.01985
1340.48,0.01930
1317.33,0.01824
1294.19,0.01936
1271.04,0.02101
1247.9,0.02183
1224.75,0.02126
1201.61,0.02029
1178.46,0.02010
1155.32,0.01921
1132.17,0.01986
1109.03,0.02036
1085.88,0.02015
1062.74,0.02129
1039.59,0.02105
1016.45,0.02143
993.304,0.02310
970.159,0.02202
947.014,0.02225
923.869,0.02246
900.724,0.02127
877.579,0.02064
854.434,0.02016
831.289,0.02065
808.144,0.02102
784.999,0.01988
761.854,0.01977
738.709,0.02012
715.565,0.02033
692.42,0.01903
669.275,0.01849
646.13,0.01884
622.985,0.01772
599.84,0.01771