Folder: fsri_materials_database/01_Data/Cellulose_Insulation/FTIR/IS

Note: README.md
# Materials and Products Database
### Repository of materials and products properties and fire test data to improve fire modeling and fire investigation.

This project was supported in part by Award No. 2019-DU-BX-0018, awarded by the National Institute of Justice, Office of Justice Programs, U.S. Department of Justice. The opinions, findings, and conclusions or recommendations expressed in this publication / program / exhibition are those of the author(s) and do not necessarily reflect those of the Department of Justice.

***
***

__Cite this database:__ "McKinnon, M., Weinschenk, C., Dow, N., DiDomizio, M., and Madrzykowski, D. Materials and Products Database (Version 1.0.0), Fire Safety Research Institute, UL Research Institutes. Columbia, MD 21045, 2023."

__Cite the Technical Reference Guide:__ "McKinnon, M., Weinschenk, C., and Madrzykowski, D. Materials and Products Database - Technical Reference Guide, Fire Safety Research Institute, UL Research Institutes. Columbia, MD 21045, 2023."

__Cite the User Guide:__ "McKinnon, M., and Weinschenk, C. Materials and Products Database - User Guide, Fire Safety Research Institute, UL Research Institutes. Columbia, MD 21045, 2023."

***
***

## Database Structure

## 01_Data/
Raw data generated from each apparatus are included here in plain-text format. The data is organized first by material, next by the short name of test apparatus used, and where applicable additional filtering by test settings.

### Test Apparatus and Data File Structure
- __Cone Calorimeter__ (Cone)
    + Data file structure includes the material, the short name for the apparatus, heat flux setting and scan/scalar, date of test, and replicate number. Scan is for the raw output data and scalar is for the initial conditions and high-level test parameters. 
        * Example: __MDF_Cone_HF25scalar_210323_R1__ stands for the first replicate of scalar data generated from a medium density fiber board test in cone calorimeter exposed to 25 kW/m<sup>2</sup> on March 23, 2021.
    + A _Cone_Notes.csv_ is generated for each material from the __plot_Cone_data.py__ script. For materials whose experiments deviated from typical behavior relevant pictures are included in the respective material directory.
- __Fourier Transform Infrared Spectrometer__ (FTIR)
    + The FTIR directory contains subdirectories for the Attenuated Total Reflectance method (ATR) and the Integrating Sphere (IS)
    + Data file structure for the ATR experiment files includes the material, the abbreviated name for the apparatus, date of test, and replicate number. 
        * Example: __MDF_ATR_210323_R5__ stands for the fifth replicate of data collected with the ATR accessory conducted on June 8, 2021.
    + Data file structure for the IS experiment files includes the material, the abbreviated name for the apparatus, the measurand, whether the test is a sample measurement or standard reference, date of test, and replicate number.
        * Example: __OSB_IS_REFLECT_MEAS_2

File: Cellulose_Insulation_IS_S_220913_R1.dpt
7497.03,0.53235
7473.89,0.53251
7450.74,0.51919
7427.6,0.52831
7404.45,0.51985
7381.31,0.51947
7358.16,0.52063
7335.02,0.51988
7311.87,0.52419
7288.73,0.52109
7265.58,0.51770
7242.44,0.51434
7219.29,0.51128
7196.15,0.52842
7173,0.51529
7149.86,0.51619
7126.71,0.51665
7103.57,0.50900
7080.42,0.50402
7057.28,0.49981
7034.13,0.49834
7010.99,0.49457
6987.84,0.48751
6964.7,0.49046
6941.55,0.48823
6918.41,0.49008
6895.26,0.48638
6872.12,0.48417
6848.97,0.48727
6825.83,0.48487
6802.68,0.47885
6779.54,0.48033
6756.39,0.48487
6733.25,0.48415
6710.1,0.48296
6686.96,0.48056
6663.82,0.48120
6640.67,0.48373
6617.53,0.48598
6594.38,0.48359
6571.24,0.48698
6548.09,0.48928
6524.95,0.48975
6501.8,0.48721
6478.66,0.48745
6455.51,0.48987
6432.37,0.49227
6409.22,0.49110
6386.08,0.49216
6362.93,0.49148
6339.79,0.48973
6316.64,0.49118
6293.5,0.49040
6270.35,0.49523
6247.21,0.49662
6224.06,0.50144
6200.92,0.50339
6177.77,0.50616
6154.63,0.50755
6131.48,0.50910
6108.34,0.50895
6085.19,0.51097
6062.05,0.51198
6038.9,0.50990
6015.76,0.51282
5992.61,0.51339
5969.47,0.51176
5946.32,0.51047
5923.18,0.51325
5900.03,0.51019
5876.89,0.50913
5853.74,0.50674
5830.6,0.50967
5807.45,0.50901
5784.31,0.51075
5761.16,0.50936
5738.02,0.50874
5714.87,0.51181
5691.73,0.50974
5668.58,0.50989
5645.44,0.50892
5622.29,0.50761
5599.15,0.51085
5576,0.51244
5552.86,0.50975
5529.71,0.51260
5506.57,0.51132
5483.42,0.51379
5460.28,0.51479
5437.13,0.51567
5413.99,0.51753
5390.84,0.51970
5367.7,0.51740
5344.55,0.51714
5321.41,0.51580
5298.26,0.50757
5275.12,0.49647
5251.97,0.47597
5228.83,0.46090
5205.68,0.45230
5182.54,0.45177
5159.39,0.45515
5136.25,0.46219
5113.1,0.46608
5089.96,0.47195
5066.81,0.47535
5043.67,0.47683
5020.52,0.47557
4997.38,0.47423
4974.23,0.46906
4951.09,0.46299
4927.94,0.45610
4904.8,0.44581
4881.65,0.43619
4858.51,0.42521
4835.36,0.41581
4812.22,0.40938
4789.07,0.40298
4765.93,0.39836
4742.78,0.39593
4719.64,0.39496
4696.49,0.39600
4673.35,0.39977
4650.2,0.40411
4627.06,0.40922
4603.92,0.41539
4580.77,0.42162
4557.63,0.42643
4534.48,0.43075
4511.34,0.43666
4488.19,0.43825
4465.05,0.43174
4441.9,0.42154
4418.76,0.40697
4395.61,0.39584
4372.47,0.40299
4349.32,0.40484
4326.18,0.39785
4303.03,0.39124
4279.89,0.38738
4256.74,0.38919
4233.6,0.39169
4210.45,0.39308
4187.31,0.39538
4164.16,0.39799
4141.02,0.39515
4117.87,0.38551
4094.73,0.37016
4071.58,0.35248
4048.44,0.33424
4025.29,0.32197
4002.15,0.32171
3979,0.32735
3955.86,0.33502
3932.71,0.34437
3909.57,0.35190
3886.42,0.35852
3863.28,0.36634
3840.13,0.37380
3816.99,0.37347
3793.84,0.36994
3770.7,0.36517
3747.55,0.35488
3724.41,0.33032
3701.26,0.25339
3678.12,0.22664
3654.97,0.16074
3631.83,0.12302
3608.68,0.09251
3585.54,0.07170
3562.39,0.05775
3539.25,0.04881
3516.1,0.04268
3492.96,0.03801
3469.81,0.03461
3446.67,0.03255
3423.52,0.03216
3400.38,0.03181
3377.23,0.03151
3354.09,0.03134
3330.94,0.03309
3307.8,0.03641
3284.65,0.03846
3261.51,0.04203
3238.36,0.04697
3215.22,0.05246
3192.07,0.05829
3168.93,0.06423
3145.78,0.07137
3122.64,0.07832
3099.49,0.08654
3076.35,0.09181
3053.2,0.09937
3030.06,0.10468
3006.91,0.10506
2983.77,0.09623
2960.62,0.07432
2937.48,0.06279
2914.33,0.05959
2891.19,0.06175
2868.04,0.06749
2844.9,0.08222
2821.75,0.10683
2798.61,0.12504
2775.46,0.13421
2752.32,0.14011
2729.17,0.14330
2706.03,0.15327
2682.88,0.16504
2659.74,0.17284
2636.59,0.18098
2613.45,0.18943
2590.3,0.19584
2567.16,0.19956
2544.02,0.20041
2520.87,0.20337
2497.73,0.21543
2474.58,0.22784
2451.44,0.23604
2428.29,0.24586
2405.15,0.25559
2382,0.26312
2358.86,0.26758
2335.71,0.27261
2312.57,0.27346
2289.42,0.26970
2266.28,0.26248
2243.13,0.25828
2219.99,0.25775
2196.84,0.25604
2173.7,0.24529
2150.55,0.23602
2127.41,0.23270
2104.26,0.23583
2081.12,0.23727
2057.97,0.23300
2034.83,0.23753
2011.68,0.25162
1988.54,0.25955
1965.39,0.26542
1942.25,0.27305
1919.1,0.27817
1895.96,0.27782
1872.81,0.27437
1849.67,0.26709
1826.52,0.25632
1803.38,0.23981
1780.23,0.21617
1757.09,0.14974
1733.94,0.11390
1710.8,0.13064
1687.65,0.12651
1664.51,0.09205
1641.36,0.08727
1618.22,0.09085
1595.07,0.08946
1571.93,0.12381
1548.78,0.13181
1525.64,0.08999
1502.49,0.06018
1479.35,0.05106
1456.2,0.03914
1433.06,0.03498
1409.91,0.04063
1386.77,0.03959
1363.62,0.03915
1340.48,0.04161
1317.33,0.04185
1294.19,0.04702
1271.04,0.04135
1247.9,0.04368
1224.75,0.04437
1201.61,0.04288
1178.46,0.03331
1155.32,0.03306
1132.17,0.02910
1109.03,0.03096
1085.88,0.03132
1062.74,0.04022
1039.59,0.04294
1016.45,0.05009
993.304,0.06015
970.159,0.08105
947.014,0.10088
923.869,0.10530
900.724,0.08920
877.579,0.09976
854.434,0.10940
831.289,0.10619
808.144,0.09047
784.999,0.08661
761.854,0.07670
738.709,0.06773
715.565,0.05451
692.42,0.05135
669.275,0.04621
646.13,0.04550
622.985,0.04399
599.84,0.04496

File: Cellulose_Insulation_IS_S_220913_R2.dpt
7497.03,0.52358
7473.89,0.53306
7450.74,0.52766
7427.6,0.52958
7404.45,0.52504
7381.31,0.51324
7358.16,0.52542
7335.02,0.52418
7311.87,0.51498
7288.73,0.52559
7265.58,0.51916
7242.44,0.51596
7219.29,0.51051
7196.15,0.51538
7173,0.52286
7149.86,0.51864
7126.71,0.50716
7103.57,0.51016
7080.42,0.50580
7057.28,0.50437
7034.13,0.50244
7010.99,0.49359
6987.84,0.49699
6964.7,0.49002
6941.55,0.49017
6918.41,0.48938
6895.26,0.49042
6872.12,0.48661
6848.97,0.48576
6825.83,0.48927
6802.68,0.47927
6779.54,0.48892
6756.39,0.48811
6733.25,0.48195
6710.1,0.48049
6686.96,0.48742
6663.82,0.48441
6640.67,0.48770
6617.53,0.48681
6594.38,0.48489
6571.24,0.48956
6548.09,0.49076
6524.95,0.48529
6501.8,0.48696
6478.66,0.49228
6455.51,0.48642
6432.37,0.49237
6409.22,0.48780
6386.08,0.49287
6362.93,0.49020
6339.79,0.49349
6316.64,0.49576
6293.5,0.49656
6270.35,0.49563
6247.21,0.49405
6224.06,0.49979
6200.92,0.50039
6177.77,0.50491
6154.63,0.50499
6131.48,0.50923
6108.34,0.51150
6085.19,0.50908
6062.05,0.51397
6038.9,0.51122
6015.76,0.51332
5992.61,0.51164
5969.47,0.51240
5946.32,0.51129
5923.18,0.50862
5900.03,0.50993
5876.89,0.50732
5853.74,0.51037
5830.6,0.50813
5807.45,0.50856
5784.31,0.51105
5761.16,0.50889
5738.02,0.51108
5714.87,0.51224
5691.73,0.51031
5668.58,0.50895
5645.44,0.51076
5622.29,0.51096
5599.15,0.51239
5576,0.51140
5552.86,0.51039
5529.71,0.51282
5506.57,0.51460
5483.42,0.51403
5460.28,0.51479
5437.13,0.51555
5413.99,0.51775
5390.84,0.51853
5367.7,0.52046
5344.55,0.51758
5321.41,0.51608
5298.26,0.51058
5275.12,0.50107
5251.97,0.48274
5228.83,0.46793
5205.68,0.46295
5182.54,0.46126
5159.39,0.46476
5136.25,0.47022
5113.1,0.47484
5089.96,0.47868
5066.81,0.48153
5043.67,0.48123
5020.52,0.48171
4997.38,0.47843
4974.23,0.47273
4951.09,0.46597
4927.94,0.45751
4904.8,0.44646
4881.65,0.43667
4858.51,0.42586
4835.36,0.41705
4812.22,0.40980
4789.07,0.40458
4765.93,0.39882
4742.78,0.39547
4719.64,0.39633
4696.49,0.39857
4673.35,0.40100
4650.2,0.40601
4627.06,0.40905
4603.92,0.41642
4580.77,0.42294
4557.63,0.42867
4534.48,0.43259
4511.34,0.43784
4488.19,0.43930
4465.05,0.43336
4441.9,0.42205
4418.76,0.40707
4395.61,0.39671
4372.47,0.40266
4349.32,0.40524
4326.18,0.39913
4303.03,0.39210
4279.89,0.38842
4256.74,0.39079
4233.6,0.39322
4210.45,0.39482
4187.31,0.39652
4164.16,0.39986
4141.02,0.39625
4117.87,0.38774
4094.73,0.37209
4071.58,0.35454
4048.44,0.33676
4025.29,0.32336
4002.15,0.32362
3979,0.32992
3955.86,0.33768
3932.71,0.34614
3909.57,0.35432
3886.42,0.36182
3863.28,0.36837
3840.13,0.37562
3816.99,0.37694
3793.84,0.37518
3770.7,0.37004
3747.55,0.35901
3724.41,0.33578
3701.26,0.25804
3678.12,0.23387
3654.97,0.16984
3631.83,0.13048
3608.68,0.09773
3585.54,0.07562
3562.39,0.06015
3539.25,0.05043
3516.1,0.04359
3492.96,0.03814
3469.81,0.03541
3446.67,0.03378
3423.52,0.03290
3400.38,0.03218
3377.23,0.03182
3354.09,0.03168
3330.94,0.03443
3307.8,0.03690
3284.65,0.03882
3261.51,0.04371
3238.36,0.04818
3215.22,0.05430
3192.07,0.06064
3168.93,0.06756
3145.78,0.07449
3122.64,0.08239
3099.49,0.09010
3076.35,0.09655
3053.2,0.10318
3030.06,0.10855
3006.91,0.10762
2983.77,0.09846
2960.62,0.07505
2937.48,0.06282
2914.33,0.05948
2891.19,0.06191
2868.04,0.06788
2844.9,0.08263
2821.75,0.10800
2798.61,0.12732
2775.46,0.13592
2752.32,0.14104
2729.17,0.14507
2706.03,0.15506
2682.88,0.16634
2659.74,0.17452
2636.59,0.18270
2613.45,0.19092
2590.3,0.19749
2567.16,0.20143
2544.02,0.20175
2520.87,0.20527
2497.73,0.21668
2474.58,0.22972
2451.44,0.23827
2428.29,0.24803
2405.15,0.25815
2382,0.26546
2358.86,0.27135
2335.71,0.27616
2312.57,0.27751
2289.42,0.27400
2266.28,0.26711
2243.13,0.26243
2219.99,0.26214
2196.84,0.26074
2173.7,0.24977
2150.55,0.24033
2127.41,0.23716
2104.26,0.24033
2081.12,0.24182
2057.97,0.23767
2034.83,0.24183
2011.68,0.25605
1988.54,0.26353
1965.39,0.26964
1942.25,0.27701
1919.1,0.28212
1895.96,0.28196
1872.81,0.27797
1849.67,0.27080
1826.52,0.26007
1803.38,0.24280
1780.23,0.21866
1757.09,0.14962
1733.94,0.11425
1710.8,0.13382
1687.65,0.13218
1664.51,0.09722
1641.36,0.09298
1618.22,0.09477
1595.07,0.09166
1571.93,0.12692
1548.78,0.13400
1525.64,0.09090
1502.49,0.05960
1479.35,0.05058
1456.2,0.03966
1433.06,0.03499
1409.91,0.04058
1386.77,0.03958
1363.62,0.03923
1340.48,0.04093
1317.33,0.04160
1294.19,0.04700
1271.04,0.04109
1247.9,0.04363
1224.75,0.04424
1201.61,0.04299
1178.46,0.03261
1155.32,0.03305
1132.17,0.02885
1109.03,0.03105
1085.88,0.03066
1062.74,0.04022
1039.59,0.04295
1016.45,0.05106
993.304,0.05980
970.159,0.08102
947.014,0.10231
923.869,0.10541
900.724,0.09014
877.579,0.10224
854.434,0.11301
831.289,0.11037
808.144,0.09344
784.999,0.09062
761.854,0.08094
738.709,0.07181
715.565,0.05748
692.42,0.05292
669.275,0.04665
646.13,0.04796
622.985,0.04087
599.84,0.04580

File: Cellulose_Insulation_IS_S_220913_R3.dpt
7497.03,0.52512
7473.89,0.53177
7450.74,0.53380
7427.6,0.52338
7404.45,0.52906
7381.31,0.51368
7358.16,0.52801
7335.02,0.52278
7311.87,0.51637
7288.73,0.52194
7265.58,0.52556
7242.44,0.51343
7219.29,0.52013
7196.15,0.52098
7173,0.51521
7149.86,0.51440
7126.71,0.51130
7103.57,0.50978
7080.42,0.50905
7057.28,0.50936
7034.13,0.49659
7010.99,0.48857
6987.84,0.48936
6964.7,0.48759
6941.55,0.48697
6918.41,0.48950
6895.26,0.48577
6872.12,0.49226
6848.97,0.48523
6825.83,0.48596
6802.68,0.48369
6779.54,0.48037
6756.39,0.48031
6733.25,0.48404
6710.1,0.48178
6686.96,0.48172
6663.82,0.48300
6640.67,0.48919
6617.53,0.48479
6594.38,0.47951
6571.24,0.49115
6548.09,0.48427
6524.95,0.49079
6501.8,0.48468
6478.66,0.48922
6455.51,0.49294
6432.37,0.49152
6409.22,0.48857
6386.08,0.49043
6362.93,0.49109
6339.79,0.49235
6316.64,0.49638
6293.5,0.49580
6270.35,0.49658
6247.21,0.50029
6224.06,0.50085
6200.92,0.50052
6177.77,0.50580
6154.63,0.50811
6131.48,0.51150
6108.34,0.51014
6085.19,0.50830
6062.05,0.51467
6038.9,0.50944
6015.76,0.51145
5992.61,0.51350
5969.47,0.51233
5946.32,0.51145
5923.18,0.50971
5900.03,0.51015
5876.89,0.50755
5853.74,0.50940
5830.6,0.51171
5807.45,0.50852
5784.31,0.50993
5761.16,0.50911
5738.02,0.51115
5714.87,0.51185
5691.73,0.50800
5668.58,0.50910
5645.44,0.50945
5622.29,0.50854
5599.15,0.51217
5576,0.51112
5552.86,0.51140
5529.71,0.51367
5506.57,0.51090
5483.42,0.51415
5460.28,0.51432
5437.13,0.51534
5413.99,0.51585
5390.84,0.51765
5367.7,0.51974
5344.55,0.51781
5321.41,0.51477
5298.26,0.51124
5275.12,0.50051
5251.97,0.48343
5228.83,0.47150
5205.68,0.46426
5182.54,0.46372
5159.39,0.46988
5136.25,0.47233
5113.1,0.47688
5089.96,0.48006
5066.81,0.48310
5043.67,0.48529
5020.52,0.48271
4997.38,0.47794
4974.23,0.47309
4951.09,0.46588
4927.94,0.45690
4904.8,0.44604
4881.65,0.43548
4858.51,0.42487
4835.36,0.41725
4812.22,0.40982
4789.07,0.40348
4765.93,0.39943
4742.78,0.39641
4719.64,0.39716
4696.49,0.39799
4673.35,0.40095
4650.2,0.40434
4627.06,0.40904
4603.92,0.41592
4580.77,0.42294
4557.63,0.42759
4534.48,0.43154
4511.34,0.43775
4488.19,0.43852
4465.05,0.43288
4441.9,0.42162
4418.76,0.40648
4395.61,0.39628
4372.47,0.40282
4349.32,0.40350
4326.18,0.39873
4303.03,0.39208
4279.89,0.38792
4256.74,0.39062
4233.6,0.39379
4210.45,0.39421
4187.31,0.39662
4164.16,0.40048
4141.02,0.39686
4117.87,0.38833
4094.73,0.37256
4071.58,0.35531
4048.44,0.33598
4025.29,0.32349
4002.15,0.32379
3979,0.32994
3955.86,0.33736
3932.71,0.34700
3909.57,0.35475
3886.42,0.36183
3863.28,0.36927
3840.13,0.37656
3816.99,0.37785
3793.84,0.37618
3770.7,0.37063
3747.55,0.36051
3724.41,0.33779
3701.26,0.26067
3678.12,0.23651
3654.97,0.17350
3631.83,0.13523
3608.68,0.10159
3585.54,0.07731
3562.39,0.06196
3539.25,0.05043
3516.1,0.04421
3492.96,0.03867
3469.81,0.03556
3446.67,0.03334
3423.52,0.03279
3400.38,0.03292
3377.23,0.03230
3354.09,0.03257
3330.94,0.03462
3307.8,0.03691
3284.65,0.03827
3261.51,0.04302
3238.36,0.04913
3215.22,0.05474
3192.07,0.06112
3168.93,0.06769
3145.78,0.07617
3122.64,0.08410
3099.49,0.09174
3076.35,0.09822
3053.2,0.10515
3030.06,0.10995
3006.91,0.10868
2983.77,0.09892
2960.62,0.07487
2937.48,0.06370
2914.33,0.05947
2891.19,0.06204
2868.04,0.06779
2844.9,0.08269
2821.75,0.10789
2798.61,0.12673
2775.46,0.13647
2752.32,0.14123
2729.17,0.14566
2706.03,0.15515
2682.88,0.16694
2659.74,0.17430
2636.59,0.18340
2613.45,0.19069
2590.3,0.19803
2567.16,0.20128
2544.02,0.20194
2520.87,0.20567
2497.73,0.21755
2474.58,0.22983
2451.44,0.23821
2428.29,0.24850
2405.15,0.25899
2382,0.26636
2358.86,0.27174
2335.71,0.27720
2312.57,0.27867
2289.42,0.27524
2266.28,0.26776
2243.13,0.26377
2219.99,0.26326
2196.84,0.26205
2173.7,0.25094
2150.55,0.24137
2127.41,0.23857
2104.26,0.24161
2081.12,0.24313
2057.97,0.23899
2034.83,0.24279
2011.68,0.25701
1988.54,0.26509
1965.39,0.27037
1942.25,0.27813
1919.1,0.28325
1895.96,0.28316
1872.81,0.27880
1849.67,0.27182
1826.52,0.26107
1803.38,0.24357
1780.23,0.21879
1757.09,0.14910
1733.94,0.11391
1710.8,0.13468
1687.65,0.13436
1664.51,0.09909
1641.36,0.09544
1618.22,0.09658
1595.07,0.09269
1571.93,0.12753
1548.78,0.13504
1525.64,0.09118
1502.49,0.05947
1479.35,0.05044
1456.2,0.03923
1433.06,0.03529
1409.91,0.04055
1386.77,0.03964
1363.62,0.03877
1340.48,0.04103
1317.33,0.04147
1294.19,0.04666
1271.04,0.04135
1247.9,0.04374
1224.75,0.04403
1201.61,0.04219
1178.46,0.03271
1155.32,0.03312
1132.17,0.02923
1109.03,0.03075
1085.88,0.03115
1062.74,0.04062
1039.59,0.04352
1016.45,0.05011
993.304,0.05957
970.159,0.08023
947.014,0.10166
923.869,0.10591
900.724,0.09031
877.579,0.10288
854.434,0.11421
831.289,0.11186
808.144,0.09497
784.999,0.09124
761.854,0.08227
738.709,0.07152
715.565,0.05739
692.42,0.05307
669.275,0.04556
646.13,0.04814
622.985,0.04450
599.84,0.04766

File: Cellulose_Insulation_IS_S_220913_R4.dpt
7497.03,0.53365
7473.89,0.52993
7450.74,0.51771
7427.6,0.52242
7404.45,0.52064
7381.31,0.52166
7358.16,0.51676
7335.02,0.51540
7311.87,0.51784
7288.73,0.52102
7265.58,0.52481
7242.44,0.52576
7219.29,0.52018
7196.15,0.52572
7173,0.52098
7149.86,0.51406
7126.71,0.51732
7103.57,0.51113
7080.42,0.50320
7057.28,0.50460
7034.13,0.50102
7010.99,0.49373
6987.84,0.49150
6964.7,0.49271
6941.55,0.48879
6918.41,0.48829
6895.26,0.48524
6872.12,0.49103
6848.97,0.49028
6825.83,0.48746
6802.68,0.48323
6779.54,0.48951
6756.39,0.48439
6733.25,0.48437
6710.1,0.48393
6686.96,0.48573
6663.82,0.48835
6640.67,0.48824
6617.53,0.48752
6594.38,0.49024
6571.24,0.48944
6548.09,0.48883
6524.95,0.48682
6501.8,0.48653
6478.66,0.49342
6455.51,0.48814
6432.37,0.49135
6409.22,0.48785
6386.08,0.49018
6362.93,0.49207
6339.79,0.48840
6316.64,0.49224
6293.5,0.49577
6270.35,0.49384
6247.21,0.49878
6224.06,0.50313
6200.92,0.50359
6177.77,0.50539
6154.63,0.50595
6131.48,0.50541
6108.34,0.51207
6085.19,0.50661
6062.05,0.51362
6038.9,0.51160
6015.76,0.51232
5992.61,0.51151
5969.47,0.50917
5946.32,0.51368
5923.18,0.50997
5900.03,0.51054
5876.89,0.50981
5853.74,0.50852
5830.6,0.50991
5807.45,0.50746
5784.31,0.51032
5761.16,0.51013
5738.02,0.51016
5714.87,0.50787
5691.73,0.50993
5668.58,0.51001
5645.44,0.51068
5622.29,0.50758
5599.15,0.50999
5576,0.51134
5552.86,0.51248
5529.71,0.51270
5506.57,0.51259
5483.42,0.51460
5460.28,0.51292
5437.13,0.51528
5413.99,0.51788
5390.84,0.51898
5367.7,0.51829
5344.55,0.51673
5321.41,0.51624
5298.26,0.51129
5275.12,0.50230
5251.97,0.48678
5228.83,0.47577
5205.68,0.47011
5182.54,0.46739
5159.39,0.47235
5136.25,0.47654
5113.1,0.48089
5089.96,0.48286
5066.81,0.48596
5043.67,0.48600
5020.52,0.48527
4997.38,0.47917
4974.23,0.47292
4951.09,0.46604
4927.94,0.45644
4904.8,0.44613
4881.65,0.43401
4858.51,0.42559
4835.36,0.41824
4812.22,0.40895
4789.07,0.40465
4765.93,0.39915
4742.78,0.39619
4719.64,0.39622
4696.49,0.39764
4673.35,0.40090
4650.2,0.40366
4627.06,0.40958
4603.92,0.41507
4580.77,0.42198
4557.63,0.42751
4534.48,0.43231
4511.34,0.43754
4488.19,0.43857
4465.05,0.43371
4441.9,0.42219
4418.76,0.40616
4395.61,0.39645
4372.47,0.40129
4349.32,0.40386
4326.18,0.39822
4303.03,0.39156
4279.89,0.38768
4256.74,0.38977
4233.6,0.39287
4210.45,0.39469
4187.31,0.39636
4164.16,0.39930
4141.02,0.39695
4117.87,0.38791
4094.73,0.37327
4071.58,0.35565
4048.44,0.33662
4025.29,0.32390
4002.15,0.32410
3979,0.33029
3955.86,0.33767
3932.71,0.34690
3909.57,0.35578
3886.42,0.36291
3863.28,0.36991
3840.13,0.37805
3816.99,0.37900
3793.84,0.37670
3770.7,0.37344
3747.55,0.36332
3724.41,0.34081
3701.26,0.26219
3678.12,0.24140
3654.97,0.17848
3631.83,0.14095
3608.68,0.10542
3585.54,0.07956
3562.39,0.06304
3539.25,0.05161
3516.1,0.04413
3492.96,0.03955
3469.81,0.03587
3446.67,0.03414
3423.52,0.03311
3400.38,0.03246
3377.23,0.03251
3354.09,0.03237
3330.94,0.03386
3307.8,0.03703
3284.65,0.03935
3261.51,0.04387
3238.36,0.04962
3215.22,0.05557
3192.07,0.06254
3168.93,0.06979
3145.78,0.07840
3122.64,0.08560
3099.49,0.09318
3076.35,0.10012
3053.2,0.10668
3030.06,0.11201
3006.91,0.10985
2983.77,0.09986
2960.62,0.07567
2937.48,0.06316
2914.33,0.05923
2891.19,0.06187
2868.04,0.06795
2844.9,0.08287
2821.75,0.10843
2798.61,0.12772
2775.46,0.13649
2752.32,0.14247
2729.17,0.14622
2706.03,0.15602
2682.88,0.16787
2659.74,0.17526
2636.59,0.18389
2613.45,0.19190
2590.3,0.19821
2567.16,0.20230
2544.02,0.20240
2520.87,0.20604
2497.73,0.21729
2474.58,0.23056
2451.44,0.23871
2428.29,0.24899
2405.15,0.25968
2382,0.26774
2358.86,0.27301
2335.71,0.27837
2312.57,0.28016
2289.42,0.27691
2266.28,0.26990
2243.13,0.26529
2219.99,0.26506
2196.84,0.26363
2173.7,0.25260
2150.55,0.24275
2127.41,0.23992
2104.26,0.24339
2081.12,0.24500
2057.97,0.24038
2034.83,0.24464
2011.68,0.25862
1988.54,0.26663
1965.39,0.27222
1942.25,0.28002
1919.1,0.28477
1895.96,0.28416
1872.81,0.28052
1849.67,0.27309
1826.52,0.26237
1803.38,0.24469
1780.23,0.21941
1757.09,0.14917
1733.94,0.11444
1710.8,0.13634
1687.65,0.13628
1664.51,0.10110
1641.36,0.09864
1618.22,0.09841
1595.07,0.09355
1571.93,0.12849
1548.78,0.13620
1525.64,0.09184
1502.49,0.05969
1479.35,0.05063
1456.2,0.03895
1433.06,0.03531
1409.91,0.04040
1386.77,0.03973
1363.62,0.03904
1340.48,0.04077
1317.33,0.04131
1294.19,0.04662
1271.04,0.04142
1247.9,0.04376
1224.75,0.04396
1201.61,0.04271
1178.46,0.03311
1155.32,0.03305
1132.17,0.02908
1109.03,0.03161
1085.88,0.03077
1062.74,0.04021
1039.59,0.04330
1016.45,0.05022
993.304,0.06005
970.159,0.08076
947.014,0.10184
923.869,0.10693
900.724,0.09069
877.579,0.10363
854.434,0.11496
831.289,0.11358
808.144,0.09612
784.999,0.09393
761.854,0.08279
738.709,0.07364
715.565,0.05860
692.42,0.05416
669.275,0.04665
646.13,0.04739
622.985,0.04482
599.84,0.04751