Folder: fsri_materials_database/01_Data/Cellulose_Insulation/FTIR/IS (part 2)

File: Cellulose_Insulation_IS_S_220913_R5.dpt
7497.03,0.52589
7473.89,0.51842
7450.74,0.52139
7427.6,0.52785
7404.45,0.51932
7381.31,0.51883
7358.16,0.51832
7335.02,0.52255
7311.87,0.51613
7288.73,0.51378
7265.58,0.52134
7242.44,0.51115
7219.29,0.51738
7196.15,0.51525
7173,0.51989
7149.86,0.51552
7126.71,0.51464
7103.57,0.50790
7080.42,0.50885
7057.28,0.50372
7034.13,0.50188
7010.99,0.49243
6987.84,0.50532
6964.7,0.49606
6941.55,0.49119
6918.41,0.48873
6895.26,0.49152
6872.12,0.48666
6848.97,0.48533
6825.83,0.48704
6802.68,0.48534
6779.54,0.48583
6756.39,0.48728
6733.25,0.48407
6710.1,0.48370
6686.96,0.48093
6663.82,0.48965
6640.67,0.48907
6617.53,0.48892
6594.38,0.48819
6571.24,0.49021
6548.09,0.49147
6524.95,0.49581
6501.8,0.49236
6478.66,0.48842
6455.51,0.48961
6432.37,0.48913
6409.22,0.49487
6386.08,0.49264
6362.93,0.49228
6339.79,0.49185
6316.64,0.49213
6293.5,0.49423
6270.35,0.49501
6247.21,0.49838
6224.06,0.49911
6200.92,0.50483
6177.77,0.50516
6154.63,0.50779
6131.48,0.51049
6108.34,0.51268
6085.19,0.51049
6062.05,0.51346
6038.9,0.51391
6015.76,0.51194
5992.61,0.51208
5969.47,0.51353
5946.32,0.51122
5923.18,0.51161
5900.03,0.51097
5876.89,0.51082
5853.74,0.50880
5830.6,0.51000
5807.45,0.51073
5784.31,0.50826
5761.16,0.50981
5738.02,0.51095
5714.87,0.51005
5691.73,0.50971
5668.58,0.51137
5645.44,0.51153
5622.29,0.51161
5599.15,0.51006
5576,0.51459
5552.86,0.51083
5529.71,0.51363
5506.57,0.51432
5483.42,0.51384
5460.28,0.51471
5437.13,0.51650
5413.99,0.51906
5390.84,0.51805
5367.7,0.51950
5344.55,0.51863
5321.41,0.51705
5298.26,0.51375
5275.12,0.50390
5251.97,0.49170
5228.83,0.47948
5205.68,0.47359
5182.54,0.47321
5159.39,0.47459
5136.25,0.47882
5113.1,0.48406
5089.96,0.48720
5066.81,0.48822
5043.67,0.48895
5020.52,0.48812
4997.38,0.48190
4974.23,0.47487
4951.09,0.46859
4927.94,0.45724
4904.8,0.44813
4881.65,0.43569
4858.51,0.42697
4835.36,0.41823
4812.22,0.40925
4789.07,0.40566
4765.93,0.39959
4742.78,0.39761
4719.64,0.39778
4696.49,0.39953
4673.35,0.40262
4650.2,0.40547
4627.06,0.41119
4603.92,0.41792
4580.77,0.42352
4557.63,0.42895
4534.48,0.43383
4511.34,0.43926
4488.19,0.43989
4465.05,0.43414
4441.9,0.42249
4418.76,0.40709
4395.61,0.39617
4372.47,0.40364
4349.32,0.40579
4326.18,0.39939
4303.03,0.39283
4279.89,0.38853
4256.74,0.39211
4233.6,0.39421
4210.45,0.39628
4187.31,0.39833
4164.16,0.40210
4141.02,0.39864
4117.87,0.39017
4094.73,0.37514
4071.58,0.35682
4048.44,0.33818
4025.29,0.32493
4002.15,0.32575
3979,0.33225
3955.86,0.34015
3932.71,0.34962
3909.57,0.35743
3886.42,0.36543
3863.28,0.37240
3840.13,0.38025
3816.99,0.38120
3793.84,0.37999
3770.7,0.37609
3747.55,0.36621
3724.41,0.34404
3701.26,0.26558
3678.12,0.24475
3654.97,0.18316
3631.83,0.14414
3608.68,0.10849
3585.54,0.08196
3562.39,0.06326
3539.25,0.05258
3516.1,0.04521
3492.96,0.03940
3469.81,0.03585
3446.67,0.03405
3423.52,0.03312
3400.38,0.03262
3377.23,0.03251
3354.09,0.03333
3330.94,0.03461
3307.8,0.03659
3284.65,0.03979
3261.51,0.04390
3238.36,0.05047
3215.22,0.05676
3192.07,0.06395
3168.93,0.07152
3145.78,0.07948
3122.64,0.08731
3099.49,0.09494
3076.35,0.10144
3053.2,0.10846
3030.06,0.11348
3006.91,0.11161
2983.77,0.10044
2960.62,0.07550
2937.48,0.06326
2914.33,0.05940
2891.19,0.06200
2868.04,0.06849
2844.9,0.08316
2821.75,0.10909
2798.61,0.12817
2775.46,0.13763
2752.32,0.14333
2729.17,0.14729
2706.03,0.15655
2682.88,0.16844
2659.74,0.17652
2636.59,0.18457
2613.45,0.19309
2590.3,0.19987
2567.16,0.20343
2544.02,0.20389
2520.87,0.20748
2497.73,0.21896
2474.58,0.23112
2451.44,0.24024
2428.29,0.25063
2405.15,0.26146
2382,0.26929
2358.86,0.27474
2335.71,0.28045
2312.57,0.28234
2289.42,0.27879
2266.28,0.27164
2243.13,0.26735
2219.99,0.26696
2196.84,0.26615
2173.7,0.25466
2150.55,0.24544
2127.41,0.24251
2104.26,0.24583
2081.12,0.24725
2057.97,0.24218
2034.83,0.24663
2011.68,0.26077
1988.54,0.26893
1965.39,0.27417
1942.25,0.28169
1919.1,0.28664
1895.96,0.28637
1872.81,0.28205
1849.67,0.27500
1826.52,0.26413
1803.38,0.24640
1780.23,0.22029
1757.09,0.14921
1733.94,0.11548
1710.8,0.13750
1687.65,0.13843
1664.51,0.10343
1641.36,0.10119
1618.22,0.10056
1595.07,0.09445
1571.93,0.12999
1548.78,0.13717
1525.64,0.09205
1502.49,0.05981
1479.35,0.05084
1456.2,0.03959
1433.06,0.03503
1409.91,0.04064
1386.77,0.03908
1363.62,0.03871
1340.48,0.04072
1317.33,0.04153
1294.19,0.04651
1271.04,0.04105
1247.9,0.04377
1224.75,0.04396
1201.61,0.04281
1178.46,0.03286
1155.32,0.03343
1132.17,0.02913
1109.03,0.03089
1085.88,0.03047
1062.74,0.04018
1039.59,0.04380
1016.45,0.04939
993.304,0.06001
970.159,0.08001
947.014,0.10225
923.869,0.10650
900.724,0.09142
877.579,0.10425
854.434,0.11626
831.289,0.11497
808.144,0.09811
784.999,0.09488
761.854,0.08496
738.709,0.07472
715.565,0.05998
692.42,0.05507
669.275,0.04768
646.13,0.04851
622.985,0.04487
599.84,0.04597

File: Cellulose_Insulation_IS_S_220913_R6.dpt
7497.03,0.53365
7473.89,0.52238
7450.74,0.52051
7427.6,0.52415
7404.45,0.52233
7381.31,0.51616
7358.16,0.52182
7335.02,0.51544
7311.87,0.52134
7288.73,0.52388
7265.58,0.51980
7242.44,0.51570
7219.29,0.51620
7196.15,0.52182
7173,0.52077
7149.86,0.51385
7126.71,0.51405
7103.57,0.51284
7080.42,0.51455
7057.28,0.50960
7034.13,0.50635
7010.99,0.49415
6987.84,0.50023
6964.7,0.48975
6941.55,0.49163
6918.41,0.48792
6895.26,0.48935
6872.12,0.49363
6848.97,0.48358
6825.83,0.48341
6802.68,0.48872
6779.54,0.48536
6756.39,0.48591
6733.25,0.48183
6710.1,0.48438
6686.96,0.48850
6663.82,0.48640
6640.67,0.48524
6617.53,0.48720
6594.38,0.48809
6571.24,0.48793
6548.09,0.49249
6524.95,0.49428
6501.8,0.49128
6478.66,0.49318
6455.51,0.49258
6432.37,0.48784
6409.22,0.48728
6386.08,0.49078
6362.93,0.49252
6339.79,0.49401
6316.64,0.49047
6293.5,0.49443
6270.35,0.49607
6247.21,0.49653
6224.06,0.49886
6200.92,0.50502
6177.77,0.50338
6154.63,0.50726
6131.48,0.51013
6108.34,0.50811
6085.19,0.50965
6062.05,0.51329
6038.9,0.51261
6015.76,0.51167
5992.61,0.51019
5969.47,0.51093
5946.32,0.50977
5923.18,0.50941
5900.03,0.50774
5876.89,0.51036
5853.74,0.50774
5830.6,0.50965
5807.45,0.50735
5784.31,0.51042
5761.16,0.51148
5738.02,0.50979
5714.87,0.51178
5691.73,0.50711
5668.58,0.50914
5645.44,0.51027
5622.29,0.51065
5599.15,0.51054
5576,0.50910
5552.86,0.51157
5529.71,0.51384
5506.57,0.51198
5483.42,0.51426
5460.28,0.51391
5437.13,0.51544
5413.99,0.51618
5390.84,0.51779
5367.7,0.51683
5344.55,0.51740
5321.41,0.51519
5298.26,0.51215
5275.12,0.50383
5251.97,0.49025
5228.83,0.48050
5205.68,0.47485
5182.54,0.47404
5159.39,0.47732
5136.25,0.48032
5113.1,0.48412
5089.96,0.48574
5066.81,0.48789
5043.67,0.48731
5020.52,0.48528
4997.38,0.48117
4974.23,0.47498
4951.09,0.46632
4927.94,0.45680
4904.8,0.44632
4881.65,0.43572
4858.51,0.42688
4835.36,0.41740
4812.22,0.40900
4789.07,0.40377
4765.93,0.39948
4742.78,0.39679
4719.64,0.39677
4696.49,0.39887
4673.35,0.40043
4650.2,0.40464
4627.06,0.40870
4603.92,0.41632
4580.77,0.42168
4557.63,0.42781
4534.48,0.43186
4511.34,0.43720
4488.19,0.43832
4465.05,0.43311
4441.9,0.42129
4418.76,0.40677
4395.61,0.39580
4372.47,0.40210
4349.32,0.40296
4326.18,0.39830
4303.03,0.39124
4279.89,0.38683
4256.74,0.38979
4233.6,0.39291
4210.45,0.39506
4187.31,0.39681
4164.16,0.40072
4141.02,0.39772
4117.87,0.38989
4094.73,0.37343
4071.58,0.35600
4048.44,0.33761
4025.29,0.32453
4002.15,0.32522
3979,0.33122
3955.86,0.33883
3932.71,0.34806
3909.57,0.35688
3886.42,0.36414
3863.28,0.37125
3840.13,0.37932
3816.99,0.38130
3793.84,0.37911
3770.7,0.37545
3747.55,0.36700
3724.41,0.34385
3701.26,0.26553
3678.12,0.24557
3654.97,0.18427
3631.83,0.14612
3608.68,0.10983
3585.54,0.08258
3562.39,0.06424
3539.25,0.05299
3516.1,0.04560
3492.96,0.03992
3469.81,0.03655
3446.67,0.03455
3423.52,0.03293
3400.38,0.03237
3377.23,0.03285
3354.09,0.03260
3330.94,0.03485
3307.8,0.03688
3284.65,0.03896
3261.51,0.04452
3238.36,0.05047
3215.22,0.05660
3192.07,0.06379
3168.93,0.07148
3145.78,0.07972
3122.64,0.08776
3099.49,0.09574
3076.35,0.10217
3053.2,0.10886
3030.06,0.11381
3006.91,0.11175
2983.77,0.10056
2960.62,0.07489
2937.48,0.06350
2914.33,0.05947
2891.19,0.06253
2868.04,0.06758
2844.9,0.08317
2821.75,0.10859
2798.61,0.12832
2775.46,0.13737
2752.32,0.14305
2729.17,0.14696
2706.03,0.15669
2682.88,0.16876
2659.74,0.17643
2636.59,0.18432
2613.45,0.19238
2590.3,0.19919
2567.16,0.20286
2544.02,0.20342
2520.87,0.20680
2497.73,0.21861
2474.58,0.23115
2451.44,0.23961
2428.29,0.25001
2405.15,0.26049
2382,0.26859
2358.86,0.27453
2335.71,0.28057
2312.57,0.28170
2289.42,0.27890
2266.28,0.27137
2243.13,0.26708
2219.99,0.26704
2196.84,0.26550
2173.7,0.25502
2150.55,0.24542
2127.41,0.24223
2104.26,0.24578
2081.12,0.24709
2057.97,0.24249
2034.83,0.24649
2011.68,0.26075
1988.54,0.26849
1965.39,0.27425
1942.25,0.28170
1919.1,0.28648
1895.96,0.28584
1872.81,0.28210
1849.67,0.27484
1826.52,0.26392
1803.38,0.24639
1780.23,0.22001
1757.09,0.14817
1733.94,0.11544
1710.8,0.13753
1687.65,0.13886
1664.51,0.10423
1641.36,0.10252
1618.22,0.10110
1595.07,0.09453
1571.93,0.13034
1548.78,0.13733
1525.64,0.09212
1502.49,0.05930
1479.35,0.05076
1456.2,0.03921
1433.06,0.03508
1409.91,0.04058
1386.77,0.03921
1363.62,0.03853
1340.48,0.04055
1317.33,0.04122
1294.19,0.04617
1271.04,0.04167
1247.9,0.04364
1224.75,0.04390
1201.61,0.04290
1178.46,0.03287
1155.32,0.03322
1132.17,0.02862
1109.03,0.03149
1085.88,0.03154
1062.74,0.04003
1039.59,0.04295
1016.45,0.04971
993.304,0.05949
970.159,0.08061
947.014,0.10210
923.869,0.10665
900.724,0.09206
877.579,0.10412
854.434,0.11707
831.289,0.11603
808.144,0.09840
784.999,0.09641
761.854,0.08540
738.709,0.07552
715.565,0.05907
692.42,0.05500
669.275,0.04809
646.13,0.04896
622.985,0.04256
599.84,0.04941

File: Cellulose_Insulation_IS_S_220913_R7.dpt
7497.03,0.53120
7473.89,0.52751
7450.74,0.52478
7427.6,0.52845
7404.45,0.52232
7381.31,0.52518
7358.16,0.51630
7335.02,0.51720
7311.87,0.52097
7288.73,0.51468
7265.58,0.50954
7242.44,0.51879
7219.29,0.52092
7196.15,0.51728
7173,0.51727
7149.86,0.51778
7126.71,0.51144
7103.57,0.51356
7080.42,0.51197
7057.28,0.50482
7034.13,0.50431
7010.99,0.49386
6987.84,0.49739
6964.7,0.48912
6941.55,0.49221
6918.41,0.48994
6895.26,0.48603
6872.12,0.48878
6848.97,0.49171
6825.83,0.48016
6802.68,0.48536
6779.54,0.48869
6756.39,0.48915
6733.25,0.48698
6710.1,0.48422
6686.96,0.48950
6663.82,0.48332
6640.67,0.48574
6617.53,0.48754
6594.38,0.49323
6571.24,0.48934
6548.09,0.48763
6524.95,0.48936
6501.8,0.49205
6478.66,0.48843
6455.51,0.48889
6432.37,0.49190
6409.22,0.49231
6386.08,0.49121
6362.93,0.49455
6339.79,0.49312
6316.64,0.49544
6293.5,0.49205
6270.35,0.50027
6247.21,0.49750
6224.06,0.50149
6200.92,0.50507
6177.77,0.50656
6154.63,0.50957
6131.48,0.51011
6108.34,0.51094
6085.19,0.51287
6062.05,0.51104
6038.9,0.51021
6015.76,0.51394
5992.61,0.51334
5969.47,0.51235
5946.32,0.51428
5923.18,0.51446
5900.03,0.51065
5876.89,0.50919
5853.74,0.51078
5830.6,0.51070
5807.45,0.51154
5784.31,0.50691
5761.16,0.50857
5738.02,0.51278
5714.87,0.51062
5691.73,0.51162
5668.58,0.51102
5645.44,0.50949
5622.29,0.51197
5599.15,0.51383
5576,0.51326
5552.86,0.51268
5529.71,0.51257
5506.57,0.51354
5483.42,0.51322
5460.28,0.51683
5437.13,0.51608
5413.99,0.51652
5390.84,0.51759
5367.7,0.51808
5344.55,0.51974
5321.41,0.51880
5298.26,0.51403
5275.12,0.50475
5251.97,0.49351
5228.83,0.48241
5205.68,0.47817
5182.54,0.47571
5159.39,0.47983
5136.25,0.48307
5113.1,0.48795
5089.96,0.48928
5066.81,0.49040
5043.67,0.49032
5020.52,0.48723
4997.38,0.48387
4974.23,0.47688
4951.09,0.46916
4927.94,0.45754
4904.8,0.44771
4881.65,0.43775
4858.51,0.42645
4835.36,0.41873
4812.22,0.41004
4789.07,0.40405
4765.93,0.40040
4742.78,0.39806
4719.64,0.39755
4696.49,0.39893
4673.35,0.40267
4650.2,0.40545
4627.06,0.41058
4603.92,0.41818
4580.77,0.42357
4557.63,0.42889
4534.48,0.43374
4511.34,0.43984
4488.19,0.43922
4465.05,0.43471
4441.9,0.42307
4418.76,0.40761
4395.61,0.39699
4372.47,0.40415
4349.32,0.40625
4326.18,0.39976
4303.03,0.39319
4279.89,0.38843
4256.74,0.39162
4233.6,0.39427
4210.45,0.39587
4187.31,0.39805
4164.16,0.40220
4141.02,0.39975
4117.87,0.39077
4094.73,0.37462
4071.58,0.35739
4048.44,0.33828
4025.29,0.32566
4002.15,0.32646
3979,0.33316
3955.86,0.33951
3932.71,0.34959
3909.57,0.35855
3886.42,0.36577
3863.28,0.37296
3840.13,0.38142
3816.99,0.38323
3793.84,0.38088
3770.7,0.37763
3747.55,0.36826
3724.41,0.34591
3701.26,0.26789
3678.12,0.24786
3654.97,0.18733
3631.83,0.14838
3608.68,0.11078
3585.54,0.08371
3562.39,0.06455
3539.25,0.05325
3516.1,0.04523
3492.96,0.03942
3469.81,0.03609
3446.67,0.03440
3423.52,0.03278
3400.38,0.03258
3377.23,0.03223
3354.09,0.03285
3330.94,0.03407
3307.8,0.03734
3284.65,0.04003
3261.51,0.04423
3238.36,0.05114
3215.22,0.05733
3192.07,0.06453
3168.93,0.07221
3145.78,0.08068
3122.64,0.08865
3099.49,0.09680
3076.35,0.10321
3053.2,0.11005
3030.06,0.11442
3006.91,0.11289
2983.77,0.10141
2960.62,0.07578
2937.48,0.06336
2914.33,0.05941
2891.19,0.06266
2868.04,0.06806
2844.9,0.08326
2821.75,0.10964
2798.61,0.12885
2775.46,0.13795
2752.32,0.14384
2729.17,0.14722
2706.03,0.15775
2682.88,0.16917
2659.74,0.17744
2636.59,0.18534
2613.45,0.19329
2590.3,0.20043
2567.16,0.20390
2544.02,0.20441
2520.87,0.20755
2497.73,0.21980
2474.58,0.23233
2451.44,0.24073
2428.29,0.25096
2405.15,0.26194
2382,0.27041
2358.86,0.27586
2335.71,0.28206
2312.57,0.28385
2289.42,0.28054
2266.28,0.27338
2243.13,0.26906
2219.99,0.26874
2196.84,0.26722
2173.7,0.25638
2150.55,0.24667
2127.41,0.24388
2104.26,0.24738
2081.12,0.24897
2057.97,0.24390
2034.83,0.24800
2011.68,0.26251
1988.54,0.27030
1965.39,0.27590
1942.25,0.28307
1919.1,0.28818
1895.96,0.28754
1872.81,0.28389
1849.67,0.27645
1826.52,0.26523
1803.38,0.24779
1780.23,0.22102
1757.09,0.14816
1733.94,0.11550
1710.8,0.13850
1687.65,0.13983
1664.51,0.10566
1641.36,0.10356
1618.22,0.10194
1595.07,0.09515
1571.93,0.13107
1548.78,0.13837
1525.64,0.09224
1502.49,0.05964
1479.35,0.05060
1456.2,0.03975
1433.06,0.03529
1409.91,0.04085
1386.77,0.03948
1363.62,0.03907
1340.48,0.04028
1317.33,0.04132
1294.19,0.04622
1271.04,0.04098
1247.9,0.04333
1224.75,0.04401
1201.61,0.04285
1178.46,0.03252
1155.32,0.03302
1132.17,0.02873
1109.03,0.03087
1085.88,0.03024
1062.74,0.04033
1039.59,0.04315
1016.45,0.04937
993.304,0.05932
970.159,0.08045
947.014,0.10185
923.869,0.10705
900.724,0.09186
877.579,0.10461
854.434,0.11772
831.289,0.11751
808.144,0.10043
784.999,0.09572
761.854,0.08576
738.709,0.07514
715.565,0.05898
692.42,0.05385
669.275,0.04588
646.13,0.04861
622.985,0.04356
599.84,0.04678

File: Cellulose_Insulation_IS_S_220913_R8.dpt
7497.03,0.53216
7473.89,0.53030
7450.74,0.53067
7427.6,0.53324
7404.45,0.52541
7381.31,0.52827
7358.16,0.52610
7335.02,0.52190
7311.87,0.52351
7288.73,0.52364
7265.58,0.51883
7242.44,0.53429
7219.29,0.51985
7196.15,0.53019
7173,0.52066
7149.86,0.51599
7126.71,0.52021
7103.57,0.51767
7080.42,0.51085
7057.28,0.50955
7034.13,0.51143
7010.99,0.50052
6987.84,0.49592
6964.7,0.49725
6941.55,0.48978
6918.41,0.48860
6895.26,0.50092
6872.12,0.50121
6848.97,0.49056
6825.83,0.49484
6802.68,0.49339
6779.54,0.49075
6756.39,0.48796
6733.25,0.49190
6710.1,0.48969
6686.96,0.48964
6663.82,0.49157
6640.67,0.49235
6617.53,0.49501
6594.38,0.49704
6571.24,0.49718
6548.09,0.49913
6524.95,0.50139
6501.8,0.49270
6478.66,0.49517
6455.51,0.49737
6432.37,0.49844
6409.22,0.49765
6386.08,0.49524
6362.93,0.49781
6339.79,0.49635
6316.64,0.49825
6293.5,0.50032
6270.35,0.50621
6247.21,0.50659
6224.06,0.50600
6200.92,0.50878
6177.77,0.51359
6154.63,0.51923
6131.48,0.51577
6108.34,0.51587
6085.19,0.51806
6062.05,0.52028
6038.9,0.52161
6015.76,0.52263
5992.61,0.52246
5969.47,0.52144
5946.32,0.51878
5923.18,0.52221
5900.03,0.52060
5876.89,0.51931
5853.74,0.51801
5830.6,0.51837
5807.45,0.51759
5784.31,0.51653
5761.16,0.51817
5738.02,0.51817
5714.87,0.52036
5691.73,0.51877
5668.58,0.52125
5645.44,0.52062
5622.29,0.52210
5599.15,0.51979
5576,0.52043
5552.86,0.51960
5529.71,0.52167
5506.57,0.52399
5483.42,0.52216
5460.28,0.52419
5437.13,0.52597
5413.99,0.52882
5390.84,0.52723
5367.7,0.52732
5344.55,0.52795
5321.41,0.52644
5298.26,0.52141
5275.12,0.51196
5251.97,0.49704
5228.83,0.48460
5205.68,0.47908
5182.54,0.47639
5159.39,0.47855
5136.25,0.48344
5113.1,0.48899
5089.96,0.49224
5066.81,0.49513
5043.67,0.49465
5020.52,0.49407
4997.38,0.49024
4974.23,0.48254
4951.09,0.47545
4927.94,0.46551
4904.8,0.45466
4881.65,0.44215
4858.51,0.43209
4835.36,0.42413
4812.22,0.41570
4789.07,0.40960
4765.93,0.40541
4742.78,0.40160
4719.64,0.40100
4696.49,0.40440
4673.35,0.40719
4650.2,0.41080
4627.06,0.41567
4603.92,0.42194
4580.77,0.42953
4557.63,0.43467
4534.48,0.43904
4511.34,0.44539
4488.19,0.44654
4465.05,0.44146
4441.9,0.43009
4418.76,0.41480
4395.61,0.40288
4372.47,0.40922
4349.32,0.40979
4326.18,0.40435
4303.03,0.39714
4279.89,0.39229
4256.74,0.39479
4233.6,0.39877
4210.45,0.39941
4187.31,0.40273
4164.16,0.40633
4141.02,0.40303
4117.87,0.39389
4094.73,0.37785
4071.58,0.36028
4048.44,0.34017
4025.29,0.32688
4002.15,0.32750
3979,0.33345
3955.86,0.34154
3932.71,0.35109
3909.57,0.35972
3886.42,0.36757
3863.28,0.37537
3840.13,0.38377
3816.99,0.38517
3793.84,0.38297
3770.7,0.37774
3747.55,0.36867
3724.41,0.34253
3701.26,0.25468
3678.12,0.23482
3654.97,0.17369
3631.83,0.13760
3608.68,0.10372
3585.54,0.07930
3562.39,0.06270
3539.25,0.05166
3516.1,0.04427
3492.96,0.03891
3469.81,0.03552
3446.67,0.03364
3423.52,0.03229
3400.38,0.03217
3377.23,0.03208
3354.09,0.03146
3330.94,0.03432
3307.8,0.03636
3284.65,0.03864
3261.51,0.04361
3238.36,0.04884
3215.22,0.05505
3192.07,0.06200
3168.93,0.06858
3145.78,0.07643
3122.64,0.08479
3099.49,0.09237
3076.35,0.09955
3053.2,0.10614
3030.06,0.11101
3006.91,0.10998
2983.77,0.09917
2960.62,0.07444
2937.48,0.06260
2914.33,0.05783
2891.19,0.06112
2868.04,0.06678
2844.9,0.08179
2821.75,0.10818
2798.61,0.12683
2775.46,0.13637
2752.32,0.14188
2729.17,0.14565
2706.03,0.15556
2682.88,0.16744
2659.74,0.17562
2636.59,0.18395
2613.45,0.19205
2590.3,0.19893
2567.16,0.20256
2544.02,0.20291
2520.87,0.20498
2497.73,0.21796
2474.58,0.23121
2451.44,0.23985
2428.29,0.25061
2405.15,0.26119
2382,0.26909
2358.86,0.27568
2335.71,0.28091
2312.57,0.28271
2289.42,0.27924
2266.28,0.27192
2243.13,0.26761
2219.99,0.26686
2196.84,0.26566
2173.7,0.25409
2150.55,0.24456
2127.41,0.24168
2104.26,0.24493
2081.12,0.24663
2057.97,0.24203
2034.83,0.24626
2011.68,0.26085
1988.54,0.26912
1965.39,0.27462
1942.25,0.28224
1919.1,0.28727
1895.96,0.28692
1872.81,0.28282
1849.67,0.27525
1826.52,0.26434
1803.38,0.24531
1780.23,0.22049
1757.09,0.15376
1733.94,0.11839
1710.8,0.13808
1687.65,0.13679
1664.51,0.10181
1641.36,0.09786
1618.22,0.09829
1595.07,0.09444
1571.93,0.12788
1548.78,0.13249
1525.64,0.09002
1502.49,0.05940
1479.35,0.04874
1456.2,0.03885
1433.06,0.03445
1409.91,0.04013
1386.77,0.03884
1363.62,0.03820
1340.48,0.04017
1317.33,0.04083
1294.19,0.04582
1271.04,0.04144
1247.9,0.04332
1224.75,0.04334
1201.61,0.04163
1178.46,0.03173
1155.32,0.03190
1132.17,0.02784
1109.03,0.03007
1085.88,0.03009
1062.74,0.04007
1039.59,0.04313
1016.45,0.04937
993.304,0.05866
970.159,0.07864
947.014,0.09980
923.869,0.10298
900.724,0.08859
877.579,0.10087
854.434,0.11266
831.289,0.11332
808.144,0.09609
784.999,0.09112
761.854,0.08265
738.709,0.07034
715.565,0.05657
692.42,0.05312
669.275,0.04535
646.13,0.04787
622.985,0.04275
599.84,0.04776

File: Cellulose_Insulation_IS_T_220913_R5.dpt
7497.03,0.02329
7473.89,0.02275
7450.74,0.03644
7427.6,0.02097
7404.45,0.01992
7381.31,0.02825
7358.16,0.02430
7335.02,0.01859
7311.87,0.02662
7288.73,0.02968
7265.58,0.02432
7242.44,0.02560
7219.29,0.02749
7196.15,0.02380
7173,0.02080
7149.86,0.02458
7126.71,0.02472
7103.57,0.02575
7080.42,0.02508
7057.28,0.03269
7034.13,0.02187
7010.99,0.02495
6987.84,0.03082
6964.7,0.02598
6941.55,0.02337
6918.41,0.02822
6895.26,0.02157
6872.12,0.02404
6848.97,0.02393
6825.83,0.02204
6802.68,0.02429
6779.54,0.02607
6756.39,0.02155
6733.25,0.02023
6710.1,0.02901
6686.96,0.02107
6663.82,0.02187
6640.67,0.02416
6617.53,0.01989
6594.38,0.02611
6571.24,0.02019
6548.09,0.02572
6524.95,0.02233
6501.8,0.02235
6478.66,0.02145
6455.51,0.01849
6432.37,0.02346
6409.22,0.02330
6386.08,0.02290
6362.93,0.02593
6339.79,0.02260
6316.64,0.02383
6293.5,0.02456
6270.35,0.02273
6247.21,0.02112
6224.06,0.02199
6200.92,0.02368
6177.77,0.02113
6154.63,0.01977
6131.48,0.02278
6108.34,0.01963
6085.19,0.02079
6062.05,0.02045
6038.9,0.02281
6015.76,0.01921
5992.61,0.02230
5969.47,0.02221
5946.32,0.02211
5923.18,0.02262
5900.03,0.02141
5876.89,0.02545
5853.74,0.02048
5830.6,0.02111
5807.45,0.02304
5784.31,0.02174
5761.16,0.02260
5738.02,0.02195
5714.87,0.02317
5691.73,0.02053
5668.58,0.02142
5645.44,0.02136
5622.29,0.01959
5599.15,0.02258
5576,0.02188
5552.86,0.02267
5529.71,0.02289
5506.57,0.02031
5483.42,0.02220
5460.28,0.02096
5437.13,0.02225
5413.99,0.02359
5390.84,0.02148
5367.7,0.02086
5344.55,0.02235
5321.41,0.02382
5298.26,0.02203
5275.12,0.02215
5251.97,0.02210
5228.83,0.02413
5205.68,0.02129
5182.54,0.02284
5159.39,0.02130
5136.25,0.02039
5113.1,0.02223
5089.96,0.02260
5066.81,0.02234
5043.67,0.02325
5020.52,0.02189
4997.38,0.02360
4974.23,0.02176
4951.09,0.02335
4927.94,0.02247
4904.8,0.02173
4881.65,0.02321
4858.51,0.02240
4835.36,0.02224
4812.22,0.02245
4789.07,0.02294
4765.93,0.02209
4742.78,0.02206
4719.64,0.02256
4696.49,0.02288
4673.35,0.02282
4650.2,0.02374
4627.06,0.02265
4603.92,0.02246
4580.77,0.02179
4557.63,0.02247
4534.48,0.02274
4511.34,0.02234
4488.19,0.02244
4465.05,0.02341
4441.9,0.02178
4418.76,0.02226
4395.61,0.02226
4372.47,0.02247
4349.32,0.02349
4326.18,0.02299
4303.03,0.02257
4279.89,0.02200
4256.74,0.02258
4233.6,0.02183
4210.45,0.02325
4187.31,0.02253
4164.16,0.02298
4141.02,0.02202
4117.87,0.02297
4094.73,0.02256
4071.58,0.02248
4048.44,0.02237
4025.29,0.02252
4002.15,0.02304
3979,0.02261
3955.86,0.02293
3932.71,0.02356
3909.57,0.02257
3886.42,0.02265
3863.28,0.02246
3840.13,0.02289
3816.99,0.02331
3793.84,0.02232
3770.7,0.02245
3747.55,0.02235
3724.41,0.02297
3701.26,0.02292
3678.12,0.02319
3654.97,0.02229
3631.83,0.02300
3608.68,0.02147
3585.54,0.02152
3562.39,0.02170
3539.25,0.02182
3516.1,0.02153
3492.96,0.02099
3469.81,0.02033
3446.67,0.02086
3423.52,0.02084
3400.38,0.02084
3377.23,0.02106
3354.09,0.02036
3330.94,0.02031
3307.8,0.02029
3284.65,0.02006
3261.51,0.02076
3238.36,0.02110
3215.22,0.02124
3192.07,0.02047
3168.93,0.02074
3145.78,0.02092
3122.64,0.02194
3099.49,0.02146
3076.35,0.02057
3053.2,0.02045
3030.06,0.02089
3006.91,0.02065
2983.77,0.02030
2960.62,0.01942
2937.48,0.01970
2914.33,0.02041
2891.19,0.02078
2868.04,0.02093
2844.9,0.02096
2821.75,0.02098
2798.61,0.02122
2775.46,0.02120
2752.32,0.02152
2729.17,0.02171
2706.03,0.02146
2682.88,0.02142
2659.74,0.02139
2636.59,0.02141
2613.45,0.02137
2590.3,0.02159
2567.16,0.02142
2544.02,0.02135
2520.87,0.02103
2497.73,0.02151
2474.58,0.02148
2451.44,0.02092
2428.29,0.02114
2405.15,0.02151
2382,0.02138
2358.86,0.02133
2335.71,0.02133
2312.57,0.02138
2289.42,0.02128
2266.28,0.02139
2243.13,0.02123
2219.99,0.02116
2196.84,0.02098
2173.7,0.02121
2150.55,0.02120
2127.41,0.02112
2104.26,0.02115
2081.12,0.02107
2057.97,0.02096
2034.83,0.02087
2011.68,0.02084
1988.54,0.02111
1965.39,0.02060
1942.25,0.02093
1919.1,0.02104
1895.96,0.02045
1872.81,0.02067
1849.67,0.02016
1826.52,0.02024
1803.38,0.01964
1780.23,0.01922
1757.09,0.01768
1733.94,0.01944
1710.8,0.02060
1687.65,0.01973
1664.51,0.01917
1641.36,0.01851
1618.22,0.01894
1595.07,0.01902
1571.93,0.01883
1548.78,0.01860
1525.64,0.01815
1502.49,0.01882
1479.35,0.01845
1456.2,0.01896
1433.06,0.01898
1409.91,0.01863
1386.77,0.01852
1363.62,0.01825
1340.48,0.01849
1317.33,0.01720
1294.19,0.01801
1271.04,0.01913
1247.9,0.02045
1224.75,0.01943
1201.61,0.01926
1178.46,0.01876
1155.32,0.01693
1132.17,0.01828
1109.03,0.01916
1085.88,0.01849
1062.74,0.02009
1039.59,0.01998
1016.45,0.01949
993.304,0.02152
970.159,0.02070
947.014,0.01992
923.869,0.01937
900.724,0.01990
877.579,0.01934
854.434,0.01961
831.289,0.02017
808.144,0.01844
784.999,0.01895
761.854,0.01879
738.709,0.01852
715.565,0.01735
692.42,0.01832
669.275,0.01831
646.13,0.01817
622.985,0.01586
599.84,0.01774