Folder: fsri_materials_database/01_Data/Nylon/FTIR/IS (part 6)

File: Nylon_3.175_Trans_S_IS_221212_R3.dpt
7497.02,0.59071
7473.87,0.58714
7450.73,0.59157
7427.58,0.58007
7404.44,0.58201
7381.29,0.57839
7358.15,0.56215
7335,0.54839
7311.86,0.52183
7288.71,0.50832
7265.57,0.47450
7242.42,0.43238
7219.28,0.42364
7196.13,0.41034
7172.99,0.42559
7149.84,0.42020
7126.7,0.41111
7103.55,0.40079
7080.41,0.40147
7057.26,0.40187
7034.12,0.40017
7010.98,0.39822
6987.83,0.40885
6964.69,0.40639
6941.54,0.41358
6918.4,0.42132
6895.25,0.42137
6872.11,0.43030
6848.96,0.42897
6825.82,0.42844
6802.67,0.42591
6779.53,0.41361
6756.38,0.39929
6733.24,0.39265
6710.09,0.37822
6686.95,0.36947
6663.8,0.35765
6640.66,0.32968
6617.51,0.29366
6594.37,0.29363
6571.22,0.28992
6548.08,0.27016
6524.93,0.24295
6501.79,0.23131
6478.64,0.24169
6455.5,0.31610
6432.35,0.37236
6409.21,0.37718
6386.06,0.34677
6362.92,0.32081
6339.77,0.32305
6316.63,0.35845
6293.48,0.38216
6270.34,0.35673
6247.19,0.34026
6224.05,0.34635
6200.9,0.37838
6177.76,0.40786
6154.61,0.46049
6131.47,0.48620
6108.32,0.49808
6085.18,0.50467
6062.03,0.49558
6038.89,0.49406
6015.74,0.48447
5992.6,0.47162
5969.45,0.44907
5946.31,0.41204
5923.16,0.33876
5900.02,0.22867
5876.88,0.12276
5853.73,0.05999
5830.59,0.03598
5807.44,0.04620
5784.3,0.07161
5761.15,0.09286
5738.01,0.07178
5714.86,0.05322
5691.72,0.06157
5668.57,0.09491
5645.43,0.13253
5622.28,0.16646
5599.14,0.17809
5575.99,0.19038
5552.85,0.20190
5529.7,0.21038
5506.56,0.22282
5483.41,0.23500
5460.27,0.24190
5437.12,0.25405
5413.98,0.25738
5390.83,0.28502
5367.69,0.30590
5344.54,0.30832
5321.4,0.30436
5298.25,0.25768
5275.11,0.21256
5251.96,0.17963
5228.82,0.14469
5205.67,0.10905
5182.53,0.07830
5159.38,0.06049
5136.24,0.05264
5113.09,0.05536
5089.95,0.06606
5066.8,0.07908
5043.66,0.09238
5020.51,0.09823
4997.37,0.07576
4974.22,0.03366
4951.08,0.02984
4927.93,0.03023
4904.79,0.01333
4881.64,0.00301
4858.5,0.00367
4835.35,0.03613
4812.21,0.06953
4789.06,0.06319
4765.92,0.05945
4742.78,0.04537
4719.63,0.02617
4696.49,0.01281
4673.34,0.01041
4650.2,0.00996
4627.05,0.00599
4603.91,0.00266
4580.76,0.00106
4557.62,0.00146
4534.47,0.00232
4511.33,0.00520
4488.18,0.00724
4465.04,0.00588
4441.89,0.00346
4418.75,0.00093
4395.6,0.00090
4372.46,0.00064
4349.31,0.00006
4326.17,0.00030
4303.02,0.00073
4279.88,0.00056
4256.73,0.00007
4233.59,0.00066
4210.44,0.00033
4187.3,0.00039
4164.15,0.00024
4141.01,0.00046
4117.86,0.00055
4094.72,0.00071
4071.57,0.00001
4048.43,0.00020
4025.28,0.00059
4002.14,0.00018
3978.99,0.00043
3955.85,0.00047
3932.7,0.00068
3909.56,0.00132
3886.41,0.00228
3863.27,0.00383
3840.12,0.00223
3816.98,0.00279
3793.83,0.00394
3770.69,0.00515
3747.54,0.00397
3724.4,0.00332
3701.25,0.00163
3678.11,0.00019
3654.97,0.00041
3631.82,0.00042
3608.68,0.00046
3585.53,0.00032
3562.39,0.00035
3539.24,0.00048
3516.1,0.00083
3492.95,0.00111
3469.81,0.00036
3446.66,0.00039
3423.52,0.00097
3400.37,0.00073
3377.23,0.00089
3354.08,0.00024
3330.94,0.00047
3307.79,0.00013
3284.65,0.00028
3261.5,0.00047
3238.36,0.00045
3215.21,0.00076
3192.07,0.00017
3168.92,0.00060
3145.78,0.00051
3122.63,0.00011
3099.49,0.00027
3076.34,0.00054
3053.2,0.00018
3030.05,0.00062
3006.91,0.00021
2983.76,0.00058
2960.62,0.00024
2937.47,0.00027
2914.33,0.00009
2891.18,0.00015
2868.04,0.00035
2844.89,0.00002
2821.75,0.00046
2798.6,0.00040
2775.46,0.00024
2752.31,0.00022
2729.17,0.00011
2706.02,0.00028
2682.88,0.00011
2659.73,0.00033
2636.59,0.00037
2613.44,0.00016
2590.3,0.00037
2567.15,0.00029
2544.01,0.00037
2520.87,0.00017
2497.72,0.00039
2474.58,0.00022
2451.43,0.00049
2428.29,0.00007
2405.14,0.00038
2382,0.00034
2358.85,0.00036
2335.71,0.00007
2312.56,0.00029
2289.42,0.00043
2266.27,0.00028
2243.13,0.00033
2219.98,0.00027
2196.84,0.00029
2173.69,0.00002
2150.55,0.00008
2127.4,0.00018
2104.26,0.00027
2081.11,0.00026
2057.97,0.00016
2034.82,0.00034
2011.68,0.00032
1988.53,-0.00000
1965.39,0.00018
1942.24,0.00019
1919.1,0.00048
1895.95,0.00036
1872.81,0.00047
1849.66,0.00017
1826.52,0.00020
1803.37,0.00021
1780.23,0.00027
1757.08,0.00026
1733.94,0.00023
1710.79,0.00008
1687.65,0.00015
1664.5,0.00007
1641.36,0.00017
1618.21,0.00051
1595.07,0.00022
1571.92,0.00019
1548.78,0.00013
1525.63,0.00051
1502.49,0.00024
1479.34,0.00036
1456.2,0.00020
1433.05,0.00017
1409.91,0.00034
1386.77,0.00016
1363.62,0.00023
1340.48,0.00016
1317.33,0.00022
1294.19,0.00020
1271.04,0.00029
1247.9,0.00039
1224.75,0.00036
1201.61,0.00060
1178.46,0.00042
1155.32,0.00017
1132.17,0.00041
1109.03,0.00033
1085.88,0.00013
1062.74,0.00076
1039.59,0.00009
1016.45,0.00041
993.302,0.00021
970.157,0.00039
947.012,0.00027
923.867,0.00094
900.722,0.00047
877.577,0.00034
854.432,0.00021
831.288,0.00031
808.143,0.00092
784.998,0.00083
761.853,0.00033
738.708,0.00094
715.563,0.00086
692.418,0.00087
669.273,0.00058
646.128,0.00111
622.983,0.00195
599.839,0.00130