Folder: fsri_materials_database/01_Data/Nylon/FTIR/IS (part 4)

File: Nylon_3.175_S_IS_221212_R8.dpt
7497.02,0.12120
7473.87,0.11464
7450.73,0.11838
7427.58,0.12344
7404.44,0.11862
7381.29,0.11649
7358.15,0.12178
7335,0.11411
7311.86,0.10207
7288.71,0.09203
7265.57,0.08777
7242.42,0.08402
7219.28,0.08494
7196.13,0.08424
7172.99,0.08362
7149.84,0.08134
7126.7,0.08348
7103.55,0.08069
7080.41,0.08083
7057.26,0.07185
7034.12,0.07834
7010.98,0.08282
6987.83,0.08073
6964.69,0.08032
6941.54,0.08301
6918.4,0.08362
6895.25,0.08158
6872.11,0.08369
6848.96,0.07976
6825.82,0.07884
6802.67,0.07982
6779.53,0.07953
6756.38,0.07437
6733.24,0.07323
6710.09,0.07597
6686.95,0.07429
6663.8,0.07377
6640.66,0.07231
6617.51,0.06251
6594.37,0.06664
6571.22,0.06802
6548.08,0.06128
6524.93,0.06542
6501.79,0.06553
6478.64,0.06371
6455.5,0.06466
6432.35,0.06984
6409.21,0.07137
6386.06,0.07054
6362.92,0.06477
6339.77,0.06580
6316.63,0.07054
6293.48,0.07039
6270.34,0.07213
6247.19,0.06750
6224.05,0.06802
6200.9,0.07184
6177.76,0.07671
6154.61,0.08160
6131.47,0.08741
6108.32,0.08508
6085.18,0.08658
6062.03,0.08457
6038.89,0.08527
6015.74,0.08366
5992.6,0.07937
5969.45,0.07962
5946.31,0.07537
5923.16,0.06675
5900.02,0.06262
5876.88,0.05655
5853.73,0.05309
5830.59,0.05401
5807.44,0.05354
5784.3,0.05492
5761.15,0.05682
5738.01,0.05776
5714.86,0.05603
5691.72,0.05607
5668.57,0.05755
5645.43,0.05695
5622.28,0.05897
5599.14,0.05919
5575.99,0.05847
5552.85,0.06029
5529.7,0.06155
5506.56,0.06286
5483.41,0.06215
5460.27,0.06131
5437.12,0.06440
5413.98,0.06134
5390.83,0.06509
5367.69,0.06623
5344.54,0.06644
5321.4,0.06574
5298.25,0.06310
5275.11,0.06202
5251.96,0.05878
5228.82,0.05796
5205.67,0.05713
5182.53,0.05734
5159.38,0.05720
5136.24,0.05622
5113.09,0.05681
5089.95,0.05795
5066.8,0.05786
5043.66,0.05816
5020.51,0.05776
4997.37,0.05785
4974.22,0.05705
4951.08,0.05603
4927.93,0.05690
4904.79,0.05664
4881.64,0.05702
4858.5,0.05710
4835.35,0.05706
4812.21,0.05800
4789.06,0.05741
4765.92,0.05734
4742.78,0.05825
4719.63,0.05800
4696.49,0.05743
4673.34,0.05823
4650.2,0.05802
4627.05,0.05630
4603.91,0.05729
4580.76,0.05786
4557.62,0.05817
4534.47,0.05740
4511.33,0.05694
4488.18,0.05824
4465.04,0.05819
4441.89,0.05771
4418.75,0.05713
4395.6,0.05704
4372.46,0.05745
4349.31,0.05819
4326.17,0.05834
4303.02,0.05799
4279.88,0.05778
4256.73,0.05782
4233.59,0.05794
4210.44,0.05832
4187.3,0.05758
4164.15,0.05756
4141.01,0.05737
4117.86,0.05798
4094.72,0.05822
4071.57,0.05791
4048.43,0.05780
4025.28,0.05848
4002.14,0.05806
3978.99,0.05855
3955.85,0.05843
3932.7,0.05806
3909.56,0.05842
3886.41,0.05861
3863.27,0.05842
3840.12,0.05853
3816.98,0.05776
3793.83,0.05811
3770.69,0.05777
3747.54,0.05860
3724.4,0.05818
3701.25,0.05727
3678.11,0.05752
3654.97,0.05792
3631.82,0.05745
3608.68,0.05666
3585.53,0.05680
3562.39,0.05614
3539.24,0.05667
3516.1,0.05593
3492.95,0.05525
3469.81,0.05559
3446.66,0.05428
3423.52,0.05422
3400.37,0.05236
3377.23,0.05076
3354.08,0.04859
3330.94,0.04606
3307.79,0.05483
3284.65,0.06964
3261.5,0.06645
3238.36,0.06458
3215.21,0.06197
3192.07,0.06247
3168.92,0.06153
3145.78,0.06121
3122.63,0.05971
3099.49,0.05866
3076.34,0.05940
3053.2,0.06036
3030.05,0.05993
3006.91,0.05892
2983.76,0.05649
2960.62,0.05493
2937.47,0.05676
2914.33,0.06566
2891.18,0.06274
2868.04,0.06240
2844.89,0.06800
2821.75,0.06425
2798.6,0.06297
2775.46,0.06275
2752.31,0.06261
2729.17,0.06252
2706.02,0.06204
2682.88,0.06212
2659.73,0.06174
2636.59,0.06147
2613.44,0.06132
2590.3,0.06152
2567.15,0.06123
2544.01,0.06115
2520.87,0.06098
2497.72,0.06059
2474.58,0.06073
2451.43,0.06062
2428.29,0.06052
2405.14,0.06054
2382,0.06065
2358.85,0.06013
2335.71,0.06046
2312.56,0.05997
2289.42,0.06014
2266.27,0.05987
2243.13,0.05985
2219.98,0.05932
2196.84,0.05911
2173.69,0.05942
2150.55,0.05909
2127.4,0.05921
2104.26,0.05849
2081.11,0.05889
2057.97,0.05822
2034.82,0.05809
2011.68,0.05785
1988.53,0.05756
1965.39,0.05709
1942.24,0.05690
1919.1,0.05637
1895.95,0.05581
1872.81,0.05511
1849.66,0.05474
1826.52,0.05367
1803.37,0.05257
1780.23,0.05092
1757.08,0.04920
1733.94,0.04816
1710.79,0.04345
1687.65,0.03687
1664.5,0.03477
1641.36,0.11336
1618.21,0.09641
1595.07,0.07015
1571.92,0.05116
1548.78,0.05831
1525.63,0.09615
1502.49,0.07728
1479.34,0.06791
1456.2,0.07413
1433.05,0.07004
1409.91,0.07536
1386.77,0.06850
1363.62,0.07194
1340.48,0.07005
1317.33,0.06716
1294.19,0.06505
1271.04,0.07045
1247.9,0.07254
1224.75,0.07070
1201.61,0.06915
1178.46,0.07396
1155.32,0.07153
1132.17,0.07187
1109.03,0.06968
1085.88,0.06916
1062.74,0.06776
1039.59,0.06786
1016.45,0.06854
993.302,0.06729
970.157,0.06579
947.012,0.06436
923.867,0.06711
900.722,0.06559
877.577,0.06515
854.432,0.06381
831.288,0.06353
808.143,0.06169
784.998,0.05964
761.853,0.05777
738.708,0.05419
715.563,0.05569
692.418,0.05828
669.273,0.06945
646.128,0.06778
622.983,0.06570
599.839,0.06089

File: Nylon_3.175_T_IS_221212_R1.dpt
7497.02,0.01626
7473.87,0.02838
7450.73,0.02533
7427.58,0.02586
7404.44,0.01937
7381.29,0.01932
7358.15,0.02927
7335,0.02516
7311.86,0.02174
7288.71,0.02514
7265.57,0.02164
7242.42,0.02196
7219.28,0.02360
7196.13,0.03113
7172.99,0.02694
7149.84,0.02914
7126.7,0.03136
7103.55,0.01672
7080.41,0.02434
7057.26,0.01879
7034.12,0.02785
7010.98,0.02327
6987.83,0.02604
6964.69,0.02432
6941.54,0.02279
6918.4,0.02145
6895.25,0.02084
6872.11,0.03007
6848.96,0.02421
6825.82,0.02791
6802.67,0.02349
6779.53,0.02213
6756.38,0.02309
6733.24,0.02732
6710.09,0.02583
6686.95,0.01941
6663.8,0.01915
6640.66,0.02470
6617.51,0.02413
6594.37,0.02314
6571.22,0.02495
6548.08,0.02286
6524.93,0.02749
6501.79,0.02594
6478.64,0.02375
6455.5,0.02136
6432.35,0.02212
6409.21,0.02455
6386.06,0.02244
6362.92,0.02309
6339.77,0.01910
6316.63,0.02399
6293.48,0.02248
6270.34,0.02219
6247.19,0.01844
6224.05,0.02118
6200.9,0.02069
6177.76,0.02391
6154.61,0.02295
6131.47,0.02243
6108.32,0.02395
6085.18,0.02105
6062.03,0.02250
6038.89,0.02369
6015.74,0.01905
5992.6,0.02398
5969.45,0.02195
5946.31,0.02196
5923.16,0.02250
5900.02,0.02376
5876.88,0.02123
5853.73,0.02093
5830.59,0.02155
5807.44,0.02283
5784.3,0.02222
5761.15,0.02361
5738.01,0.02326
5714.86,0.02439
5691.72,0.02154
5668.57,0.02399
5645.43,0.02281
5622.28,0.02281
5599.14,0.02294
5575.99,0.02294
5552.85,0.02285
5529.7,0.02208
5506.56,0.02206
5483.41,0.02379
5460.27,0.02434
5437.12,0.02426
5413.98,0.02430
5390.83,0.02306
5367.69,0.02319
5344.54,0.02312
5321.4,0.02285
5298.25,0.02288
5275.11,0.02363
5251.96,0.02305
5228.82,0.02293
5205.67,0.02302
5182.53,0.02458
5159.38,0.02343
5136.24,0.02379
5113.09,0.02390
5089.95,0.02420
5066.8,0.02474
5043.66,0.02358
5020.51,0.02352
4997.37,0.02345
4974.22,0.02320
4951.08,0.02324
4927.93,0.02261
4904.79,0.02351
4881.64,0.02265
4858.5,0.02316
4835.35,0.02332
4812.21,0.02289
4789.06,0.02289
4765.92,0.02328
4742.78,0.02309
4719.63,0.02298
4696.49,0.02357
4673.34,0.02349
4650.2,0.02339
4627.05,0.02359
4603.91,0.02226
4580.76,0.02362
4557.62,0.02360
4534.47,0.02338
4511.33,0.02307
4488.18,0.02320
4465.04,0.02333
4441.89,0.02342
4418.75,0.02316
4395.6,0.02325
4372.46,0.02373
4349.31,0.02329
4326.17,0.02335
4303.02,0.02369
4279.88,0.02319
4256.73,0.02291
4233.59,0.02345
4210.44,0.02371
4187.3,0.02318
4164.15,0.02345
4141.01,0.02434
4117.86,0.02416
4094.72,0.02406
4071.57,0.02362
4048.43,0.02379
4025.28,0.02355
4002.14,0.02353
3978.99,0.02402
3955.85,0.02322
3932.7,0.02386
3909.56,0.02395
3886.41,0.02378
3863.27,0.02413
3840.12,0.02403
3816.98,0.02396
3793.83,0.02447
3770.69,0.02339
3747.54,0.02459
3724.4,0.02394
3701.25,0.02372
3678.11,0.02330
3654.97,0.02336
3631.82,0.02327
3608.68,0.02294
3585.53,0.02321
3562.39,0.02246
3539.24,0.02178
3516.1,0.02193
3492.95,0.02198
3469.81,0.02217
3446.66,0.02159
3423.52,0.02098
3400.37,0.02133
3377.23,0.02103
3354.08,0.02139
3330.94,0.02159
3307.79,0.02089
3284.65,0.02224
3261.5,0.02202
3238.36,0.02079
3215.21,0.02125
3192.07,0.02209
3168.92,0.02188
3145.78,0.02242
3122.63,0.02247
3099.49,0.02184
3076.34,0.02207
3053.2,0.02173
3030.05,0.02248
3006.91,0.02140
2983.76,0.02105
2960.62,0.02075
2937.47,0.02070
2914.33,0.02156
2891.18,0.02205
2868.04,0.02135
2844.89,0.02228
2821.75,0.02230
2798.6,0.02264
2775.46,0.02226
2752.31,0.02272
2729.17,0.02241
2706.02,0.02269
2682.88,0.02271
2659.73,0.02273
2636.59,0.02263
2613.44,0.02266
2590.3,0.02282
2567.15,0.02262
2544.01,0.02302
2520.87,0.02270
2497.72,0.02292
2474.58,0.02269
2451.43,0.02266
2428.29,0.02291
2405.14,0.02278
2382,0.02307
2358.85,0.02258
2335.71,0.02258
2312.56,0.02291
2289.42,0.02269
2266.27,0.02269
2243.13,0.02239
2219.98,0.02256
2196.84,0.02251
2173.69,0.02264
2150.55,0.02269
2127.4,0.02263
2104.26,0.02273
2081.11,0.02266
2057.97,0.02280
2034.82,0.02214
2011.68,0.02264
1988.53,0.02241
1965.39,0.02258
1942.24,0.02209
1919.1,0.02227
1895.95,0.02241
1872.81,0.02230
1849.66,0.02198
1826.52,0.02189
1803.37,0.02134
1780.23,0.02055
1757.08,0.01901
1733.94,0.02131
1710.79,0.02156
1687.65,0.02069
1664.5,0.01971
1641.36,0.02026
1618.21,0.02011
1595.07,0.02065
1571.92,0.01972
1548.78,0.02021
1525.63,0.01999
1502.49,0.02030
1479.34,0.01973
1456.2,0.01994
1433.05,0.02031
1409.91,0.01974
1386.77,0.01956
1363.62,0.01965
1340.48,0.01932
1317.33,0.01837
1294.19,0.01899
1271.04,0.02095
1247.9,0.02143
1224.75,0.02117
1201.61,0.02019
1178.46,0.01937
1155.32,0.01918
1132.17,0.01940
1109.03,0.02016
1085.88,0.02005
1062.74,0.02149
1039.59,0.02140
1016.45,0.02126
993.302,0.02313
970.157,0.02156
947.012,0.02132
923.867,0.02103
900.722,0.02018
877.577,0.01989
854.432,0.02041
831.288,0.01999
808.143,0.01955
784.998,0.01992
761.853,0.01965
738.708,0.02080
715.563,0.01927
692.418,0.01909
669.273,0.01912
646.128,0.01763
622.983,0.01770
599.839,0.01810

File: Nylon_3.175_T_IS_221212_R2.dpt
7497.02,0.01889
7473.87,0.02334
7450.73,0.03985
7427.58,0.03068
7404.44,0.02150
7381.29,0.01957
7358.15,0.02153
7335,0.02532
7311.86,0.02332
7288.71,0.02517
7265.57,0.01898
7242.42,0.01360
7219.28,0.01753
7196.13,0.02429
7172.99,0.02828
7149.84,0.02608
7126.7,0.02822
7103.55,0.02900
7080.41,0.02188
7057.26,0.02647
7034.12,0.02565
7010.98,0.02336
6987.83,0.02461
6964.69,0.02657
6941.54,0.02533
6918.4,0.01906
6895.25,0.01804
6872.11,0.02287
6848.96,0.01909
6825.82,0.02605
6802.67,0.02317
6779.53,0.01727
6756.38,0.01919
6733.24,0.02333
6710.09,0.02661
6686.95,0.02937
6663.8,0.02943
6640.66,0.02463
6617.51,0.02219
6594.37,0.02573
6571.22,0.01781
6548.08,0.02630
6524.93,0.02680
6501.79,0.02213
6478.64,0.02321
6455.5,0.02458
6432.35,0.02380
6409.21,0.02311
6386.06,0.02010
6362.92,0.02351
6339.77,0.02383
6316.63,0.02370
6293.48,0.02780
6270.34,0.02123
6247.19,0.02431
6224.05,0.02038
6200.9,0.02040
6177.76,0.02162
6154.61,0.02180
6131.47,0.01929
6108.32,0.02254
6085.18,0.02336
6062.03,0.02023
6038.89,0.02510
6015.74,0.02181
5992.6,0.02212
5969.45,0.02184
5946.31,0.02297
5923.16,0.02302
5900.02,0.02323
5876.88,0.02297
5853.73,0.02143
5830.59,0.02337
5807.44,0.02160
5784.3,0.02311
5761.15,0.02161
5738.01,0.02336
5714.86,0.02334
5691.72,0.02329
5668.57,0.02292
5645.43,0.02333
5622.28,0.02426
5599.14,0.02418
5575.99,0.02191
5552.85,0.02352
5529.7,0.02332
5506.56,0.02364
5483.41,0.02318
5460.27,0.02005
5437.12,0.02317
5413.98,0.02245
5390.83,0.02312
5367.69,0.02343
5344.54,0.02295
5321.4,0.02199
5298.25,0.02345
5275.11,0.02461
5251.96,0.02248
5228.82,0.02404
5205.67,0.02330
5182.53,0.02416
5159.38,0.02370
5136.24,0.02287
5113.09,0.02372
5089.95,0.02295
5066.8,0.02411
5043.66,0.02447
5020.51,0.02366
4997.37,0.02346
4974.22,0.02362
4951.08,0.02393
4927.93,0.02211
4904.79,0.02367
4881.64,0.02332
4858.5,0.02271
4835.35,0.02251
4812.21,0.02362
4789.06,0.02349
4765.92,0.02282
4742.78,0.02345
4719.63,0.02376
4696.49,0.02332
4673.34,0.02349
4650.2,0.02304
4627.05,0.02398
4603.91,0.02389
4580.76,0.02306
4557.62,0.02338
4534.47,0.02345
4511.33,0.02311
4488.18,0.02327
4465.04,0.02378
4441.89,0.02412
4418.75,0.02311
4395.6,0.02405
4372.46,0.02349
4349.31,0.02327
4326.17,0.02294
4303.02,0.02342
4279.88,0.02385
4256.73,0.02394
4233.59,0.02375
4210.44,0.02358
4187.3,0.02369
4164.15,0.02331
4141.01,0.02366
4117.86,0.02383
4094.72,0.02449
4071.57,0.02410
4048.43,0.02349
4025.28,0.02411
4002.14,0.02411
3978.99,0.02444
3955.85,0.02322
3932.7,0.02381
3909.56,0.02409
3886.41,0.02393
3863.27,0.02399
3840.12,0.02378
3816.98,0.02414
3793.83,0.02384
3770.69,0.02368
3747.54,0.02465
3724.4,0.02369
3701.25,0.02328
3678.11,0.02403
3654.97,0.02330
3631.82,0.02354
3608.68,0.02324
3585.53,0.02230
3562.39,0.02210
3539.24,0.02252
3516.1,0.02254
3492.95,0.02213
3469.81,0.02227
3446.66,0.02148
3423.52,0.02225
3400.37,0.02188
3377.23,0.02136
3354.08,0.02077
3330.94,0.02152
3307.79,0.02062
3284.65,0.02186
3261.5,0.02181
3238.36,0.02190
3215.21,0.02208
3192.07,0.02200
3168.92,0.02199
3145.78,0.02213
3122.63,0.02216
3099.49,0.02183
3076.34,0.02212
3053.2,0.02226
3030.05,0.02226
3006.91,0.02197
2983.76,0.02155
2960.62,0.02111
2937.47,0.02128
2914.33,0.02202
2891.18,0.02164
2868.04,0.02197
2844.89,0.02246
2821.75,0.02258
2798.6,0.02281
2775.46,0.02293
2752.31,0.02282
2729.17,0.02281
2706.02,0.02344
2682.88,0.02262
2659.73,0.02264
2636.59,0.02319
2613.44,0.02286
2590.3,0.02310
2567.15,0.02280
2544.01,0.02292
2520.87,0.02330
2497.72,0.02310
2474.58,0.02278
2451.43,0.02301
2428.29,0.02276
2405.14,0.02268
2382,0.02272
2358.85,0.02289
2335.71,0.02278
2312.56,0.02290
2289.42,0.02286
2266.27,0.02287
2243.13,0.02272
2219.98,0.02232
2196.84,0.02250
2173.69,0.02229
2150.55,0.02256
2127.4,0.02222
2104.26,0.02265
2081.11,0.02246
2057.97,0.02228
2034.82,0.02263
2011.68,0.02287
1988.53,0.02256
1965.39,0.02280
1942.24,0.02237
1919.1,0.02249
1895.95,0.02231
1872.81,0.02231
1849.66,0.02195
1826.52,0.02200
1803.37,0.02119
1780.23,0.02091
1757.08,0.01896
1733.94,0.02136
1710.79,0.02176
1687.65,0.02101
1664.5,0.02031
1641.36,0.01993
1618.21,0.02029
1595.07,0.02046
1571.92,0.01978
1548.78,0.02021
1525.63,0.02002
1502.49,0.01998
1479.34,0.02024
1456.2,0.01994
1433.05,0.02034
1409.91,0.01970
1386.77,0.01949
1363.62,0.01980
1340.48,0.01913
1317.33,0.01875
1294.19,0.01916
1271.04,0.02107
1247.9,0.02151
1224.75,0.02089
1201.61,0.02008
1178.46,0.02011
1155.32,0.01933
1132.17,0.01934
1109.03,0.01987
1085.88,0.01903
1062.74,0.02145
1039.59,0.02122
1016.45,0.02083
993.302,0.02231
970.157,0.02207
947.012,0.02199
923.867,0.02088
900.722,0.02085
877.577,0.02015
854.432,0.02039
831.288,0.02028
808.143,0.02069
784.998,0.02014
761.853,0.01944
738.708,0.01895
715.563,0.01900
692.418,0.01979
669.273,0.01817
646.128,0.01788
622.983,0.01800
599.839,0.01737

File: Nylon_3.175_T_IS_221212_R3.dpt
7497.02,0.02385
7473.87,0.02688
7450.73,0.01523
7427.58,0.02643
7404.44,0.01744
7381.29,0.03186
7358.15,0.03388
7335,0.02846
7311.86,0.02322
7288.71,0.02515
7265.57,0.02569
7242.42,0.02327
7219.28,0.03547
7196.13,0.02766
7172.99,0.02114
7149.84,0.02909
7126.7,0.02340
7103.55,0.02339
7080.41,0.01695
7057.26,0.02823
7034.12,0.03144
7010.98,0.02782
6987.83,0.02524
6964.69,0.02576
6941.54,0.02628
6918.4,0.02155
6895.25,0.02267
6872.11,0.02045
6848.96,0.01628
6825.82,0.02526
6802.67,0.01862
6779.53,0.02553
6756.38,0.02104
6733.24,0.02598
6710.09,0.01852
6686.95,0.02634
6663.8,0.02179
6640.66,0.02119
6617.51,0.02090
6594.37,0.02187
6571.22,0.02589
6548.08,0.02629
6524.93,0.02749
6501.79,0.02385
6478.64,0.02447
6455.5,0.02414
6432.35,0.02222
6409.21,0.02578
6386.06,0.02431
6362.92,0.02052
6339.77,0.02251
6316.63,0.02267
6293.48,0.02472
6270.34,0.02185
6247.19,0.02094
6224.05,0.02606
6200.9,0.02113
6177.76,0.02322
6154.61,0.01723
6131.47,0.01868
6108.32,0.02461
6085.18,0.02194
6062.03,0.02017
6038.89,0.02227
6015.74,0.02106
5992.6,0.02227
5969.45,0.02447
5946.31,0.02390
5923.16,0.02500
5900.02,0.02223
5876.88,0.02148
5853.73,0.02230
5830.59,0.02330
5807.44,0.02424
5784.3,0.02371
5761.15,0.02374
5738.01,0.02308
5714.86,0.02246
5691.72,0.02188
5668.57,0.02542
5645.43,0.02358
5622.28,0.02098
5599.14,0.02187
5575.99,0.02134
5552.85,0.02191
5529.7,0.02482
5506.56,0.02335
5483.41,0.02232
5460.27,0.02382
5437.12,0.02332
5413.98,0.02172
5390.83,0.02262
5367.69,0.02237
5344.54,0.02350
5321.4,0.02285
5298.25,0.02329
5275.11,0.02298
5251.96,0.02520
5228.82,0.02264
5205.67,0.02319
5182.53,0.02385
5159.38,0.02218
5136.24,0.02255
5113.09,0.02430
5089.95,0.02330
5066.8,0.02217
5043.66,0.02276
5020.51,0.02444
4997.37,0.02318
4974.22,0.02292
4951.08,0.02425
4927.93,0.02241
4904.79,0.02286
4881.64,0.02411
4858.5,0.02365
4835.35,0.02394
4812.21,0.02404
4789.06,0.02287
4765.92,0.02322
4742.78,0.02370
4719.63,0.02335
4696.49,0.02324
4673.34,0.02340
4650.2,0.02374
4627.05,0.02307
4603.91,0.02354
4580.76,0.02316
4557.62,0.02402
4534.47,0.02376
4511.33,0.02389
4488.18,0.02341
4465.04,0.02359
4441.89,0.02285
4418.75,0.02333
4395.6,0.02356
4372.46,0.02279
4349.31,0.02367
4326.17,0.02343
4303.02,0.02400
4279.88,0.02352
4256.73,0.02385
4233.59,0.02350
4210.44,0.02395
4187.3,0.02419
4164.15,0.02344
4141.01,0.02376
4117.86,0.02361
4094.72,0.02375
4071.57,0.02382
4048.43,0.02441
4025.28,0.02402
4002.14,0.02400
3978.99,0.02370
3955.85,0.02417
3932.7,0.02399
3909.56,0.02387
3886.41,0.02398
3863.27,0.02382
3840.12,0.02420
3816.98,0.02424
3793.83,0.02337
3770.69,0.02391
3747.54,0.02439
3724.4,0.02383
3701.25,0.02300
3678.11,0.02373
3654.97,0.02288
3631.82,0.02331
3608.68,0.02269
3585.53,0.02294
3562.39,0.02219
3539.24,0.02212
3516.1,0.02206
3492.95,0.02218
3469.81,0.02203
3446.66,0.02177
3423.52,0.02201
3400.37,0.02136
3377.23,0.02150
3354.08,0.02192
3330.94,0.02140
3307.79,0.02169
3284.65,0.02078
3261.5,0.02207
3238.36,0.02204
3215.21,0.02227
3192.07,0.02282
3168.92,0.02170
3145.78,0.02211
3122.63,0.02221
3099.49,0.02204
3076.34,0.02205
3053.2,0.02189
3030.05,0.02229
3006.91,0.02188
2983.76,0.02163
2960.62,0.02119
2937.47,0.02096
2914.33,0.02172
2891.18,0.02189
2868.04,0.02167
2844.89,0.02226
2821.75,0.02276
2798.6,0.02260
2775.46,0.02279
2752.31,0.02273
2729.17,0.02263
2706.02,0.02244
2682.88,0.02322
2659.73,0.02285
2636.59,0.02266
2613.44,0.02261
2590.3,0.02276
2567.15,0.02288
2544.01,0.02287
2520.87,0.02294
2497.72,0.02297
2474.58,0.02310
2451.43,0.02288
2428.29,0.02245
2405.14,0.02270
2382,0.02314
2358.85,0.02317
2335.71,0.02252
2312.56,0.02302
2289.42,0.02295
2266.27,0.02295
2243.13,0.02244
2219.98,0.02263
2196.84,0.02298
2173.69,0.02266
2150.55,0.02271
2127.4,0.02263
2104.26,0.02287
2081.11,0.02268
2057.97,0.02248
2034.82,0.02243
2011.68,0.02266
1988.53,0.02290
1965.39,0.02226
1942.24,0.02268
1919.1,0.02247
1895.95,0.02211
1872.81,0.02239
1849.66,0.02189
1826.52,0.02165
1803.37,0.02137
1780.23,0.02091
1757.08,0.01917
1733.94,0.02125
1710.79,0.02212
1687.65,0.02077
1664.5,0.02008
1641.36,0.02041
1618.21,0.02033
1595.07,0.02028
1571.92,0.02009
1548.78,0.01963
1525.63,0.02006
1502.49,0.01994
1479.34,0.02008
1456.2,0.02027
1433.05,0.02042
1409.91,0.01966
1386.77,0.01911
1363.62,0.01944
1340.48,0.01896
1317.33,0.01846
1294.19,0.01888
1271.04,0.02057
1247.9,0.02167
1224.75,0.02082
1201.61,0.02061
1178.46,0.01968
1155.32,0.01919
1132.17,0.01896
1109.03,0.02010
1085.88,0.01899
1062.74,0.02132
1039.59,0.02102
1016.45,0.02060
993.302,0.02216
970.157,0.02205
947.012,0.02060
923.867,0.02136
900.722,0.02057
877.577,0.02052
854.432,0.02064
831.288,0.02071
808.143,0.02053
784.998,0.02038
761.853,0.01998
738.708,0.01938
715.563,0.02006
692.418,0.01952
669.273,0.01913
646.128,0.01837
622.983,0.01759
599.839,0.01625

File: Nylon_3.175_T_IS_221212_R4.dpt
7497.02,0.03483
7473.87,0.02190
7450.73,0.03885
7427.58,0.03136
7404.44,0.02777
7381.29,0.02298
7358.15,0.02351
7335,0.03061
7311.86,0.01883
7288.71,0.01721
7265.57,0.01832
7242.42,0.03008
7219.28,0.03024
7196.13,0.01833
7172.99,0.02425
7149.84,0.02357
7126.7,0.01791
7103.55,0.02619
7080.41,0.01980
7057.26,0.02584
7034.12,0.01856
7010.98,0.01984
6987.83,0.02247
6964.69,0.02554
6941.54,0.01563
6918.4,0.02360
6895.25,0.02750
6872.11,0.02644
6848.96,0.02041
6825.82,0.02267
6802.67,0.02325
6779.53,0.02261
6756.38,0.02401
6733.24,0.02287
6710.09,0.02265
6686.95,0.02373
6663.8,0.02242
6640.66,0.02584
6617.51,0.01663
6594.37,0.02413
6571.22,0.01924
6548.08,0.02130
6524.93,0.01822
6501.79,0.02363
6478.64,0.01976
6455.5,0.02608
6432.35,0.02407
6409.21,0.03055
6386.06,0.02213
6362.92,0.01776
6339.77,0.02260
6316.63,0.02521
6293.48,0.02191
6270.34,0.02501
6247.19,0.02317
6224.05,0.02450
6200.9,0.02710
6177.76,0.02447
6154.61,0.02475
6131.47,0.02533
6108.32,0.02265
6085.18,0.02268
6062.03,0.02287
6038.89,0.02334
6015.74,0.02354
5992.6,0.02309
5969.45,0.02614
5946.31,0.02163
5923.16,0.02217
5900.02,0.02097
5876.88,0.02390
5853.73,0.02341
5830.59,0.02369
5807.44,0.02361
5784.3,0.02155
5761.15,0.02296
5738.01,0.02313
5714.86,0.02200
5691.72,0.02317
5668.57,0.02355
5645.43,0.02358
5622.28,0.02272
5599.14,0.02442
5575.99,0.02153
5552.85,0.02139
5529.7,0.02429
5506.56,0.02260
5483.41,0.02171
5460.27,0.02296
5437.12,0.02296
5413.98,0.02361
5390.83,0.02256
5367.69,0.02339
5344.54,0.02231
5321.4,0.02227
5298.25,0.02282
5275.11,0.02223
5251.96,0.02302
5228.82,0.02309
5205.67,0.02349
5182.53,0.02203
5159.38,0.02293
5136.24,0.02391
5113.09,0.02225
5089.95,0.02348
5066.8,0.02334
5043.66,0.02329
5020.51,0.02228
4997.37,0.02387
4974.22,0.02305
4951.08,0.02234
4927.93,0.02284
4904.79,0.02415
4881.64,0.02358
4858.5,0.02237
4835.35,0.02371
4812.21,0.02361
4789.06,0.02264
4765.92,0.02274
4742.78,0.02311
4719.63,0.02262
4696.49,0.02315
4673.34,0.02333
4650.2,0.02420
4627.05,0.02332
4603.91,0.02396
4580.76,0.02454
4557.62,0.02369
4534.47,0.02356
4511.33,0.02265
4488.18,0.02312
4465.04,0.02411
4441.89,0.02389
4418.75,0.02357
4395.6,0.02316
4372.46,0.02302
4349.31,0.02398
4326.17,0.02269
4303.02,0.02280
4279.88,0.02356
4256.73,0.02380
4233.59,0.02370
4210.44,0.02380
4187.3,0.02367
4164.15,0.02324
4141.01,0.02468
4117.86,0.02323
4094.72,0.02364
4071.57,0.02345
4048.43,0.02264
4025.28,0.02304
4002.14,0.02328
3978.99,0.02386
3955.85,0.02408
3932.7,0.02327
3909.56,0.02357
3886.41,0.02407
3863.27,0.02384
3840.12,0.02426
3816.98,0.02361
3793.83,0.02356
3770.69,0.02350
3747.54,0.02383
3724.4,0.02356
3701.25,0.02393
3678.11,0.02387
3654.97,0.02325
3631.82,0.02328
3608.68,0.02311
3585.53,0.02155
3562.39,0.02234
3539.24,0.02289
3516.1,0.02196
3492.95,0.02131
3469.81,0.02183
3446.66,0.02171
3423.52,0.02125
3400.37,0.02091
3377.23,0.02091
3354.08,0.02152
3330.94,0.02112
3307.79,0.02121
3284.65,0.02100
3261.5,0.02165
3238.36,0.02201
3215.21,0.02166
3192.07,0.02216
3168.92,0.02215
3145.78,0.02187
3122.63,0.02198
3099.49,0.02213
3076.34,0.02166
3053.2,0.02195
3030.05,0.02194
3006.91,0.02133
2983.76,0.02100
2960.62,0.02083
2937.47,0.02056
2914.33,0.02157
2891.18,0.02176
2868.04,0.02179
2844.89,0.02180
2821.75,0.02261
2798.6,0.02244
2775.46,0.02243
2752.31,0.02238
2729.17,0.02284
2706.02,0.02298
2682.88,0.02279
2659.73,0.02254
2636.59,0.02312
2613.44,0.02240
2590.3,0.02313
2567.15,0.02267
2544.01,0.02264
2520.87,0.02285
2497.72,0.02259
2474.58,0.02254
2451.43,0.02239
2428.29,0.02280
2405.14,0.02283
2382,0.02252
2358.85,0.02235
2335.71,0.02277
2312.56,0.02291
2289.42,0.02284
2266.27,0.02258
2243.13,0.02227
2219.98,0.02237
2196.84,0.02246
2173.69,0.02232
2150.55,0.02289
2127.4,0.02212
2104.26,0.02217
2081.11,0.02220
2057.97,0.02235
2034.82,0.02248
2011.68,0.02215
1988.53,0.02264
1965.39,0.02238
1942.24,0.02247
1919.1,0.02216
1895.95,0.02204
1872.81,0.02184
1849.66,0.02195
1826.52,0.02172
1803.37,0.02129
1780.23,0.02057
1757.08,0.01925
1733.94,0.02072
1710.79,0.02169
1687.65,0.02027
1664.5,0.01982
1641.36,0.02002
1618.21,0.02044
1595.07,0.01995
1571.92,0.01961
1548.78,0.01944
1525.63,0.01996
1502.49,0.02029
1479.34,0.01964
1456.2,0.01994
1433.05,0.02008
1409.91,0.01969
1386.77,0.01909
1363.62,0.01997
1340.48,0.01923
1317.33,0.01819
1294.19,0.01911
1271.04,0.02067
1247.9,0.02125
1224.75,0.02087
1201.61,0.01987
1178.46,0.01941
1155.32,0.01900
1132.17,0.01912
1109.03,0.01963
1085.88,0.01946
1062.74,0.02185
1039.59,0.02111
1016.45,0.02095
993.302,0.02259
970.157,0.02173
947.012,0.02128
923.867,0.02110
900.722,0.02064
877.577,0.01937
854.432,0.02008
831.288,0.02068
808.143,0.02077
784.998,0.02028
761.853,0.01992
738.708,0.01948
715.563,0.01891
692.418,0.01913
669.273,0.01799
646.128,0.01871
622.983,0.01742
599.839,0.01710