Folder: fsri_materials_database/01_Data/Nylon/FTIR/IS (part 5)

File: Nylon_3.175_T_IS_221212_R6.dpt
7497.02,0.03306
7473.87,0.02779
7450.73,0.03285
7427.58,0.01348
7404.44,0.02137
7381.29,0.02290
7358.15,0.02344
7335,0.02294
7311.86,0.02243
7288.71,0.01683
7265.57,0.02565
7242.42,0.02316
7219.28,0.01768
7196.13,0.02274
7172.99,0.02379
7149.84,0.01718
7126.7,0.02671
7103.55,0.03013
7080.41,0.02365
7057.26,0.02230
7034.12,0.02608
7010.98,0.02269
6987.83,0.01756
6964.69,0.02405
6941.54,0.02148
6918.4,0.01976
6895.25,0.02520
6872.11,0.02231
6848.96,0.02739
6825.82,0.02459
6802.67,0.02539
6779.53,0.02581
6756.38,0.02315
6733.24,0.02255
6710.09,0.02133
6686.95,0.02551
6663.8,0.02195
6640.66,0.02675
6617.51,0.02088
6594.37,0.02412
6571.22,0.02624
6548.08,0.02549
6524.93,0.02347
6501.79,0.02388
6478.64,0.02422
6455.5,0.02600
6432.35,0.02848
6409.21,0.02171
6386.06,0.02148
6362.92,0.02332
6339.77,0.02393
6316.63,0.02204
6293.48,0.02392
6270.34,0.02277
6247.19,0.02019
6224.05,0.01942
6200.9,0.02350
6177.76,0.02257
6154.61,0.01970
6131.47,0.02051
6108.32,0.02345
6085.18,0.02401
6062.03,0.02347
6038.89,0.02416
6015.74,0.02463
5992.6,0.02326
5969.45,0.02170
5946.31,0.02469
5923.16,0.02284
5900.02,0.02436
5876.88,0.02293
5853.73,0.01879
5830.59,0.02448
5807.44,0.02338
5784.3,0.02340
5761.15,0.02320
5738.01,0.02186
5714.86,0.02278
5691.72,0.02239
5668.57,0.02281
5645.43,0.02401
5622.28,0.02086
5599.14,0.02098
5575.99,0.02262
5552.85,0.02281
5529.7,0.02414
5506.56,0.02385
5483.41,0.02350
5460.27,0.02413
5437.12,0.02184
5413.98,0.02393
5390.83,0.02445
5367.69,0.02385
5344.54,0.02314
5321.4,0.02378
5298.25,0.02236
5275.11,0.02196
5251.96,0.02375
5228.82,0.02322
5205.67,0.02231
5182.53,0.02395
5159.38,0.02278
5136.24,0.02174
5113.09,0.02248
5089.95,0.02403
5066.8,0.02187
5043.66,0.02313
5020.51,0.02335
4997.37,0.02459
4974.22,0.02279
4951.08,0.02270
4927.93,0.02435
4904.79,0.02290
4881.64,0.02358
4858.5,0.02246
4835.35,0.02291
4812.21,0.02371
4789.06,0.02296
4765.92,0.02373
4742.78,0.02419
4719.63,0.02306
4696.49,0.02420
4673.34,0.02340
4650.2,0.02330
4627.05,0.02346
4603.91,0.02322
4580.76,0.02336
4557.62,0.02323
4534.47,0.02381
4511.33,0.02429
4488.18,0.02356
4465.04,0.02396
4441.89,0.02348
4418.75,0.02352
4395.6,0.02349
4372.46,0.02329
4349.31,0.02392
4326.17,0.02376
4303.02,0.02347
4279.88,0.02453
4256.73,0.02417
4233.59,0.02416
4210.44,0.02349
4187.3,0.02353
4164.15,0.02378
4141.01,0.02391
4117.86,0.02419
4094.72,0.02364
4071.57,0.02373
4048.43,0.02381
4025.28,0.02348
4002.14,0.02377
3978.99,0.02407
3955.85,0.02406
3932.7,0.02393
3909.56,0.02381
3886.41,0.02399
3863.27,0.02468
3840.12,0.02455
3816.98,0.02312
3793.83,0.02422
3770.69,0.02455
3747.54,0.02419
3724.4,0.02361
3701.25,0.02421
3678.11,0.02397
3654.97,0.02325
3631.82,0.02413
3608.68,0.02337
3585.53,0.02298
3562.39,0.02333
3539.24,0.02231
3516.1,0.02314
3492.95,0.02213
3469.81,0.02322
3446.66,0.02215
3423.52,0.02182
3400.37,0.02130
3377.23,0.02143
3354.08,0.02173
3330.94,0.02192
3307.79,0.02113
3284.65,0.02134
3261.5,0.02162
3238.36,0.02225
3215.21,0.02116
3192.07,0.02202
3168.92,0.02244
3145.78,0.02178
3122.63,0.02176
3099.49,0.02257
3076.34,0.02197
3053.2,0.02187
3030.05,0.02188
3006.91,0.02215
2983.76,0.02136
2960.62,0.02157
2937.47,0.02167
2914.33,0.02166
2891.18,0.02193
2868.04,0.02212
2844.89,0.02219
2821.75,0.02311
2798.6,0.02259
2775.46,0.02336
2752.31,0.02330
2729.17,0.02292
2706.02,0.02304
2682.88,0.02320
2659.73,0.02285
2636.59,0.02322
2613.44,0.02287
2590.3,0.02298
2567.15,0.02307
2544.01,0.02264
2520.87,0.02305
2497.72,0.02325
2474.58,0.02311
2451.43,0.02284
2428.29,0.02322
2405.14,0.02299
2382,0.02282
2358.85,0.02321
2335.71,0.02293
2312.56,0.02276
2289.42,0.02308
2266.27,0.02322
2243.13,0.02292
2219.98,0.02279
2196.84,0.02260
2173.69,0.02320
2150.55,0.02284
2127.4,0.02298
2104.26,0.02261
2081.11,0.02285
2057.97,0.02281
2034.82,0.02333
2011.68,0.02274
1988.53,0.02255
1965.39,0.02275
1942.24,0.02270
1919.1,0.02268
1895.95,0.02218
1872.81,0.02242
1849.66,0.02224
1826.52,0.02186
1803.37,0.02166
1780.23,0.02069
1757.08,0.01972
1733.94,0.02130
1710.79,0.02219
1687.65,0.02104
1664.5,0.02015
1641.36,0.02017
1618.21,0.02069
1595.07,0.02077
1571.92,0.01989
1548.78,0.01987
1525.63,0.02026
1502.49,0.02019
1479.34,0.02004
1456.2,0.02010
1433.05,0.02033
1409.91,0.01964
1386.77,0.01974
1363.62,0.01981
1340.48,0.01944
1317.33,0.01839
1294.19,0.01920
1271.04,0.02079
1247.9,0.02211
1224.75,0.02123
1201.61,0.01981
1178.46,0.01924
1155.32,0.01901
1132.17,0.01908
1109.03,0.01995
1085.88,0.01969
1062.74,0.02129
1039.59,0.02115
1016.45,0.02049
993.302,0.02326
970.157,0.02147
947.012,0.02092
923.867,0.02121
900.722,0.02119
877.577,0.02052
854.432,0.02027
831.288,0.02101
808.143,0.02011
784.998,0.02023
761.853,0.01972
738.708,0.01981
715.563,0.01944
692.418,0.01916
669.273,0.01940
646.128,0.01807
622.983,0.01760
599.839,0.01940

File: Nylon_3.175_T_IS_221212_R7.dpt
7497.02,0.02213
7473.87,0.02976
7450.73,0.03435
7427.58,0.02098
7404.44,0.03059
7381.29,0.02651
7358.15,0.02190
7335,0.02676
7311.86,0.02199
7288.71,0.02621
7265.57,0.01237
7242.42,0.02132
7219.28,0.02708
7196.13,0.03053
7172.99,0.02169
7149.84,0.03074
7126.7,0.01835
7103.55,0.02825
7080.41,0.01815
7057.26,0.01768
7034.12,0.02651
7010.98,0.02133
6987.83,0.02416
6964.69,0.02255
6941.54,0.03398
6918.4,0.02663
6895.25,0.02706
6872.11,0.02276
6848.96,0.02774
6825.82,0.02816
6802.67,0.02820
6779.53,0.02315
6756.38,0.02168
6733.24,0.02490
6710.09,0.02107
6686.95,0.02885
6663.8,0.02442
6640.66,0.02177
6617.51,0.02356
6594.37,0.02595
6571.22,0.02882
6548.08,0.01728
6524.93,0.02076
6501.79,0.02043
6478.64,0.02698
6455.5,0.02455
6432.35,0.02426
6409.21,0.02385
6386.06,0.02416
6362.92,0.02383
6339.77,0.02129
6316.63,0.02290
6293.48,0.02128
6270.34,0.02525
6247.19,0.02167
6224.05,0.02568
6200.9,0.02394
6177.76,0.01892
6154.61,0.02151
6131.47,0.02491
6108.32,0.02416
6085.18,0.02079
6062.03,0.02521
6038.89,0.02634
6015.74,0.02021
5992.6,0.02160
5969.45,0.02279
5946.31,0.02657
5923.16,0.02041
5900.02,0.02335
5876.88,0.02282
5853.73,0.02211
5830.59,0.02345
5807.44,0.02482
5784.3,0.02240
5761.15,0.02309
5738.01,0.02427
5714.86,0.02511
5691.72,0.02489
5668.57,0.02341
5645.43,0.02182
5622.28,0.02119
5599.14,0.02343
5575.99,0.02264
5552.85,0.02186
5529.7,0.02274
5506.56,0.02307
5483.41,0.02366
5460.27,0.02239
5437.12,0.02265
5413.98,0.02327
5390.83,0.02330
5367.69,0.02300
5344.54,0.02364
5321.4,0.02374
5298.25,0.02412
5275.11,0.02219
5251.96,0.02317
5228.82,0.02362
5205.67,0.02198
5182.53,0.02388
5159.38,0.02321
5136.24,0.02214
5113.09,0.02197
5089.95,0.02404
5066.8,0.02230
5043.66,0.02374
5020.51,0.02260
4997.37,0.02217
4974.22,0.02250
4951.08,0.02275
4927.93,0.02275
4904.79,0.02209
4881.64,0.02256
4858.5,0.02339
4835.35,0.02315
4812.21,0.02303
4789.06,0.02403
4765.92,0.02329
4742.78,0.02339
4719.63,0.02339
4696.49,0.02437
4673.34,0.02300
4650.2,0.02354
4627.05,0.02320
4603.91,0.02319
4580.76,0.02269
4557.62,0.02346
4534.47,0.02368
4511.33,0.02398
4488.18,0.02372
4465.04,0.02353
4441.89,0.02406
4418.75,0.02220
4395.6,0.02357
4372.46,0.02313
4349.31,0.02308
4326.17,0.02330
4303.02,0.02340
4279.88,0.02374
4256.73,0.02398
4233.59,0.02244
4210.44,0.02426
4187.3,0.02322
4164.15,0.02374
4141.01,0.02406
4117.86,0.02338
4094.72,0.02322
4071.57,0.02414
4048.43,0.02407
4025.28,0.02331
4002.14,0.02395
3978.99,0.02339
3955.85,0.02369
3932.7,0.02421
3909.56,0.02380
3886.41,0.02370
3863.27,0.02445
3840.12,0.02424
3816.98,0.02403
3793.83,0.02292
3770.69,0.02439
3747.54,0.02366
3724.4,0.02346
3701.25,0.02330
3678.11,0.02396
3654.97,0.02341
3631.82,0.02367
3608.68,0.02332
3585.53,0.02272
3562.39,0.02246
3539.24,0.02194
3516.1,0.02247
3492.95,0.02284
3469.81,0.02197
3446.66,0.02208
3423.52,0.02233
3400.37,0.02256
3377.23,0.02132
3354.08,0.02126
3330.94,0.02110
3307.79,0.02135
3284.65,0.02178
3261.5,0.02190
3238.36,0.02228
3215.21,0.02144
3192.07,0.02243
3168.92,0.02201
3145.78,0.02185
3122.63,0.02218
3099.49,0.02216
3076.34,0.02194
3053.2,0.02150
3030.05,0.02207
3006.91,0.02176
2983.76,0.02147
2960.62,0.02083
2937.47,0.02077
2914.33,0.02134
2891.18,0.02181
2868.04,0.02157
2844.89,0.02228
2821.75,0.02258
2798.6,0.02224
2775.46,0.02306
2752.31,0.02272
2729.17,0.02284
2706.02,0.02295
2682.88,0.02256
2659.73,0.02281
2636.59,0.02294
2613.44,0.02266
2590.3,0.02281
2567.15,0.02316
2544.01,0.02274
2520.87,0.02311
2497.72,0.02285
2474.58,0.02284
2451.43,0.02289
2428.29,0.02287
2405.14,0.02293
2382,0.02264
2358.85,0.02301
2335.71,0.02270
2312.56,0.02274
2289.42,0.02257
2266.27,0.02276
2243.13,0.02250
2219.98,0.02322
2196.84,0.02284
2173.69,0.02253
2150.55,0.02272
2127.4,0.02310
2104.26,0.02242
2081.11,0.02246
2057.97,0.02270
2034.82,0.02273
2011.68,0.02259
1988.53,0.02249
1965.39,0.02240
1942.24,0.02245
1919.1,0.02253
1895.95,0.02236
1872.81,0.02240
1849.66,0.02230
1826.52,0.02180
1803.37,0.02152
1780.23,0.02094
1757.08,0.01935
1733.94,0.02110
1710.79,0.02221
1687.65,0.02082
1664.5,0.02037
1641.36,0.02022
1618.21,0.02044
1595.07,0.02079
1571.92,0.01993
1548.78,0.01964
1525.63,0.02015
1502.49,0.02009
1479.34,0.02036
1456.2,0.01995
1433.05,0.02017
1409.91,0.01969
1386.77,0.02002
1363.62,0.01949
1340.48,0.01926
1317.33,0.01869
1294.19,0.01905
1271.04,0.02097
1247.9,0.02136
1224.75,0.02117
1201.61,0.02048
1178.46,0.01920
1155.32,0.01902
1132.17,0.01971
1109.03,0.01957
1085.88,0.01952
1062.74,0.02183
1039.59,0.02071
1016.45,0.02018
993.302,0.02286
970.157,0.02158
947.012,0.02146
923.867,0.02118
900.722,0.02094
877.577,0.02049
854.432,0.02104
831.288,0.02055
808.143,0.02060
784.998,0.01883
761.853,0.02025
738.708,0.01920
715.563,0.01886
692.418,0.01884
669.273,0.01875
646.128,0.01792
622.983,0.01625
599.839,0.01602

File: Nylon_3.175_T_IS_221212_R8.dpt
7497.02,0.02881
7473.87,0.03463
7450.73,0.02909
7427.58,0.02527
7404.44,0.02416
7381.29,0.01741
7358.15,0.02043
7335,0.02861
7311.86,0.02407
7288.71,0.02676
7265.57,0.02885
7242.42,0.02595
7219.28,0.02454
7196.13,0.02511
7172.99,0.02529
7149.84,0.02371
7126.7,0.01942
7103.55,0.02837
7080.41,0.01929
7057.26,0.02691
7034.12,0.02841
7010.98,0.02055
6987.83,0.02220
6964.69,0.02424
6941.54,0.02421
6918.4,0.02594
6895.25,0.02726
6872.11,0.02261
6848.96,0.01724
6825.82,0.01955
6802.67,0.02339
6779.53,0.03001
6756.38,0.02362
6733.24,0.02651
6710.09,0.02492
6686.95,0.02214
6663.8,0.02767
6640.66,0.02620
6617.51,0.02324
6594.37,0.02518
6571.22,0.02105
6548.08,0.02408
6524.93,0.01908
6501.79,0.02699
6478.64,0.02166
6455.5,0.02433
6432.35,0.02500
6409.21,0.02310
6386.06,0.02267
6362.92,0.02927
6339.77,0.02214
6316.63,0.02540
6293.48,0.02616
6270.34,0.02386
6247.19,0.02117
6224.05,0.02314
6200.9,0.02126
6177.76,0.02331
6154.61,0.02237
6131.47,0.02023
6108.32,0.02369
6085.18,0.02318
6062.03,0.02442
6038.89,0.02286
6015.74,0.02039
5992.6,0.02356
5969.45,0.02152
5946.31,0.02140
5923.16,0.02121
5900.02,0.02423
5876.88,0.02507
5853.73,0.01953
5830.59,0.02211
5807.44,0.02271
5784.3,0.02464
5761.15,0.02265
5738.01,0.02398
5714.86,0.02238
5691.72,0.02430
5668.57,0.02004
5645.43,0.02257
5622.28,0.02318
5599.14,0.02270
5575.99,0.02311
5552.85,0.02334
5529.7,0.02497
5506.56,0.02240
5483.41,0.02347
5460.27,0.02289
5437.12,0.02209
5413.98,0.02251
5390.83,0.02441
5367.69,0.02388
5344.54,0.02165
5321.4,0.02105
5298.25,0.02385
5275.11,0.02166
5251.96,0.02265
5228.82,0.02229
5205.67,0.02328
5182.53,0.02280
5159.38,0.02283
5136.24,0.02224
5113.09,0.02403
5089.95,0.02239
5066.8,0.02327
5043.66,0.02359
5020.51,0.02310
4997.37,0.02384
4974.22,0.02220
4951.08,0.02308
4927.93,0.02293
4904.79,0.02313
4881.64,0.02261
4858.5,0.02287
4835.35,0.02277
4812.21,0.02409
4789.06,0.02228
4765.92,0.02253
4742.78,0.02291
4719.63,0.02251
4696.49,0.02334
4673.34,0.02320
4650.2,0.02330
4627.05,0.02295
4603.91,0.02284
4580.76,0.02332
4557.62,0.02363
4534.47,0.02361
4511.33,0.02324
4488.18,0.02407
4465.04,0.02369
4441.89,0.02366
4418.75,0.02270
4395.6,0.02355
4372.46,0.02300
4349.31,0.02346
4326.17,0.02288
4303.02,0.02344
4279.88,0.02330
4256.73,0.02311
4233.59,0.02300
4210.44,0.02331
4187.3,0.02410
4164.15,0.02307
4141.01,0.02376
4117.86,0.02330
4094.72,0.02376
4071.57,0.02326
4048.43,0.02357
4025.28,0.02355
4002.14,0.02351
3978.99,0.02378
3955.85,0.02302
3932.7,0.02439
3909.56,0.02338
3886.41,0.02396
3863.27,0.02390
3840.12,0.02431
3816.98,0.02339
3793.83,0.02414
3770.69,0.02370
3747.54,0.02367
3724.4,0.02297
3701.25,0.02346
3678.11,0.02344
3654.97,0.02343
3631.82,0.02337
3608.68,0.02276
3585.53,0.02279
3562.39,0.02223
3539.24,0.02186
3516.1,0.02155
3492.95,0.02182
3469.81,0.02128
3446.66,0.02200
3423.52,0.02166
3400.37,0.02132
3377.23,0.02149
3354.08,0.02100
3330.94,0.02076
3307.79,0.02155
3284.65,0.02094
3261.5,0.02070
3238.36,0.02103
3215.21,0.02076
3192.07,0.02127
3168.92,0.02119
3145.78,0.02162
3122.63,0.02237
3099.49,0.02177
3076.34,0.02160
3053.2,0.02187
3030.05,0.02160
3006.91,0.02152
2983.76,0.02114
2960.62,0.02083
2937.47,0.02138
2914.33,0.02137
2891.18,0.02163
2868.04,0.02139
2844.89,0.02203
2821.75,0.02216
2798.6,0.02262
2775.46,0.02223
2752.31,0.02234
2729.17,0.02258
2706.02,0.02274
2682.88,0.02248
2659.73,0.02260
2636.59,0.02325
2613.44,0.02288
2590.3,0.02254
2567.15,0.02263
2544.01,0.02250
2520.87,0.02283
2497.72,0.02258
2474.58,0.02268
2451.43,0.02227
2428.29,0.02263
2405.14,0.02291
2382,0.02211
2358.85,0.02292
2335.71,0.02292
2312.56,0.02268
2289.42,0.02287
2266.27,0.02262
2243.13,0.02290
2219.98,0.02236
2196.84,0.02241
2173.69,0.02231
2150.55,0.02233
2127.4,0.02213
2104.26,0.02231
2081.11,0.02236
2057.97,0.02206
2034.82,0.02232
2011.68,0.02247
1988.53,0.02217
1965.39,0.02233
1942.24,0.02212
1919.1,0.02205
1895.95,0.02223
1872.81,0.02193
1849.66,0.02194
1826.52,0.02169
1803.37,0.02108
1780.23,0.02054
1757.08,0.01929
1733.94,0.02050
1710.79,0.02166
1687.65,0.02064
1664.5,0.01991
1641.36,0.01972
1618.21,0.02034
1595.07,0.02042
1571.92,0.02010
1548.78,0.01942
1525.63,0.01960
1502.49,0.01962
1479.34,0.01946
1456.2,0.02014
1433.05,0.02004
1409.91,0.01912
1386.77,0.01904
1363.62,0.01934
1340.48,0.01923
1317.33,0.01823
1294.19,0.01878
1271.04,0.02063
1247.9,0.02124
1224.75,0.02074
1201.61,0.02000
1178.46,0.01949
1155.32,0.01833
1132.17,0.01920
1109.03,0.02034
1085.88,0.01888
1062.74,0.02063
1039.59,0.02039
1016.45,0.02044
993.302,0.02265
970.157,0.02214
947.012,0.02100
923.867,0.02131
900.722,0.02043
877.577,0.02079
854.432,0.02015
831.288,0.02016
808.143,0.02008
784.998,0.01961
761.853,0.01934
738.708,0.01923
715.563,0.01921
692.418,0.01907
669.273,0.01905
646.128,0.01802
622.983,0.01813
599.839,0.01730

File: Nylon_3.175_Trans_S_IS_221212_R1.dpt
7497.02,0.58692
7473.87,0.58613
7450.73,0.57973
7427.58,0.57809
7404.44,0.58168
7381.29,0.57641
7358.15,0.56781
7335,0.55147
7311.86,0.52689
7288.71,0.49481
7265.57,0.46747
7242.42,0.43527
7219.28,0.41518
7196.13,0.41811
7172.99,0.42036
7149.84,0.42364
7126.7,0.40783
7103.55,0.39960
7080.41,0.39929
7057.26,0.40081
7034.12,0.40186
7010.98,0.40153
6987.83,0.40255
6964.69,0.41159
6941.54,0.41434
6918.4,0.41974
6895.25,0.42440
6872.11,0.42892
6848.96,0.42438
6825.82,0.42652
6802.67,0.42345
6779.53,0.40887
6756.38,0.39543
6733.24,0.38837
6710.09,0.38021
6686.95,0.37002
6663.8,0.35390
6640.66,0.32383
6617.51,0.29308
6594.37,0.29439
6571.22,0.28752
6548.08,0.27007
6524.93,0.23578
6501.79,0.23184
6478.64,0.23998
6455.5,0.31120
6432.35,0.37502
6409.21,0.37869
6386.06,0.34562
6362.92,0.31834
6339.77,0.31751
6316.63,0.36059
6293.48,0.37860
6270.34,0.35644
6247.19,0.34268
6224.05,0.34315
6200.9,0.37965
6177.76,0.40921
6154.61,0.45743
6131.47,0.48697
6108.32,0.49647
6085.18,0.50227
6062.03,0.49589
6038.89,0.49588
6015.74,0.48543
5992.6,0.46897
5969.45,0.44803
5946.31,0.41086
5923.16,0.33733
5900.02,0.22921
5876.88,0.12172
5853.73,0.05858
5830.59,0.03380
5807.44,0.04716
5784.3,0.07245
5761.15,0.09068
5738.01,0.07202
5714.86,0.05573
5691.72,0.06312
5668.57,0.09341
5645.43,0.13260
5622.28,0.16628
5599.14,0.17879
5575.99,0.18952
5552.85,0.19880
5529.7,0.21208
5506.56,0.22235
5483.41,0.23323
5460.27,0.24394
5437.12,0.25429
5413.98,0.26005
5390.83,0.28552
5367.69,0.30534
5344.54,0.31222
5321.4,0.30364
5298.25,0.25661
5275.11,0.21196
5251.96,0.17994
5228.82,0.14495
5205.67,0.10980
5182.53,0.07910
5159.38,0.06046
5136.24,0.05195
5113.09,0.05609
5089.95,0.06609
5066.8,0.07879
5043.66,0.09243
5020.51,0.09699
4997.37,0.07746
4974.22,0.03356
4951.08,0.03121
4927.93,0.03053
4904.79,0.01324
4881.64,0.00370
4858.5,0.00398
4835.35,0.03681
4812.21,0.06930
4789.06,0.06296
4765.92,0.05933
4742.78,0.04367
4719.63,0.02748
4696.49,0.01332
4673.34,0.01111
4650.2,0.01016
4627.05,0.00588
4603.91,0.00210
4580.76,0.00075
4557.62,0.00178
4534.47,0.00199
4511.33,0.00466
4488.18,0.00705
4465.04,0.00659
4441.89,0.00320
4418.75,0.00164
4395.6,0.00083
4372.46,0.00070
4349.31,0.00045
4326.17,0.00046
4303.02,0.00056
4279.88,0.00041
4256.73,0.00026
4233.59,0.00062
4210.44,0.00013
4187.3,0.00042
4164.15,0.00014
4141.01,0.00047
4117.86,0.00057
4094.72,0.00068
4071.57,0.00031
4048.43,0.00027
4025.28,0.00089
4002.14,0.00045
3978.99,0.00038
3955.85,0.00061
3932.7,0.00085
3909.56,0.00163
3886.41,0.00221
3863.27,0.00367
3840.12,0.00249
3816.98,0.00306
3793.83,0.00464
3770.69,0.00516
3747.54,0.00449
3724.4,0.00340
3701.25,0.00121
3678.11,0.00053
3654.97,0.00051
3631.82,0.00049
3608.68,0.00030
3585.53,0.00020
3562.39,0.00006
3539.24,0.00023
3516.1,0.00023
3492.95,0.00041
3469.81,0.00057
3446.66,0.00028
3423.52,0.00023
3400.37,0.00032
3377.23,0.00038
3354.08,0.00021
3330.94,0.00054
3307.79,0.00112
3284.65,0.00125
3261.5,0.00078
3238.36,0.00030
3215.21,0.00034
3192.07,0.00003
3168.92,0.00034
3145.78,0.00078
3122.63,0.00038
3099.49,0.00047
3076.34,0.00022
3053.2,0.00036
3030.05,0.00040
3006.91,0.00018
2983.76,0.00042
2960.62,0.00022
2937.47,0.00037
2914.33,0.00059
2891.18,0.00044
2868.04,0.00025
2844.89,0.00038
2821.75,0.00010
2798.6,0.00030
2775.46,0.00021
2752.31,0.00038
2729.17,0.00023
2706.02,0.00040
2682.88,0.00032
2659.73,0.00009
2636.59,0.00025
2613.44,0.00025
2590.3,0.00027
2567.15,0.00019
2544.01,0.00031
2520.87,0.00044
2497.72,0.00023
2474.58,0.00017
2451.43,0.00033
2428.29,0.00029
2405.14,0.00023
2382,0.00023
2358.85,0.00013
2335.71,-0.00000
2312.56,0.00048
2289.42,0.00014
2266.27,0.00008
2243.13,0.00020
2219.98,0.00015
2196.84,-0.00007
2173.69,0.00025
2150.55,0.00007
2127.4,0.00024
2104.26,0.00041
2081.11,0.00018
2057.97,0.00034
2034.82,0.00014
2011.68,0.00017
1988.53,0.00030
1965.39,0.00015
1942.24,0.00043
1919.1,0.00018
1895.95,0.00016
1872.81,0.00014
1849.66,0.00004
1826.52,0.00007
1803.37,0.00012
1780.23,0.00014
1757.08,0.00034
1733.94,0.00030
1710.79,0.00029
1687.65,0.00026
1664.5,0.00020
1641.36,0.00060
1618.21,0.00041
1595.07,0.00016
1571.92,0.00042
1548.78,0.00032
1525.63,0.00025
1502.49,0.00021
1479.34,0.00016
1456.2,0.00023
1433.05,0.00018
1409.91,0.00008
1386.77,0.00014
1363.62,0.00035
1340.48,0.00012
1317.33,0.00037
1294.19,0.00059
1271.04,0.00026
1247.9,0.00033
1224.75,-0.00017
1201.61,0.00057
1178.46,0.00035
1155.32,0.00019
1132.17,0.00012
1109.03,0.00031
1085.88,0.00040
1062.74,0.00063
1039.59,0.00056
1016.45,0.00049
993.302,0.00068
970.157,0.00061
947.012,0.00030
923.867,0.00007
900.722,0.00042
877.577,0.00070
854.432,0.00051
831.288,0.00019
808.143,0.00059
784.998,0.00055
761.853,0.00049
738.708,0.00086
715.563,0.00074
692.418,0.00108
669.273,0.00148
646.128,0.00129
622.983,0.00205
599.839,0.00216

File: Nylon_3.175_Trans_S_IS_221212_R2.dpt
7497.02,0.58173
7473.87,0.59193
7450.73,0.58609
7427.58,0.57648
7404.44,0.58348
7381.29,0.58028
7358.15,0.56735
7335,0.54815
7311.86,0.52443
7288.71,0.49549
7265.57,0.46763
7242.42,0.42618
7219.28,0.40792
7196.13,0.41664
7172.99,0.41994
7149.84,0.42179
7126.7,0.41133
7103.55,0.40592
7080.41,0.39539
7057.26,0.40338
7034.12,0.40132
7010.98,0.40699
6987.83,0.40492
6964.69,0.40675
6941.54,0.42215
6918.4,0.41900
6895.25,0.42176
6872.11,0.42219
6848.96,0.43257
6825.82,0.42874
6802.67,0.42819
6779.53,0.41347
6756.38,0.39767
6733.24,0.38938
6710.09,0.38172
6686.95,0.37377
6663.8,0.35587
6640.66,0.32365
6617.51,0.29376
6594.37,0.29497
6571.22,0.29043
6548.08,0.27416
6524.93,0.23934
6501.79,0.23168
6478.64,0.24309
6455.5,0.31523
6432.35,0.37456
6409.21,0.37727
6386.06,0.34385
6362.92,0.31628
6339.77,0.31697
6316.63,0.35919
6293.48,0.38061
6270.34,0.35633
6247.19,0.34083
6224.05,0.34598
6200.9,0.37832
6177.76,0.40948
6154.61,0.45727
6131.47,0.48861
6108.32,0.49977
6085.18,0.50275
6062.03,0.50185
6038.89,0.49428
6015.74,0.48976
5992.6,0.47445
5969.45,0.44996
5946.31,0.41236
5923.16,0.33883
5900.02,0.22836
5876.88,0.12025
5853.73,0.05849
5830.59,0.03485
5807.44,0.04794
5784.3,0.07382
5761.15,0.09061
5738.01,0.07352
5714.86,0.05165
5691.72,0.06236
5668.57,0.09293
5645.43,0.13245
5622.28,0.16590
5599.14,0.17940
5575.99,0.18947
5552.85,0.20248
5529.7,0.21244
5506.56,0.22348
5483.41,0.23464
5460.27,0.24455
5437.12,0.25323
5413.98,0.25956
5390.83,0.28576
5367.69,0.30504
5344.54,0.30836
5321.4,0.30422
5298.25,0.25724
5275.11,0.21307
5251.96,0.17952
5228.82,0.14463
5205.67,0.11035
5182.53,0.07829
5159.38,0.06130
5136.24,0.05235
5113.09,0.05549
5089.95,0.06644
5066.8,0.07965
5043.66,0.09189
5020.51,0.09526
4997.37,0.07763
4974.22,0.03401
4951.08,0.03215
4927.93,0.03072
4904.79,0.01416
4881.64,0.00236
4858.5,0.00425
4835.35,0.03702
4812.21,0.06931
4789.06,0.06223
4765.92,0.05972
4742.78,0.04539
4719.63,0.02696
4696.49,0.01230
4673.34,0.00994
4650.2,0.01016
4627.05,0.00642
4603.91,0.00270
4580.76,0.00070
4557.62,0.00196
4534.47,0.00211
4511.33,0.00442
4488.18,0.00822
4465.04,0.00642
4441.89,0.00304
4418.75,0.00090
4395.6,0.00034
4372.46,0.00057
4349.31,0.00023
4326.17,0.00093
4303.02,0.00009
4279.88,0.00021
4256.73,0.00048
4233.59,0.00039
4210.44,0.00038
4187.3,-0.00014
4164.15,0.00029
4141.01,0.00043
4117.86,0.00057
4094.72,0.00028
4071.57,0.00043
4048.43,0.00022
4025.28,0.00059
4002.14,0.00066
3978.99,0.00025
3955.85,0.00048
3932.7,0.00103
3909.56,0.00155
3886.41,0.00278
3863.27,0.00397
3840.12,0.00236
3816.98,0.00305
3793.83,0.00402
3770.69,0.00549
3747.54,0.00425
3724.4,0.00325
3701.25,0.00128
3678.11,0.00004
3654.97,0.00106
3631.82,0.00050
3608.68,0.00065
3585.53,0.00053
3562.39,0.00046
3539.24,0.00041
3516.1,0.00050
3492.95,0.00043
3469.81,0.00029
3446.66,0.00078
3423.52,-0.00002
3400.37,0.00049
3377.23,0.00032
3354.08,0.00120
3330.94,0.00065
3307.79,0.00063
3284.65,0.00052
3261.5,0.00024
3238.36,0.00113
3215.21,0.00078
3192.07,0.00083
3168.92,0.00090
3145.78,-0.00012
3122.63,0.00011
3099.49,0.00041
3076.34,0.00056
3053.2,0.00021
3030.05,0.00026
3006.91,0.00045
2983.76,0.00010
2960.62,0.00023
2937.47,0.00032
2914.33,0.00005
2891.18,0.00035
2868.04,0.00011
2844.89,0.00030
2821.75,-0.00002
2798.6,0.00018
2775.46,0.00007
2752.31,0.00022
2729.17,0.00003
2706.02,0.00014
2682.88,0.00047
2659.73,0.00015
2636.59,0.00048
2613.44,0.00035
2590.3,0.00050
2567.15,0.00040
2544.01,0.00025
2520.87,0.00023
2497.72,0.00018
2474.58,0.00022
2451.43,0.00030
2428.29,0.00027
2405.14,0.00011
2382,0.00013
2358.85,0.00008
2335.71,0.00013
2312.56,0.00026
2289.42,0.00003
2266.27,0.00009
2243.13,0.00017
2219.98,0.00022
2196.84,0.00021
2173.69,0.00019
2150.55,0.00008
2127.4,0.00008
2104.26,0.00036
2081.11,0.00018
2057.97,0.00024
2034.82,0.00034
2011.68,0.00011
1988.53,0.00016
1965.39,0.00026
1942.24,0.00028
1919.1,0.00023
1895.95,0.00022
1872.81,0.00026
1849.66,0.00015
1826.52,0.00013
1803.37,0.00017
1780.23,0.00005
1757.08,0.00021
1733.94,0.00023
1710.79,0.00027
1687.65,0.00002
1664.5,0.00024
1641.36,0.00054
1618.21,0.00028
1595.07,0.00013
1571.92,0.00019
1548.78,0.00019
1525.63,0.00030
1502.49,0.00024
1479.34,0.00006
1456.2,0.00015
1433.05,0.00011
1409.91,0.00024
1386.77,0.00009
1363.62,0.00022
1340.48,0.00018
1317.33,0.00017
1294.19,-0.00003
1271.04,0.00026
1247.9,0.00007
1224.75,0.00033
1201.61,0.00063
1178.46,0.00043
1155.32,0.00003
1132.17,0.00013
1109.03,0.00036
1085.88,0.00053
1062.74,0.00067
1039.59,0.00069
1016.45,0.00037
993.302,0.00067
970.157,0.00023
947.012,0.00030
923.867,0.00076
900.722,0.00033
877.577,0.00066
854.432,0.00100
831.288,0.00075
808.143,0.00102
784.998,0.00049
761.853,0.00035
738.708,0.00078
715.563,0.00058
692.418,0.00051
669.273,0.00074
646.128,0.00186
622.983,0.00025
599.839,0.00164