Folder: fsri_materials_database/01_Data/Nylon/FTIR/IS (part 3)

File: Nylon_3.175_S_IS_221212_R2.dpt
7497.02,0.11707
7473.87,0.13110
7450.73,0.12852
7427.58,0.12040
7404.44,0.11916
7381.29,0.11587
7358.15,0.11151
7335,0.10235
7311.86,0.10724
7288.71,0.10062
7265.57,0.09439
7242.42,0.08492
7219.28,0.08536
7196.13,0.08169
7172.99,0.08148
7149.84,0.07835
7126.7,0.08435
7103.55,0.08312
7080.41,0.08181
7057.26,0.07971
7034.12,0.07794
7010.98,0.07693
6987.83,0.07047
6964.69,0.08370
6941.54,0.08610
6918.4,0.08080
6895.25,0.08397
6872.11,0.08233
6848.96,0.08448
6825.82,0.08005
6802.67,0.08166
6779.53,0.08773
6756.38,0.07634
6733.24,0.07614
6710.09,0.07002
6686.95,0.07434
6663.8,0.07450
6640.66,0.06866
6617.51,0.06304
6594.37,0.06736
6571.22,0.06427
6548.08,0.06309
6524.93,0.06966
6501.79,0.06210
6478.64,0.05965
6455.5,0.06634
6432.35,0.07387
6409.21,0.07300
6386.06,0.06956
6362.92,0.06888
6339.77,0.06721
6316.63,0.06908
6293.48,0.07294
6270.34,0.06830
6247.19,0.06905
6224.05,0.06871
6200.9,0.07313
6177.76,0.07360
6154.61,0.08100
6131.47,0.08528
6108.32,0.08418
6085.18,0.08739
6062.03,0.08616
6038.89,0.08442
6015.74,0.08593
5992.6,0.08132
5969.45,0.07972
5946.31,0.07514
5923.16,0.06939
5900.02,0.06196
5876.88,0.05715
5853.73,0.05615
5830.59,0.05544
5807.44,0.05552
5784.3,0.05475
5761.15,0.05392
5738.01,0.05609
5714.86,0.05606
5691.72,0.05508
5668.57,0.05685
5645.43,0.05798
5622.28,0.05831
5599.14,0.05741
5575.99,0.06070
5552.85,0.06167
5529.7,0.05991
5506.56,0.05989
5483.41,0.06229
5460.27,0.06225
5437.12,0.06279
5413.98,0.06487
5390.83,0.06439
5367.69,0.06568
5344.54,0.06624
5321.4,0.06556
5298.25,0.06400
5275.11,0.06144
5251.96,0.05902
5228.82,0.05936
5205.67,0.05818
5182.53,0.05830
5159.38,0.05707
5136.24,0.05706
5113.09,0.05687
5089.95,0.05656
5066.8,0.05828
5043.66,0.05756
5020.51,0.05746
4997.37,0.05751
4974.22,0.05895
4951.08,0.05733
4927.93,0.05751
4904.79,0.05818
4881.64,0.05712
4858.5,0.05900
4835.35,0.05800
4812.21,0.05844
4789.06,0.05924
4765.92,0.05858
4742.78,0.05891
4719.63,0.05850
4696.49,0.05780
4673.34,0.05822
4650.2,0.05743
4627.05,0.05789
4603.91,0.05885
4580.76,0.05760
4557.62,0.05824
4534.47,0.05846
4511.33,0.05754
4488.18,0.05807
4465.04,0.05794
4441.89,0.05818
4418.75,0.05800
4395.6,0.05865
4372.46,0.05904
4349.31,0.05810
4326.17,0.05800
4303.02,0.05874
4279.88,0.05872
4256.73,0.05834
4233.59,0.05823
4210.44,0.05822
4187.3,0.05854
4164.15,0.05844
4141.01,0.05829
4117.86,0.05871
4094.72,0.05878
4071.57,0.05886
4048.43,0.05943
4025.28,0.05892
4002.14,0.05816
3978.99,0.05886
3955.85,0.05847
3932.7,0.05913
3909.56,0.05926
3886.41,0.05889
3863.27,0.05887
3840.12,0.05945
3816.98,0.05928
3793.83,0.05872
3770.69,0.05861
3747.54,0.05854
3724.4,0.05841
3701.25,0.05817
3678.11,0.05855
3654.97,0.05762
3631.82,0.05861
3608.68,0.05756
3585.53,0.05663
3562.39,0.05674
3539.24,0.05669
3516.1,0.05600
3492.95,0.05567
3469.81,0.05593
3446.66,0.05462
3423.52,0.05407
3400.37,0.05310
3377.23,0.05127
3354.08,0.04900
3330.94,0.04619
3307.79,0.05500
3284.65,0.07014
3261.5,0.06732
3238.36,0.06449
3215.21,0.06382
3192.07,0.06200
3168.92,0.06254
3145.78,0.06142
3122.63,0.06092
3099.49,0.05986
3076.34,0.06008
3053.2,0.06117
3030.05,0.06055
3006.91,0.05918
2983.76,0.05702
2960.62,0.05526
2937.47,0.05761
2914.33,0.06565
2891.18,0.06325
2868.04,0.06287
2844.89,0.06865
2821.75,0.06534
2798.6,0.06430
2775.46,0.06394
2752.31,0.06351
2729.17,0.06301
2706.02,0.06307
2682.88,0.06253
2659.73,0.06262
2636.59,0.06224
2613.44,0.06247
2590.3,0.06224
2567.15,0.06216
2544.01,0.06161
2520.87,0.06160
2497.72,0.06171
2474.58,0.06172
2451.43,0.06112
2428.29,0.06086
2405.14,0.06122
2382,0.06139
2358.85,0.06114
2335.71,0.06138
2312.56,0.06046
2289.42,0.06046
2266.27,0.06036
2243.13,0.06050
2219.98,0.05976
2196.84,0.06030
2173.69,0.06008
2150.55,0.05957
2127.4,0.05987
2104.26,0.05955
2081.11,0.05905
2057.97,0.05870
2034.82,0.05853
2011.68,0.05879
1988.53,0.05795
1965.39,0.05772
1942.24,0.05770
1919.1,0.05681
1895.95,0.05655
1872.81,0.05563
1849.66,0.05505
1826.52,0.05443
1803.37,0.05275
1780.23,0.05140
1757.08,0.04977
1733.94,0.04858
1710.79,0.04377
1687.65,0.03723
1664.5,0.03498
1641.36,0.11431
1618.21,0.09774
1595.07,0.07088
1571.92,0.05161
1548.78,0.05889
1525.63,0.09725
1502.49,0.07870
1479.34,0.06855
1456.2,0.07434
1433.05,0.07114
1409.91,0.07630
1386.77,0.06912
1363.62,0.07250
1340.48,0.07111
1317.33,0.06821
1294.19,0.06548
1271.04,0.07120
1247.9,0.07279
1224.75,0.07096
1201.61,0.06948
1178.46,0.07489
1155.32,0.07207
1132.17,0.07232
1109.03,0.07042
1085.88,0.06957
1062.74,0.06912
1039.59,0.06920
1016.45,0.06851
993.302,0.06783
970.157,0.06647
947.012,0.06523
923.867,0.06820
900.722,0.06660
877.577,0.06528
854.432,0.06378
831.288,0.06255
808.143,0.06220
784.998,0.06036
761.853,0.05642
738.708,0.05365
715.563,0.05646
692.418,0.05760
669.273,0.06852
646.128,0.06654
622.983,0.06401
599.839,0.06248

File: Nylon_3.175_S_IS_221212_R3.dpt
7497.02,0.13632
7473.87,0.12710
7450.73,0.12293
7427.58,0.12347
7404.44,0.12002
7381.29,0.12930
7358.15,0.10891
7335,0.11483
7311.86,0.10675
7288.71,0.10244
7265.57,0.09288
7242.42,0.09204
7219.28,0.08872
7196.13,0.08548
7172.99,0.08864
7149.84,0.07952
7126.7,0.08562
7103.55,0.08370
7080.41,0.08473
7057.26,0.07788
7034.12,0.08101
7010.98,0.08700
6987.83,0.08302
6964.69,0.08076
6941.54,0.08439
6918.4,0.08123
6895.25,0.08104
6872.11,0.07893
6848.96,0.08251
6825.82,0.08192
6802.67,0.07431
6779.53,0.07965
6756.38,0.07798
6733.24,0.07504
6710.09,0.07417
6686.95,0.07202
6663.8,0.07146
6640.66,0.06638
6617.51,0.06645
6594.37,0.06391
6571.22,0.06292
6548.08,0.06416
6524.93,0.05985
6501.79,0.05843
6478.64,0.06303
6455.5,0.06234
6432.35,0.07685
6409.21,0.07025
6386.06,0.07415
6362.92,0.06639
6339.77,0.06932
6316.63,0.06981
6293.48,0.07097
6270.34,0.07159
6247.19,0.06910
6224.05,0.06961
6200.9,0.07092
6177.76,0.07528
6154.61,0.07781
6131.47,0.08141
6108.32,0.08609
6085.18,0.08739
6062.03,0.08749
6038.89,0.08311
6015.74,0.08438
5992.6,0.08231
5969.45,0.07957
5946.31,0.07558
5923.16,0.06862
5900.02,0.05992
5876.88,0.05545
5853.73,0.05574
5830.59,0.05787
5807.44,0.05763
5784.3,0.05795
5761.15,0.05509
5738.01,0.05814
5714.86,0.05503
5691.72,0.05462
5668.57,0.05742
5645.43,0.05784
5622.28,0.05894
5599.14,0.05895
5575.99,0.05975
5552.85,0.05825
5529.7,0.06123
5506.56,0.06079
5483.41,0.06229
5460.27,0.06326
5437.12,0.06321
5413.98,0.06411
5390.83,0.06463
5367.69,0.06607
5344.54,0.06533
5321.4,0.06423
5298.25,0.06444
5275.11,0.06121
5251.96,0.06066
5228.82,0.05965
5205.67,0.05876
5182.53,0.05801
5159.38,0.05657
5136.24,0.05835
5113.09,0.05726
5089.95,0.05676
5066.8,0.05789
5043.66,0.05792
5020.51,0.05754
4997.37,0.05665
4974.22,0.05715
4951.08,0.05767
4927.93,0.05674
4904.79,0.05785
4881.64,0.05699
4858.5,0.05736
4835.35,0.05770
4812.21,0.05786
4789.06,0.05738
4765.92,0.05766
4742.78,0.05793
4719.63,0.05756
4696.49,0.05693
4673.34,0.05747
4650.2,0.05713
4627.05,0.05775
4603.91,0.05824
4580.76,0.05827
4557.62,0.05791
4534.47,0.05796
4511.33,0.05793
4488.18,0.05791
4465.04,0.05732
4441.89,0.05800
4418.75,0.05780
4395.6,0.05743
4372.46,0.05819
4349.31,0.05829
4326.17,0.05735
4303.02,0.05809
4279.88,0.05905
4256.73,0.05872
4233.59,0.05781
4210.44,0.05854
4187.3,0.05878
4164.15,0.05869
4141.01,0.05872
4117.86,0.05823
4094.72,0.05839
4071.57,0.05873
4048.43,0.05828
4025.28,0.05910
4002.14,0.05863
3978.99,0.05866
3955.85,0.05826
3932.7,0.05872
3909.56,0.05876
3886.41,0.05846
3863.27,0.05866
3840.12,0.05892
3816.98,0.05892
3793.83,0.05905
3770.69,0.05817
3747.54,0.05861
3724.4,0.05836
3701.25,0.05816
3678.11,0.05805
3654.97,0.05756
3631.82,0.05706
3608.68,0.05723
3585.53,0.05645
3562.39,0.05670
3539.24,0.05577
3516.1,0.05587
3492.95,0.05611
3469.81,0.05507
3446.66,0.05419
3423.52,0.05395
3400.37,0.05257
3377.23,0.05026
3354.08,0.04924
3330.94,0.04594
3307.79,0.05407
3284.65,0.06950
3261.5,0.06817
3238.36,0.06551
3215.21,0.06362
3192.07,0.06290
3168.92,0.06111
3145.78,0.06179
3122.63,0.05956
3099.49,0.05960
3076.34,0.05937
3053.2,0.06064
3030.05,0.06002
3006.91,0.05944
2983.76,0.05664
2960.62,0.05551
2937.47,0.05707
2914.33,0.06588
2891.18,0.06316
2868.04,0.06327
2844.89,0.06864
2821.75,0.06452
2798.6,0.06388
2775.46,0.06315
2752.31,0.06287
2729.17,0.06290
2706.02,0.06258
2682.88,0.06227
2659.73,0.06224
2636.59,0.06220
2613.44,0.06150
2590.3,0.06172
2567.15,0.06127
2544.01,0.06126
2520.87,0.06150
2497.72,0.06099
2474.58,0.06099
2451.43,0.06119
2428.29,0.06102
2405.14,0.06066
2382,0.06069
2358.85,0.06058
2335.71,0.06058
2312.56,0.06051
2289.42,0.06056
2266.27,0.06042
2243.13,0.05995
2219.98,0.05993
2196.84,0.05964
2173.69,0.05946
2150.55,0.05942
2127.4,0.05955
2104.26,0.05901
2081.11,0.05882
2057.97,0.05885
2034.82,0.05820
2011.68,0.05815
1988.53,0.05749
1965.39,0.05758
1942.24,0.05705
1919.1,0.05655
1895.95,0.05601
1872.81,0.05544
1849.66,0.05484
1826.52,0.05409
1803.37,0.05252
1780.23,0.05080
1757.08,0.04949
1733.94,0.04831
1710.79,0.04374
1687.65,0.03715
1664.5,0.03499
1641.36,0.11383
1618.21,0.09691
1595.07,0.07019
1571.92,0.05122
1548.78,0.05859
1525.63,0.09667
1502.49,0.07805
1479.34,0.06813
1456.2,0.07440
1433.05,0.07056
1409.91,0.07610
1386.77,0.06829
1363.62,0.07226
1340.48,0.07059
1317.33,0.06772
1294.19,0.06525
1271.04,0.07054
1247.9,0.07292
1224.75,0.07076
1201.61,0.06913
1178.46,0.07438
1155.32,0.07205
1132.17,0.07235
1109.03,0.07053
1085.88,0.06930
1062.74,0.06877
1039.59,0.06860
1016.45,0.06816
993.302,0.06758
970.157,0.06671
947.012,0.06502
923.867,0.06688
900.722,0.06618
877.577,0.06516
854.432,0.06391
831.288,0.06251
808.143,0.06211
784.998,0.05946
761.853,0.05731
738.708,0.05400
715.563,0.05600
692.418,0.05760
669.273,0.06883
646.128,0.06765
622.983,0.06387
599.839,0.06133

File: Nylon_3.175_S_IS_221212_R4.dpt
7497.02,0.12410
7473.87,0.13315
7450.73,0.12190
7427.58,0.12339
7404.44,0.12483
7381.29,0.12356
7358.15,0.12424
7335,0.11421
7311.86,0.10797
7288.71,0.10075
7265.57,0.08791
7242.42,0.08871
7219.28,0.08465
7196.13,0.08667
7172.99,0.08376
7149.84,0.08478
7126.7,0.07934
7103.55,0.07619
7080.41,0.07984
7057.26,0.07873
7034.12,0.08588
7010.98,0.08094
6987.83,0.08099
6964.69,0.08083
6941.54,0.08320
6918.4,0.07829
6895.25,0.07794
6872.11,0.08672
6848.96,0.08230
6825.82,0.08124
6802.67,0.08056
6779.53,0.07987
6756.38,0.07330
6733.24,0.07877
6710.09,0.07458
6686.95,0.07206
6663.8,0.07330
6640.66,0.06761
6617.51,0.06737
6594.37,0.06168
6571.22,0.06353
6548.08,0.06343
6524.93,0.06104
6501.79,0.05961
6478.64,0.06471
6455.5,0.06739
6432.35,0.07223
6409.21,0.07029
6386.06,0.06839
6362.92,0.06852
6339.77,0.06962
6316.63,0.07218
6293.48,0.07247
6270.34,0.06852
6247.19,0.06857
6224.05,0.06772
6200.9,0.07046
6177.76,0.07332
6154.61,0.08289
6131.47,0.08419
6108.32,0.08754
6085.18,0.09017
6062.03,0.08263
6038.89,0.08718
6015.74,0.08517
5992.6,0.08070
5969.45,0.08225
5946.31,0.07627
5923.16,0.06773
5900.02,0.05947
5876.88,0.05768
5853.73,0.05649
5830.59,0.05448
5807.44,0.05514
5784.3,0.05354
5761.15,0.05830
5738.01,0.05470
5714.86,0.05646
5691.72,0.05638
5668.57,0.05500
5645.43,0.05769
5622.28,0.05874
5599.14,0.05954
5575.99,0.06170
5552.85,0.06036
5529.7,0.06011
5506.56,0.06136
5483.41,0.06243
5460.27,0.06420
5437.12,0.06292
5413.98,0.06344
5390.83,0.06587
5367.69,0.06581
5344.54,0.06748
5321.4,0.06531
5298.25,0.06403
5275.11,0.06099
5251.96,0.05988
5228.82,0.05937
5205.67,0.05593
5182.53,0.05777
5159.38,0.05817
5136.24,0.05627
5113.09,0.05676
5089.95,0.05701
5066.8,0.05587
5043.66,0.05870
5020.51,0.05749
4997.37,0.05804
4974.22,0.05758
4951.08,0.05747
4927.93,0.05808
4904.79,0.05645
4881.64,0.05671
4858.5,0.05733
4835.35,0.05766
4812.21,0.05813
4789.06,0.05758
4765.92,0.05835
4742.78,0.05833
4719.63,0.05744
4696.49,0.05772
4673.34,0.05790
4650.2,0.05771
4627.05,0.05801
4603.91,0.05723
4580.76,0.05843
4557.62,0.05825
4534.47,0.05671
4511.33,0.05861
4488.18,0.05851
4465.04,0.05798
4441.89,0.05700
4418.75,0.05817
4395.6,0.05789
4372.46,0.05822
4349.31,0.05767
4326.17,0.05791
4303.02,0.05811
4279.88,0.05844
4256.73,0.05783
4233.59,0.05889
4210.44,0.05839
4187.3,0.05909
4164.15,0.05906
4141.01,0.05863
4117.86,0.05877
4094.72,0.05818
4071.57,0.05835
4048.43,0.05860
4025.28,0.05795
4002.14,0.05938
3978.99,0.05827
3955.85,0.05872
3932.7,0.05891
3909.56,0.05873
3886.41,0.05887
3863.27,0.05907
3840.12,0.05948
3816.98,0.05832
3793.83,0.05866
3770.69,0.05864
3747.54,0.05861
3724.4,0.05771
3701.25,0.05864
3678.11,0.05817
3654.97,0.05796
3631.82,0.05799
3608.68,0.05708
3585.53,0.05717
3562.39,0.05685
3539.24,0.05624
3516.1,0.05570
3492.95,0.05622
3469.81,0.05502
3446.66,0.05505
3423.52,0.05409
3400.37,0.05270
3377.23,0.05050
3354.08,0.04910
3330.94,0.04532
3307.79,0.05568
3284.65,0.06984
3261.5,0.06743
3238.36,0.06458
3215.21,0.06271
3192.07,0.06301
3168.92,0.06202
3145.78,0.06121
3122.63,0.06019
3099.49,0.05972
3076.34,0.06009
3053.2,0.06113
3030.05,0.06038
3006.91,0.05885
2983.76,0.05681
2960.62,0.05511
2937.47,0.05749
2914.33,0.06638
2891.18,0.06283
2868.04,0.06299
2844.89,0.06890
2821.75,0.06507
2798.6,0.06438
2775.46,0.06304
2752.31,0.06264
2729.17,0.06281
2706.02,0.06277
2682.88,0.06197
2659.73,0.06224
2636.59,0.06206
2613.44,0.06161
2590.3,0.06173
2567.15,0.06131
2544.01,0.06151
2520.87,0.06111
2497.72,0.06118
2474.58,0.06133
2451.43,0.06119
2428.29,0.06131
2405.14,0.06097
2382,0.06086
2358.85,0.06106
2335.71,0.06047
2312.56,0.06050
2289.42,0.06028
2266.27,0.06017
2243.13,0.05996
2219.98,0.05985
2196.84,0.05988
2173.69,0.05959
2150.55,0.05939
2127.4,0.05934
2104.26,0.05911
2081.11,0.05865
2057.97,0.05843
2034.82,0.05874
2011.68,0.05803
1988.53,0.05788
1965.39,0.05731
1942.24,0.05732
1919.1,0.05653
1895.95,0.05603
1872.81,0.05563
1849.66,0.05483
1826.52,0.05398
1803.37,0.05269
1780.23,0.05081
1757.08,0.04962
1733.94,0.04796
1710.79,0.04374
1687.65,0.03736
1664.5,0.03510
1641.36,0.11374
1618.21,0.09709
1595.07,0.07079
1571.92,0.05157
1548.78,0.05880
1525.63,0.09659
1502.49,0.07811
1479.34,0.06817
1456.2,0.07424
1433.05,0.07068
1409.91,0.07555
1386.77,0.06841
1363.62,0.07229
1340.48,0.07091
1317.33,0.06763
1294.19,0.06538
1271.04,0.07106
1247.9,0.07281
1224.75,0.07122
1201.61,0.06918
1178.46,0.07444
1155.32,0.07241
1132.17,0.07234
1109.03,0.07076
1085.88,0.06863
1062.74,0.06863
1039.59,0.06813
1016.45,0.06888
993.302,0.06785
970.157,0.06626
947.012,0.06453
923.867,0.06789
900.722,0.06649
877.577,0.06517
854.432,0.06444
831.288,0.06331
808.143,0.06125
784.998,0.06005
761.853,0.05751
738.708,0.05325
715.563,0.05606
692.418,0.05794
669.273,0.06898
646.128,0.06684
622.983,0.06500
599.839,0.06088

File: Nylon_3.175_S_IS_221212_R5.dpt
7497.02,0.13272
7473.87,0.13450
7450.73,0.13018
7427.58,0.11602
7404.44,0.12605
7381.29,0.12424
7358.15,0.11977
7335,0.10191
7311.86,0.10348
7288.71,0.10181
7265.57,0.09611
7242.42,0.08539
7219.28,0.08372
7196.13,0.08205
7172.99,0.07617
7149.84,0.08250
7126.7,0.07715
7103.55,0.07929
7080.41,0.08362
7057.26,0.07833
7034.12,0.08748
7010.98,0.08095
6987.83,0.08250
6964.69,0.07951
6941.54,0.08391
6918.4,0.07923
6895.25,0.09169
6872.11,0.08308
6848.96,0.08384
6825.82,0.09155
6802.67,0.07772
6779.53,0.07785
6756.38,0.07678
6733.24,0.07649
6710.09,0.07317
6686.95,0.07403
6663.8,0.06586
6640.66,0.06399
6617.51,0.06769
6594.37,0.06805
6571.22,0.06381
6548.08,0.06515
6524.93,0.05893
6501.79,0.06042
6478.64,0.06371
6455.5,0.06662
6432.35,0.07080
6409.21,0.07476
6386.06,0.07386
6362.92,0.06969
6339.77,0.06942
6316.63,0.07026
6293.48,0.07566
6270.34,0.06972
6247.19,0.07025
6224.05,0.06951
6200.9,0.07225
6177.76,0.07379
6154.61,0.07416
6131.47,0.08331
6108.32,0.08543
6085.18,0.08801
6062.03,0.08807
6038.89,0.08502
6015.74,0.08347
5992.6,0.08356
5969.45,0.07842
5946.31,0.07221
5923.16,0.06834
5900.02,0.06204
5876.88,0.05694
5853.73,0.05450
5830.59,0.05544
5807.44,0.05309
5784.3,0.05706
5761.15,0.05414
5738.01,0.05837
5714.86,0.05546
5691.72,0.05396
5668.57,0.05866
5645.43,0.05762
5622.28,0.05871
5599.14,0.05884
5575.99,0.06082
5552.85,0.06113
5529.7,0.06174
5506.56,0.06315
5483.41,0.06175
5460.27,0.06353
5437.12,0.06326
5413.98,0.06259
5390.83,0.06442
5367.69,0.06575
5344.54,0.06619
5321.4,0.06605
5298.25,0.06270
5275.11,0.06176
5251.96,0.05991
5228.82,0.05863
5205.67,0.05901
5182.53,0.05603
5159.38,0.05793
5136.24,0.05762
5113.09,0.05740
5089.95,0.05682
5066.8,0.05751
5043.66,0.05812
5020.51,0.05882
4997.37,0.05828
4974.22,0.05596
4951.08,0.05690
4927.93,0.05639
4904.79,0.05624
4881.64,0.05573
4858.5,0.05793
4835.35,0.05712
4812.21,0.05837
4789.06,0.05787
4765.92,0.05746
4742.78,0.05738
4719.63,0.05782
4696.49,0.05770
4673.34,0.05772
4650.2,0.05704
4627.05,0.05820
4603.91,0.05676
4580.76,0.05760
4557.62,0.05779
4534.47,0.05804
4511.33,0.05840
4488.18,0.05790
4465.04,0.05788
4441.89,0.05804
4418.75,0.05833
4395.6,0.05802
4372.46,0.05803
4349.31,0.05790
4326.17,0.05863
4303.02,0.05841
4279.88,0.05846
4256.73,0.05850
4233.59,0.05846
4210.44,0.05838
4187.3,0.05878
4164.15,0.05970
4141.01,0.05823
4117.86,0.05816
4094.72,0.05787
4071.57,0.05813
4048.43,0.05890
4025.28,0.05823
4002.14,0.05804
3978.99,0.05872
3955.85,0.05868
3932.7,0.05895
3909.56,0.05849
3886.41,0.05864
3863.27,0.05866
3840.12,0.05921
3816.98,0.05849
3793.83,0.05810
3770.69,0.05866
3747.54,0.05819
3724.4,0.05769
3701.25,0.05853
3678.11,0.05837
3654.97,0.05780
3631.82,0.05738
3608.68,0.05685
3585.53,0.05690
3562.39,0.05620
3539.24,0.05551
3516.1,0.05585
3492.95,0.05578
3469.81,0.05502
3446.66,0.05476
3423.52,0.05396
3400.37,0.05226
3377.23,0.05125
3354.08,0.04862
3330.94,0.04479
3307.79,0.05392
3284.65,0.06976
3261.5,0.06743
3238.36,0.06507
3215.21,0.06305
3192.07,0.06263
3168.92,0.06160
3145.78,0.06201
3122.63,0.06054
3099.49,0.05983
3076.34,0.06008
3053.2,0.06102
3030.05,0.06005
3006.91,0.05918
2983.76,0.05678
2960.62,0.05528
2937.47,0.05739
2914.33,0.06538
2891.18,0.06309
2868.04,0.06289
2844.89,0.06844
2821.75,0.06510
2798.6,0.06370
2775.46,0.06366
2752.31,0.06305
2729.17,0.06270
2706.02,0.06235
2682.88,0.06243
2659.73,0.06209
2636.59,0.06172
2613.44,0.06163
2590.3,0.06204
2567.15,0.06169
2544.01,0.06152
2520.87,0.06094
2497.72,0.06124
2474.58,0.06122
2451.43,0.06059
2428.29,0.06081
2405.14,0.06064
2382,0.06046
2358.85,0.06059
2335.71,0.06063
2312.56,0.06060
2289.42,0.06063
2266.27,0.06018
2243.13,0.06010
2219.98,0.05965
2196.84,0.05960
2173.69,0.05951
2150.55,0.05924
2127.4,0.05922
2104.26,0.05900
2081.11,0.05900
2057.97,0.05879
2034.82,0.05873
2011.68,0.05807
1988.53,0.05790
1965.39,0.05722
1942.24,0.05717
1919.1,0.05665
1895.95,0.05580
1872.81,0.05549
1849.66,0.05469
1826.52,0.05400
1803.37,0.05259
1780.23,0.05112
1757.08,0.05008
1733.94,0.04809
1710.79,0.04375
1687.65,0.03715
1664.5,0.03488
1641.36,0.11406
1618.21,0.09694
1595.07,0.07017
1571.92,0.05137
1548.78,0.05893
1525.63,0.09696
1502.49,0.07795
1479.34,0.06841
1456.2,0.07436
1433.05,0.07032
1409.91,0.07576
1386.77,0.06853
1363.62,0.07207
1340.48,0.07040
1317.33,0.06764
1294.19,0.06496
1271.04,0.07072
1247.9,0.07321
1224.75,0.07077
1201.61,0.06942
1178.46,0.07466
1155.32,0.07241
1132.17,0.07257
1109.03,0.07043
1085.88,0.06908
1062.74,0.06908
1039.59,0.06846
1016.45,0.06850
993.302,0.06777
970.157,0.06625
947.012,0.06435
923.867,0.06823
900.722,0.06638
877.577,0.06486
854.432,0.06367
831.288,0.06241
808.143,0.06211
784.998,0.06072
761.853,0.05779
738.708,0.05370
715.563,0.05583
692.418,0.05951
669.273,0.06942
646.128,0.06772
622.983,0.06460
599.839,0.06065

File: Nylon_3.175_S_IS_221212_R6.dpt
7497.02,0.12819
7473.87,0.12345
7450.73,0.11979
7427.58,0.11271
7404.44,0.12559
7381.29,0.11620
7358.15,0.10921
7335,0.10133
7311.86,0.10613
7288.71,0.09157
7265.57,0.09090
7242.42,0.08918
7219.28,0.08616
7196.13,0.08039
7172.99,0.08494
7149.84,0.08740
7126.7,0.07647
7103.55,0.07262
7080.41,0.07948
7057.26,0.07348
7034.12,0.07906
7010.98,0.07935
6987.83,0.07785
6964.69,0.07907
6941.54,0.08478
6918.4,0.08931
6895.25,0.08026
6872.11,0.08296
6848.96,0.08464
6825.82,0.08453
6802.67,0.08012
6779.53,0.08027
6756.38,0.08174
6733.24,0.07746
6710.09,0.07672
6686.95,0.07565
6663.8,0.07143
6640.66,0.06674
6617.51,0.07190
6594.37,0.06623
6571.22,0.06967
6548.08,0.06122
6524.93,0.06838
6501.79,0.06210
6478.64,0.06372
6455.5,0.06461
6432.35,0.07250
6409.21,0.07179
6386.06,0.07016
6362.92,0.07036
6339.77,0.07045
6316.63,0.06852
6293.48,0.07201
6270.34,0.07010
6247.19,0.06752
6224.05,0.07000
6200.9,0.07039
6177.76,0.07554
6154.61,0.08106
6131.47,0.08503
6108.32,0.08462
6085.18,0.08919
6062.03,0.08712
6038.89,0.08683
6015.74,0.08386
5992.6,0.08084
5969.45,0.07467
5946.31,0.07354
5923.16,0.06922
5900.02,0.06046
5876.88,0.05862
5853.73,0.05603
5830.59,0.05592
5807.44,0.05683
5784.3,0.05690
5761.15,0.05511
5738.01,0.05767
5714.86,0.05595
5691.72,0.05487
5668.57,0.05786
5645.43,0.05894
5622.28,0.05771
5599.14,0.05802
5575.99,0.06102
5552.85,0.05982
5529.7,0.06116
5506.56,0.06383
5483.41,0.06168
5460.27,0.06030
5437.12,0.06204
5413.98,0.06347
5390.83,0.06464
5367.69,0.06640
5344.54,0.06550
5321.4,0.06578
5298.25,0.06301
5275.11,0.06191
5251.96,0.05987
5228.82,0.05916
5205.67,0.05903
5182.53,0.05786
5159.38,0.05686
5136.24,0.05729
5113.09,0.05758
5089.95,0.05675
5066.8,0.05934
5043.66,0.05860
5020.51,0.05816
4997.37,0.05813
4974.22,0.05638
4951.08,0.05718
4927.93,0.05729
4904.79,0.05544
4881.64,0.05691
4858.5,0.05711
4835.35,0.05863
4812.21,0.05754
4789.06,0.05857
4765.92,0.05909
4742.78,0.05775
4719.63,0.05702
4696.49,0.05678
4673.34,0.05716
4650.2,0.05656
4627.05,0.05779
4603.91,0.05744
4580.76,0.05718
4557.62,0.05786
4534.47,0.05738
4511.33,0.05726
4488.18,0.05695
4465.04,0.05734
4441.89,0.05845
4418.75,0.05781
4395.6,0.05802
4372.46,0.05688
4349.31,0.05770
4326.17,0.05822
4303.02,0.05791
4279.88,0.05717
4256.73,0.05749
4233.59,0.05823
4210.44,0.05808
4187.3,0.05789
4164.15,0.05800
4141.01,0.05796
4117.86,0.05801
4094.72,0.05802
4071.57,0.05776
4048.43,0.05900
4025.28,0.05835
4002.14,0.05777
3978.99,0.05820
3955.85,0.05862
3932.7,0.05826
3909.56,0.05871
3886.41,0.05830
3863.27,0.05802
3840.12,0.05899
3816.98,0.05854
3793.83,0.05832
3770.69,0.05838
3747.54,0.05865
3724.4,0.05825
3701.25,0.05776
3678.11,0.05737
3654.97,0.05810
3631.82,0.05737
3608.68,0.05712
3585.53,0.05608
3562.39,0.05634
3539.24,0.05614
3516.1,0.05557
3492.95,0.05528
3469.81,0.05475
3446.66,0.05495
3423.52,0.05306
3400.37,0.05214
3377.23,0.05081
3354.08,0.04872
3330.94,0.04443
3307.79,0.05484
3284.65,0.06913
3261.5,0.06709
3238.36,0.06447
3215.21,0.06194
3192.07,0.06237
3168.92,0.06253
3145.78,0.06115
3122.63,0.06006
3099.49,0.05906
3076.34,0.05945
3053.2,0.06019
3030.05,0.05953
3006.91,0.05836
2983.76,0.05668
2960.62,0.05514
2937.47,0.05679
2914.33,0.06583
2891.18,0.06280
2868.04,0.06268
2844.89,0.06812
2821.75,0.06430
2798.6,0.06379
2775.46,0.06293
2752.31,0.06234
2729.17,0.06254
2706.02,0.06220
2682.88,0.06213
2659.73,0.06190
2636.59,0.06154
2613.44,0.06142
2590.3,0.06132
2567.15,0.06104
2544.01,0.06134
2520.87,0.06081
2497.72,0.06112
2474.58,0.06094
2451.43,0.06078
2428.29,0.06064
2405.14,0.06052
2382,0.06044
2358.85,0.06008
2335.71,0.05994
2312.56,0.06014
2289.42,0.05998
2266.27,0.05957
2243.13,0.05975
2219.98,0.05982
2196.84,0.05922
2173.69,0.05938
2150.55,0.05897
2127.4,0.05873
2104.26,0.05874
2081.11,0.05838
2057.97,0.05816
2034.82,0.05797
2011.68,0.05761
1988.53,0.05738
1965.39,0.05717
1942.24,0.05659
1919.1,0.05605
1895.95,0.05548
1872.81,0.05511
1849.66,0.05448
1826.52,0.05338
1803.37,0.05268
1780.23,0.05093
1757.08,0.04922
1733.94,0.04837
1710.79,0.04344
1687.65,0.03733
1664.5,0.03473
1641.36,0.11294
1618.21,0.09619
1595.07,0.06983
1571.92,0.05136
1548.78,0.05863
1525.63,0.09608
1502.49,0.07778
1479.34,0.06761
1456.2,0.07386
1433.05,0.07012
1409.91,0.07525
1386.77,0.06779
1363.62,0.07117
1340.48,0.07029
1317.33,0.06685
1294.19,0.06460
1271.04,0.06990
1247.9,0.07238
1224.75,0.07073
1201.61,0.06856
1178.46,0.07418
1155.32,0.07145
1132.17,0.07146
1109.03,0.07002
1085.88,0.06928
1062.74,0.06854
1039.59,0.06766
1016.45,0.06797
993.302,0.06722
970.157,0.06615
947.012,0.06459
923.867,0.06754
900.722,0.06609
877.577,0.06503
854.432,0.06427
831.288,0.06231
808.143,0.06115
784.998,0.05986
761.853,0.05698
738.708,0.05403
715.563,0.05583
692.418,0.05796
669.273,0.06896
646.128,0.06667
622.983,0.06492
599.839,0.06090