Folder: fsri_materials_database/01_Data/Nylon/FTIR/IS (part 2)

File: Nylon_2.362_Trans_S_IS_221213_R1.dpt
7496.63,0.61186
7473.48,0.61938
7450.34,0.62276
7427.2,0.61372
7404.05,0.61419
7380.91,0.61620
7357.77,0.60596
7334.62,0.58359
7311.48,0.56165
7288.33,0.55388
7265.19,0.52083
7242.05,0.49338
7218.9,0.47422
7195.76,0.48555
7172.62,0.48901
7149.47,0.48022
7126.33,0.48005
7103.18,0.47033
7080.04,0.46905
7056.9,0.46898
7033.75,0.47378
7010.61,0.48110
6987.47,0.47983
6964.32,0.48155
6941.18,0.48579
6918.04,0.49205
6894.89,0.49933
6871.75,0.49972
6848.6,0.50251
6825.46,0.50588
6802.32,0.50358
6779.17,0.49151
6756.03,0.47016
6732.89,0.47053
6709.74,0.46482
6686.6,0.45233
6663.45,0.43236
6640.31,0.41124
6617.17,0.38261
6594.02,0.38347
6570.88,0.37710
6547.74,0.35869
6524.59,0.32935
6501.45,0.32326
6478.3,0.32931
6455.16,0.40163
6432.02,0.45164
6408.87,0.44929
6385.73,0.42680
6362.59,0.40032
6339.44,0.40342
6316.3,0.43922
6293.16,0.46080
6270.01,0.43561
6246.87,0.42124
6223.72,0.42630
6200.58,0.45744
6177.44,0.47966
6154.29,0.52056
6131.15,0.54372
6108.01,0.55593
6084.86,0.55852
6061.72,0.55578
6038.57,0.55443
6015.43,0.54656
5992.29,0.53393
5969.14,0.51670
5946,0.48447
5922.86,0.42018
5899.71,0.31685
5876.57,0.20272
5853.43,0.12212
5830.28,0.08171
5807.14,0.10593
5783.99,0.14364
5760.85,0.16699
5737.71,0.14333
5714.56,0.11641
5691.42,0.12679
5668.28,0.16983
5645.13,0.21834
5621.99,0.25559
5598.84,0.26861
5575.7,0.28142
5552.56,0.29181
5529.41,0.30320
5506.27,0.31483
5483.13,0.32791
5459.98,0.33641
5436.84,0.34677
5413.7,0.35014
5390.55,0.37684
5367.41,0.39609
5344.26,0.40174
5321.12,0.39871
5297.98,0.36167
5274.83,0.32230
5251.69,0.29224
5228.55,0.25623
5205.4,0.21354
5182.26,0.17505
5159.11,0.14777
5135.97,0.13322
5112.83,0.13584
5089.68,0.15424
5066.54,0.17258
5043.4,0.18900
5020.25,0.19233
4997.11,0.16142
4973.97,0.08906
4950.82,0.08510
4927.68,0.08252
4904.53,0.04543
4881.39,0.01423
4858.25,0.01980
4835.1,0.08945
4811.96,0.14318
4788.82,0.13488
4765.67,0.12628
4742.53,0.10357
4719.38,0.07296
4696.24,0.04480
4673.1,0.03869
4649.95,0.03662
4626.81,0.02596
4603.67,0.01309
4580.52,0.00775
4557.38,0.01133
4534.23,0.01338
4511.09,0.02155
4487.95,0.02976
4464.8,0.02612
4441.66,0.01517
4418.52,0.00644
4395.37,0.00097
4372.23,0.00114
4349.09,-0.00004
4325.94,0.00034
4302.8,0.00066
4279.65,0.00036
4256.51,0.00036
4233.37,0.00081
4210.22,0.00005
4187.08,0.00036
4163.94,-0.00004
4140.79,0.00067
4117.65,0.00086
4094.5,0.00087
4071.36,0.00080
4048.22,0.00039
4025.07,0.00036
4001.93,0.00066
3978.79,0.00097
3955.64,0.00348
3932.5,0.00681
3909.36,0.01104
3886.21,0.01554
3863.07,0.02125
3839.92,0.01378
3816.78,0.01718
3793.64,0.02150
3770.49,0.02681
3747.35,0.02216
3724.21,0.01926
3701.06,0.01087
3677.92,0.00073
3654.77,0.00047
3631.63,0.00021
3608.49,0.00082
3585.34,0.00021
3562.2,0.00041
3539.06,0.00046
3515.91,0.00029
3492.77,0.00045
3469.63,0.00020
3446.48,0.00021
3423.34,0.00035
3400.19,0.00096
3377.05,0.00037
3353.91,0.00032
3330.76,0.00027
3307.62,0.00053
3284.48,0.00060
3261.33,0.00038
3238.19,0.00060
3215.04,0.00043
3191.9,0.00068
3168.76,0.00070
3145.61,0.00044
3122.47,0.00038
3099.33,0.00044
3076.18,0.00032
3053.04,0.00054
3029.89,0.00005
3006.75,0.00043
2983.61,0.00036
2960.46,0.00059
2937.32,0.00033
2914.18,0.00075
2891.03,0.00030
2867.89,0.00023
2844.75,0.00036
2821.6,0.00049
2798.46,0.00029
2775.31,0.00037
2752.17,0.00062
2729.03,0.00014
2705.88,0.00045
2682.74,0.00036
2659.6,0.00024
2636.45,0.00024
2613.31,0.00020
2590.16,0.00022
2567.02,0.00037
2543.88,0.00014
2520.73,0.00029
2497.59,0.00029
2474.45,0.00026
2451.3,0.00038
2428.16,0.00042
2405.02,0.00050
2381.87,0.00050
2358.73,0.00014
2335.58,0.00046
2312.44,0.00031
2289.3,0.00073
2266.15,0.00041
2243.01,0.00029
2219.87,0.00022
2196.72,0.00028
2173.58,0.00021
2150.43,0.00024
2127.29,0.00034
2104.15,0.00028
2081,0.00026
2057.86,0.00054
2034.72,0.00056
2011.57,0.00144
1988.43,0.00163
1965.29,0.00133
1942.14,0.00204
1919,0.00208
1895.85,0.00116
1872.71,0.00071
1849.57,0.00059
1826.42,0.00025
1803.28,0.00034
1780.14,0.00013
1756.99,0.00026
1733.85,0.00033
1710.7,0.00043
1687.56,0.00030
1664.42,0.00028
1641.27,0.00029
1618.13,0.00032
1594.99,0.00018
1571.84,0.00013
1548.7,0.00016
1525.56,0.00015
1502.41,0.00036
1479.27,0.00032
1456.12,0.00036
1432.98,0.00043
1409.84,0.00058
1386.69,-0.00001
1363.55,0.00043
1340.41,0.00001
1317.26,0.00028
1294.12,0.00026
1270.97,0.00035
1247.83,0.00033
1224.69,0.00033
1201.54,0.00012
1178.4,0.00038
1155.26,0.00020
1132.11,0.00020
1108.97,0.00056
1085.82,0.00055
1062.68,0.00063
1039.54,0.00053
1016.39,0.00036
993.25,0.00060
970.106,0.00057
946.963,0.00043
923.819,0.00062
900.675,0.00038
877.532,0.00050
854.388,0.00056
831.244,0.00067
808.101,0.00045
784.957,-0.00013
761.813,0.00012
738.669,0.00061
715.526,0.00038
692.382,0.00102
669.238,0.00072
646.095,0.00131
622.951,0.00103
599.807,0.00249

File: Nylon_2.362_Trans_S_IS_221213_R2.dpt
7496.63,0.62393
7473.48,0.62839
7450.34,0.61318
7427.2,0.61207
7404.05,0.61495
7380.91,0.60909
7357.77,0.60039
7334.62,0.59147
7311.48,0.56561
7288.33,0.54292
7265.19,0.53330
7242.05,0.49514
7218.9,0.48216
7195.76,0.47755
7172.62,0.48410
7149.47,0.49727
7126.33,0.48254
7103.18,0.47061
7080.04,0.47337
7056.9,0.47181
7033.75,0.47022
7010.61,0.48008
6987.47,0.47738
6964.32,0.48680
6941.18,0.48819
6918.04,0.49542
6894.89,0.49840
6871.75,0.50156
6848.6,0.49995
6825.46,0.50556
6802.32,0.50037
6779.17,0.48498
6756.03,0.47134
6732.89,0.46869
6709.74,0.46519
6686.6,0.45387
6663.45,0.43676
6640.31,0.41415
6617.17,0.38131
6594.02,0.37959
6570.88,0.37604
6547.74,0.35987
6524.59,0.33158
6501.45,0.32584
6478.3,0.32869
6455.16,0.39974
6432.02,0.45172
6408.87,0.45189
6385.73,0.42682
6362.59,0.40009
6339.44,0.40578
6316.3,0.43913
6293.16,0.45680
6270.01,0.43712
6246.87,0.42316
6223.72,0.42465
6200.58,0.45297
6177.44,0.48258
6154.29,0.51939
6131.15,0.54424
6108.01,0.55493
6084.86,0.55856
6061.72,0.55302
6038.57,0.55144
6015.43,0.54578
5992.29,0.53273
5969.14,0.51510
5946,0.48487
5922.86,0.42218
5899.71,0.31576
5876.57,0.20399
5853.43,0.12289
5830.28,0.08260
5807.14,0.10471
5783.99,0.14169
5760.85,0.16543
5737.71,0.14288
5714.56,0.11635
5691.42,0.12879
5668.28,0.17070
5645.13,0.21832
5621.99,0.25588
5598.84,0.26977
5575.7,0.28004
5552.56,0.29130
5529.41,0.30252
5506.27,0.31392
5483.13,0.32763
5459.98,0.33569
5436.84,0.34665
5413.7,0.35077
5390.55,0.37695
5367.41,0.39619
5344.26,0.39980
5321.12,0.40024
5297.98,0.36110
5274.83,0.32200
5251.69,0.29289
5228.55,0.25809
5205.4,0.21470
5182.26,0.17666
5159.11,0.14824
5135.97,0.13374
5112.83,0.13718
5089.68,0.15319
5066.54,0.17161
5043.4,0.18864
5020.25,0.19257
4997.11,0.16273
4973.97,0.08986
4950.82,0.08509
4927.68,0.08189
4904.53,0.04536
4881.39,0.01456
4858.25,0.02020
4835.1,0.09084
4811.96,0.14346
4788.82,0.13364
4765.67,0.12659
4742.53,0.10441
4719.38,0.07345
4696.24,0.04378
4673.1,0.03893
4649.95,0.03734
4626.81,0.02501
4603.67,0.01278
4580.52,0.00754
4557.38,0.01112
4534.23,0.01377
4511.09,0.02190
4487.95,0.03012
4464.8,0.02671
4441.66,0.01631
4418.52,0.00722
4395.37,0.00140
4372.23,0.00069
4349.09,0.00070
4325.94,0.00044
4302.8,0.00034
4279.65,0.00064
4256.51,0.00038
4233.37,0.00050
4210.22,0.00027
4187.08,0.00043
4163.94,0.00042
4140.79,0.00090
4117.65,0.00122
4094.5,0.00098
4071.36,0.00073
4048.22,0.00024
4025.07,0.00049
4001.93,0.00055
3978.79,0.00065
3955.64,0.00356
3932.5,0.00684
3909.36,0.01116
3886.21,0.01550
3863.07,0.02157
3839.92,0.01332
3816.78,0.01698
3793.64,0.02159
3770.49,0.02669
3747.35,0.02240
3724.21,0.01933
3701.06,0.01136
3677.92,0.00078
3654.77,0.00024
3631.63,0.00033
3608.49,0.00076
3585.34,0.00076
3562.2,0.00075
3539.06,0.00026
3515.91,-0.00007
3492.77,0.00008
3469.63,0.00018
3446.48,0.00040
3423.34,0.00064
3400.19,0.00025
3377.05,0.00048
3353.91,0.00058
3330.76,0.00032
3307.62,0.00072
3284.48,0.00045
3261.33,0.00017
3238.19,0.00087
3215.04,0.00054
3191.9,0.00019
3168.76,0.00052
3145.61,0.00050
3122.47,0.00028
3099.33,0.00028
3076.18,0.00027
3053.04,0.00022
3029.89,0.00043
3006.75,0.00023
2983.61,0.00047
2960.46,0.00014
2937.32,0.00058
2914.18,0.00024
2891.03,0.00041
2867.89,0.00019
2844.75,0.00037
2821.6,0.00027
2798.46,0.00013
2775.31,0.00037
2752.17,0.00011
2729.03,0.00005
2705.88,0.00028
2682.74,0.00020
2659.6,0.00020
2636.45,0.00044
2613.31,0.00034
2590.16,0.00022
2567.02,0.00036
2543.88,0.00025
2520.73,0.00007
2497.59,0.00031
2474.45,0.00033
2451.3,0.00048
2428.16,0.00039
2405.02,0.00022
2381.87,0.00050
2358.73,0.00045
2335.58,0.00035
2312.44,0.00040
2289.3,0.00045
2266.15,0.00062
2243.01,0.00053
2219.87,0.00023
2196.72,0.00023
2173.58,0.00031
2150.43,0.00028
2127.29,0.00031
2104.15,0.00030
2081,0.00051
2057.86,0.00033
2034.72,0.00055
2011.57,0.00117
1988.43,0.00144
1965.29,0.00137
1942.14,0.00222
1919,0.00239
1895.85,0.00109
1872.71,0.00074
1849.57,0.00083
1826.42,0.00020
1803.28,0.00022
1780.14,0.00029
1756.99,-0.00002
1733.85,0.00049
1710.7,0.00018
1687.56,0.00028
1664.42,0.00038
1641.27,0.00037
1618.13,0.00010
1594.99,0.00032
1571.84,0.00029
1548.7,0.00037
1525.56,0.00015
1502.41,0.00019
1479.27,0.00021
1456.12,0.00031
1432.98,0.00039
1409.84,0.00029
1386.69,0.00015
1363.55,0.00037
1340.41,0.00021
1317.26,0.00004
1294.12,0.00024
1270.97,0.00026
1247.83,0.00025
1224.69,0.00036
1201.54,0.00000
1178.4,0.00026
1155.26,0.00025
1132.11,0.00045
1108.97,0.00034
1085.82,0.00049
1062.68,0.00012
1039.54,0.00029
1016.39,0.00013
993.25,0.00050
970.106,0.00015
946.963,0.00023
923.819,0.00019
900.675,0.00072
877.532,-0.00018
854.388,0.00072
831.244,0.00096
808.101,0.00063
784.957,0.00080
761.813,0.00066
738.669,0.00026
715.526,0.00040
692.382,0.00038
669.238,0.00135
646.095,0.00171
622.951,0.00118
599.807,0.00203

File: Nylon_2.362_Trans_S_IS_221213_R3.dpt
7496.63,0.62623
7473.48,0.61255
7450.34,0.62101
7427.2,0.62103
7404.05,0.61418
7380.91,0.61932
7357.77,0.60388
7334.62,0.59107
7311.48,0.56647
7288.33,0.54733
7265.19,0.52768
7242.05,0.49282
7218.9,0.48694
7195.76,0.48423
7172.62,0.48842
7149.47,0.48732
7126.33,0.47357
7103.18,0.47267
7080.04,0.47241
7056.9,0.47574
7033.75,0.47984
7010.61,0.47303
6987.47,0.47286
6964.32,0.48783
6941.18,0.48690
6918.04,0.49280
6894.89,0.50604
6871.75,0.50342
6848.6,0.50348
6825.46,0.50444
6802.32,0.50201
6779.17,0.49563
6756.03,0.46982
6732.89,0.47070
6709.74,0.46283
6686.6,0.45228
6663.45,0.44184
6640.31,0.41088
6617.17,0.38301
6594.02,0.38282
6570.88,0.37982
6547.74,0.36389
6524.59,0.33173
6501.45,0.32704
6478.3,0.32891
6455.16,0.40183
6432.02,0.45395
6408.87,0.45461
6385.73,0.42846
6362.59,0.40450
6339.44,0.40790
6316.3,0.43831
6293.16,0.45522
6270.01,0.43670
6246.87,0.42028
6223.72,0.42371
6200.58,0.45656
6177.44,0.48203
6154.29,0.52146
6131.15,0.54451
6108.01,0.55539
6084.86,0.55805
6061.72,0.55690
6038.57,0.55217
6015.43,0.54792
5992.29,0.53724
5969.14,0.51701
5946,0.48729
5922.86,0.42165
5899.71,0.31969
5876.57,0.20557
5853.43,0.12375
5830.28,0.08279
5807.14,0.10595
5783.99,0.14220
5760.85,0.16756
5737.71,0.14517
5714.56,0.11615
5691.42,0.12688
5668.28,0.17077
5645.13,0.21822
5621.99,0.25560
5598.84,0.26968
5575.7,0.28153
5552.56,0.29377
5529.41,0.30404
5506.27,0.31611
5483.13,0.32896
5459.98,0.33823
5436.84,0.34526
5413.7,0.35040
5390.55,0.37704
5367.41,0.39816
5344.26,0.40140
5321.12,0.40034
5297.98,0.36239
5274.83,0.32427
5251.69,0.29287
5228.55,0.25609
5205.4,0.21476
5182.26,0.17536
5159.11,0.14869
5135.97,0.13421
5112.83,0.13755
5089.68,0.15456
5066.54,0.17261
5043.4,0.18883
5020.25,0.19315
4997.11,0.16422
4973.97,0.08994
4950.82,0.08565
4927.68,0.08264
4904.53,0.04591
4881.39,0.01392
4858.25,0.02008
4835.1,0.09177
4811.96,0.14371
4788.82,0.13450
4765.67,0.12603
4742.53,0.10350
4719.38,0.07236
4696.24,0.04342
4673.1,0.03902
4649.95,0.03622
4626.81,0.02588
4603.67,0.01382
4580.52,0.00698
4557.38,0.01159
4534.23,0.01331
4511.09,0.02209
4487.95,0.02909
4464.8,0.02709
4441.66,0.01534
4418.52,0.00648
4395.37,0.00072
4372.23,0.00076
4349.09,0.00025
4325.94,0.00108
4302.8,0.00083
4279.65,0.00075
4256.51,0.00056
4233.37,0.00044
4210.22,0.00013
4187.08,0.00077
4163.94,0.00045
4140.79,0.00052
4117.65,0.00075
4094.5,0.00093
4071.36,0.00114
4048.22,0.00056
4025.07,0.00075
4001.93,0.00057
3978.79,0.00112
3955.64,0.00401
3932.5,0.00652
3909.36,0.01156
3886.21,0.01584
3863.07,0.02165
3839.92,0.01368
3816.78,0.01678
3793.64,0.02196
3770.49,0.02674
3747.35,0.02282
3724.21,0.01923
3701.06,0.01185
3677.92,0.00026
3654.77,0.00060
3631.63,0.00035
3608.49,0.00030
3585.34,0.00071
3562.2,0.00031
3539.06,0.00058
3515.91,0.00053
3492.77,0.00033
3469.63,0.00039
3446.48,0.00048
3423.34,0.00036
3400.19,0.00072
3377.05,0.00062
3353.91,0.00042
3330.76,0.00049
3307.62,0.00021
3284.48,0.00026
3261.33,0.00055
3238.19,0.00040
3215.04,0.00020
3191.9,0.00030
3168.76,0.00060
3145.61,0.00043
3122.47,0.00035
3099.33,0.00049
3076.18,0.00010
3053.04,0.00032
3029.89,0.00053
3006.75,0.00031
2983.61,0.00015
2960.46,0.00004
2937.32,0.00051
2914.18,0.00027
2891.03,0.00031
2867.89,0.00040
2844.75,0.00034
2821.6,0.00013
2798.46,0.00030
2775.31,0.00025
2752.17,0.00000
2729.03,0.00013
2705.88,0.00028
2682.74,0.00017
2659.6,0.00029
2636.45,0.00034
2613.31,0.00019
2590.16,0.00043
2567.02,0.00017
2543.88,0.00021
2520.73,0.00027
2497.59,0.00030
2474.45,0.00025
2451.3,0.00040
2428.16,0.00031
2405.02,0.00035
2381.87,0.00031
2358.73,0.00066
2335.58,0.00032
2312.44,0.00028
2289.3,0.00079
2266.15,0.00050
2243.01,0.00052
2219.87,0.00033
2196.72,0.00032
2173.58,0.00002
2150.43,0.00015
2127.29,0.00012
2104.15,0.00033
2081,0.00040
2057.86,0.00020
2034.72,0.00038
2011.57,0.00105
1988.43,0.00143
1965.29,0.00147
1942.14,0.00247
1919,0.00178
1895.85,0.00097
1872.71,0.00038
1849.57,0.00068
1826.42,0.00024
1803.28,0.00029
1780.14,0.00015
1756.99,0.00010
1733.85,0.00028
1710.7,0.00024
1687.56,-0.00008
1664.42,0.00026
1641.27,0.00041
1618.13,0.00030
1594.99,0.00030
1571.84,0.00047
1548.7,0.00040
1525.56,0.00027
1502.41,0.00006
1479.27,0.00037
1456.12,0.00017
1432.98,0.00042
1409.84,0.00043
1386.69,0.00027
1363.55,0.00015
1340.41,-0.00007
1317.26,0.00026
1294.12,0.00030
1270.97,0.00041
1247.83,0.00020
1224.69,-0.00002
1201.54,0.00036
1178.4,0.00065
1155.26,0.00037
1132.11,0.00018
1108.97,0.00046
1085.82,0.00038
1062.68,0.00031
1039.54,0.00058
1016.39,0.00033
993.25,0.00076
970.106,0.00046
946.963,0.00087
923.819,0.00020
900.675,0.00010
877.532,0.00019
854.388,0.00023
831.244,0.00023
808.101,0.00060
784.957,0.00034
761.813,0.00035
738.669,0.00081
715.526,0.00041
692.382,0.00111
669.238,0.00096
646.095,0.00116
622.951,0.00169
599.807,0.00155

File: Nylon_2.362_Trans_T_IS_221213_R1.dpt
7496.63,-0.00238
7473.48,0.01217
7450.34,0.00968
7427.2,0.01236
7404.05,0.00894
7380.91,0.00348
7357.77,0.00096
7334.62,0.00748
7311.48,0.01397
7288.33,0.00932
7265.19,0.00967
7242.05,0.00706
7218.9,0.00526
7195.76,0.00904
7172.62,0.00686
7149.47,0.00633
7126.33,0.01160
7103.18,0.00038
7080.04,0.00697
7056.9,0.00513
7033.75,0.00965
7010.61,0.00827
6987.47,0.01142
6964.32,0.00947
6941.18,0.00106
6918.04,0.00271
6894.89,0.00388
6871.75,0.01341
6848.6,0.00199
6825.46,0.00543
6802.32,0.00853
6779.17,0.00554
6756.03,0.00729
6732.89,0.00579
6709.74,0.00027
6686.6,0.00893
6663.45,0.00163
6640.31,0.01106
6617.17,0.00298
6594.02,0.00486
6570.88,0.00358
6547.74,0.00875
6524.59,0.00135
6501.45,0.00666
6478.3,0.00422
6455.16,0.00542
6432.02,0.00256
6408.87,0.00546
6385.73,0.00244
6362.59,0.00295
6339.44,0.00278
6316.3,0.00227
6293.16,0.00110
6270.01,0.00658
6246.87,0.00216
6223.72,0.00208
6200.58,0.00654
6177.44,0.00369
6154.29,0.00287
6131.15,0.00134
6108.01,-0.00066
6084.86,0.00421
6061.72,0.00119
6038.57,0.00511
6015.43,0.00292
5992.29,0.00234
5969.14,0.00189
5946,0.00329
5922.86,0.00081
5899.71,0.00133
5876.57,0.00113
5853.43,0.00184
5830.28,0.00342
5807.14,0.00202
5783.99,0.00417
5760.85,0.00175
5737.71,0.00159
5714.56,0.00180
5691.42,0.00200
5668.28,0.00159
5645.13,0.00084
5621.99,0.00037
5598.84,0.00184
5575.7,0.00268
5552.56,0.00106
5529.41,0.00052
5506.27,0.00182
5483.13,0.00078
5459.98,0.00135
5436.84,0.00137
5413.7,0.00230
5390.55,0.00244
5367.41,0.00220
5344.26,0.00034
5321.12,0.00266
5297.98,0.00294
5274.83,0.00275
5251.69,0.00182
5228.55,0.00306
5205.4,0.00205
5182.26,0.00326
5159.11,0.00207
5135.97,0.00097
5112.83,0.00291
5089.68,0.00060
5066.54,0.00289
5043.4,0.00157
5020.25,0.00241
4997.11,0.00179
4973.97,0.00128
4950.82,0.00075
4927.68,0.00154
4904.53,0.00126
4881.39,0.00084
4858.25,0.00143
4835.1,0.00232
4811.96,0.00169
4788.82,0.00100
4765.67,0.00313
4742.53,0.00243
4719.38,0.00138
4696.24,0.00095
4673.1,0.00154
4649.95,0.00080
4626.81,0.00039
4603.67,0.00116
4580.52,0.00266
4557.38,0.00130
4534.23,0.00072
4511.09,0.00145
4487.95,0.00136
4464.8,0.00103
4441.66,0.00138
4418.52,0.00165
4395.37,0.00136
4372.23,0.00133
4349.09,0.00098
4325.94,0.00036
4302.8,0.00148
4279.65,0.00150
4256.51,0.00148
4233.37,0.00132
4210.22,0.00157
4187.08,0.00171
4163.94,0.00117
4140.79,0.00127
4117.65,0.00114
4094.5,0.00186
4071.36,0.00105
4048.22,0.00169
4025.07,0.00195
4001.93,0.00149
3978.79,0.00068
3955.64,0.00175
3932.5,0.00180
3909.36,0.00111
3886.21,0.00140
3863.07,0.00146
3839.92,0.00122
3816.78,0.00176
3793.64,0.00111
3770.49,0.00121
3747.35,0.00100
3724.21,0.00172
3701.06,0.00168
3677.92,0.00211
3654.77,0.00162
3631.63,0.00090
3608.49,0.00150
3585.34,0.00130
3562.2,0.00169
3539.06,0.00151
3515.91,0.00193
3492.77,0.00177
3469.63,0.00226
3446.48,0.00160
3423.34,0.00188
3400.19,0.00063
3377.05,0.00115
3353.91,0.00109
3330.76,0.00121
3307.62,0.00090
3284.48,0.00169
3261.33,0.00125
3238.19,0.00117
3215.04,0.00228
3191.9,0.00221
3168.76,0.00169
3145.61,0.00140
3122.47,0.00094
3099.33,0.00110
3076.18,0.00156
3053.04,0.00161
3029.89,0.00149
3006.75,0.00185
2983.61,0.00093
2960.46,0.00176
2937.32,0.00168
2914.18,0.00175
2891.03,0.00201
2867.89,0.00128
2844.75,0.00103
2821.6,0.00153
2798.46,0.00152
2775.31,0.00147
2752.17,0.00173
2729.03,0.00195
2705.88,0.00206
2682.74,0.00187
2659.6,0.00200
2636.45,0.00160
2613.31,0.00177
2590.16,0.00178
2567.02,0.00236
2543.88,0.00150
2520.73,0.00149
2497.59,0.00202
2474.45,0.00185
2451.3,0.00177
2428.16,0.00186
2405.02,0.00141
2381.87,0.00174
2358.73,0.00163
2335.58,0.00121
2312.44,0.00164
2289.3,0.00143
2266.15,0.00189
2243.01,0.00198
2219.87,0.00182
2196.72,0.00148
2173.58,0.00138
2150.43,0.00191
2127.29,0.00180
2104.15,0.00165
2081,0.00221
2057.86,0.00179
2034.72,0.00189
2011.57,0.00144
1988.43,0.00190
1965.29,0.00192
1942.14,0.00210
1919,0.00148
1895.85,0.00148
1872.71,0.00187
1849.57,0.00152
1826.42,0.00153
1803.28,0.00144
1780.14,0.00187
1756.99,0.00201
1733.85,0.00129
1710.7,0.00189
1687.56,0.00164
1664.42,0.00182
1641.27,0.00184
1618.13,0.00148
1594.99,0.00218
1571.84,0.00097
1548.7,0.00174
1525.56,0.00181
1502.41,0.00185
1479.27,0.00197
1456.12,0.00170
1432.98,0.00182
1409.84,0.00179
1386.69,0.00151
1363.55,0.00221
1340.41,0.00182
1317.26,0.00161
1294.12,0.00202
1270.97,0.00150
1247.83,0.00188
1224.69,0.00159
1201.54,0.00167
1178.4,0.00154
1155.26,0.00156
1132.11,0.00146
1108.97,0.00181
1085.82,0.00166
1062.68,0.00175
1039.54,0.00176
1016.39,0.00147
993.25,0.00199
970.106,0.00159
946.963,0.00180
923.819,0.00206
900.675,0.00131
877.532,0.00177
854.388,0.00196
831.244,0.00210
808.101,0.00140
784.957,0.00085
761.813,0.00174
738.669,0.00199
715.526,0.00161
692.382,0.00113
669.238,0.00151
646.095,0.00355
622.951,0.00062
599.807,0.00349

File: Nylon_3.175_S_IS_221212_R1.dpt
7497.02,0.12982
7473.87,0.13171
7450.73,0.12724
7427.58,0.12403
7404.44,0.12320
7381.29,0.11540
7358.15,0.11093
7335,0.11507
7311.86,0.10486
7288.71,0.10873
7265.57,0.08913
7242.42,0.08742
7219.28,0.08274
7196.13,0.08494
7172.99,0.08708
7149.84,0.08373
7126.7,0.08605
7103.55,0.08027
7080.41,0.08290
7057.26,0.07829
7034.12,0.07613
7010.98,0.07521
6987.83,0.07583
6964.69,0.08317
6941.54,0.07442
6918.4,0.08230
6895.25,0.08262
6872.11,0.08508
6848.96,0.07735
6825.82,0.08441
6802.67,0.08514
6779.53,0.08131
6756.38,0.08158
6733.24,0.08114
6710.09,0.07060
6686.95,0.07123
6663.8,0.07166
6640.66,0.07268
6617.51,0.06607
6594.37,0.06634
6571.22,0.06556
6548.08,0.06427
6524.93,0.06203
6501.79,0.05898
6478.64,0.06365
6455.5,0.06815
6432.35,0.07421
6409.21,0.07299
6386.06,0.07053
6362.92,0.06784
6339.77,0.06845
6316.63,0.07080
6293.48,0.07325
6270.34,0.06895
6247.19,0.06460
6224.05,0.06907
6200.9,0.07414
6177.76,0.07586
6154.61,0.07827
6131.47,0.08279
6108.32,0.08462
6085.18,0.08775
6062.03,0.08453
6038.89,0.08409
6015.74,0.07981
5992.6,0.08354
5969.45,0.07862
5946.31,0.07541
5923.16,0.06826
5900.02,0.06180
5876.88,0.05411
5853.73,0.05490
5830.59,0.05483
5807.44,0.05553
5784.3,0.05852
5761.15,0.05532
5738.01,0.05357
5714.86,0.05672
5691.72,0.05635
5668.57,0.05706
5645.43,0.05785
5622.28,0.05799
5599.14,0.05959
5575.99,0.05786
5552.85,0.05993
5529.7,0.06008
5506.56,0.06249
5483.41,0.06357
5460.27,0.06256
5437.12,0.06369
5413.98,0.06444
5390.83,0.06524
5367.69,0.06542
5344.54,0.06577
5321.4,0.06586
5298.25,0.06301
5275.11,0.06070
5251.96,0.06022
5228.82,0.05875
5205.67,0.05917
5182.53,0.05716
5159.38,0.05748
5136.24,0.05735
5113.09,0.05531
5089.95,0.05738
5066.8,0.05802
5043.66,0.05643
5020.51,0.05798
4997.37,0.05704
4974.22,0.05549
4951.08,0.05783
4927.93,0.05671
4904.79,0.05668
4881.64,0.05769
4858.5,0.05735
4835.35,0.05752
4812.21,0.05941
4789.06,0.05880
4765.92,0.05833
4742.78,0.05753
4719.63,0.05816
4696.49,0.05771
4673.34,0.05776
4650.2,0.05748
4627.05,0.05673
4603.91,0.05710
4580.76,0.05744
4557.62,0.05811
4534.47,0.05836
4511.33,0.05748
4488.18,0.05879
4465.04,0.05805
4441.89,0.05787
4418.75,0.05721
4395.6,0.05791
4372.46,0.05831
4349.31,0.05766
4326.17,0.05843
4303.02,0.05779
4279.88,0.05846
4256.73,0.05822
4233.59,0.05870
4210.44,0.05872
4187.3,0.05873
4164.15,0.05868
4141.01,0.05840
4117.86,0.05839
4094.72,0.05881
4071.57,0.05803
4048.43,0.05876
4025.28,0.05843
4002.14,0.05866
3978.99,0.05897
3955.85,0.05877
3932.7,0.05829
3909.56,0.05847
3886.41,0.05925
3863.27,0.05928
3840.12,0.05863
3816.98,0.05870
3793.83,0.05852
3770.69,0.05808
3747.54,0.05795
3724.4,0.05802
3701.25,0.05789
3678.11,0.05787
3654.97,0.05789
3631.82,0.05745
3608.68,0.05772
3585.53,0.05745
3562.39,0.05678
3539.24,0.05622
3516.1,0.05597
3492.95,0.05607
3469.81,0.05562
3446.66,0.05488
3423.52,0.05395
3400.37,0.05324
3377.23,0.05122
3354.08,0.04862
3330.94,0.04596
3307.79,0.05467
3284.65,0.06979
3261.5,0.06722
3238.36,0.06540
3215.21,0.06265
3192.07,0.06269
3168.92,0.06200
3145.78,0.06092
3122.63,0.05995
3099.49,0.05940
3076.34,0.06023
3053.2,0.06107
3030.05,0.06003
3006.91,0.05942
2983.76,0.05662
2960.62,0.05540
2937.47,0.05783
2914.33,0.06582
2891.18,0.06317
2868.04,0.06306
2844.89,0.06872
2821.75,0.06495
2798.6,0.06406
2775.46,0.06328
2752.31,0.06313
2729.17,0.06304
2706.02,0.06228
2682.88,0.06216
2659.73,0.06182
2636.59,0.06223
2613.44,0.06217
2590.3,0.06219
2567.15,0.06155
2544.01,0.06135
2520.87,0.06163
2497.72,0.06097
2474.58,0.06105
2451.43,0.06106
2428.29,0.06074
2405.14,0.06050
2382,0.06053
2358.85,0.06058
2335.71,0.06021
2312.56,0.06054
2289.42,0.06060
2266.27,0.06017
2243.13,0.05979
2219.98,0.05995
2196.84,0.05968
2173.69,0.05928
2150.55,0.05965
2127.4,0.05913
2104.26,0.05918
2081.11,0.05895
2057.97,0.05871
2034.82,0.05836
2011.68,0.05794
1988.53,0.05802
1965.39,0.05730
1942.24,0.05715
1919.1,0.05662
1895.95,0.05619
1872.81,0.05552
1849.66,0.05473
1826.52,0.05384
1803.37,0.05271
1780.23,0.05084
1757.08,0.04972
1733.94,0.04844
1710.79,0.04383
1687.65,0.03740
1664.5,0.03465
1641.36,0.11353
1618.21,0.09716
1595.07,0.07028
1571.92,0.05096
1548.78,0.05850
1525.63,0.09691
1502.49,0.07831
1479.34,0.06817
1456.2,0.07443
1433.05,0.07069
1409.91,0.07585
1386.77,0.06896
1363.62,0.07226
1340.48,0.07072
1317.33,0.06776
1294.19,0.06523
1271.04,0.07068
1247.9,0.07271
1224.75,0.07117
1201.61,0.06901
1178.46,0.07443
1155.32,0.07191
1132.17,0.07227
1109.03,0.07045
1085.88,0.06934
1062.74,0.06926
1039.59,0.06965
1016.45,0.06869
993.302,0.06721
970.157,0.06580
947.012,0.06488
923.867,0.06751
900.722,0.06650
877.577,0.06478
854.432,0.06420
831.288,0.06319
808.143,0.06125
784.998,0.06006
761.853,0.05760
738.708,0.05427
715.563,0.05621
692.418,0.05901
669.273,0.06913
646.128,0.06771
622.983,0.06497
599.839,0.05909