Folder: fsri_materials_database/01_Data/Nylon/FTIR/IS

Note: README.md
# Materials and Products Database
### Repository of materials and products properties and fire test data to improve fire modeling and fire investigation.

This project was supported in part by Award No. 2019-DU-BX-0018, awarded by the National Institute of Justice, Office of Justice Programs, U.S. Department of Justice. The opinions, findings, and conclusions or recommendations expressed in this publication / program / exhibition are those of the author(s) and do not necessarily reflect those of the Department of Justice.

***
***

__Cite this database:__ "McKinnon, M., Weinschenk, C., Dow, N., DiDomizio, M., and Madrzykowski, D. Materials and Products Database (Version 1.0.0), Fire Safety Research Institute, UL Research Institutes. Columbia, MD 21045, 2023."

__Cite the Technical Reference Guide:__ "McKinnon, M., Weinschenk, C., and Madrzykowski, D. Materials and Products Database - Technical Reference Guide, Fire Safety Research Institute, UL Research Institutes. Columbia, MD 21045, 2023."

__Cite the User Guide:__ "McKinnon, M., and Weinschenk, C. Materials and Products Database - User Guide, Fire Safety Research Institute, UL Research Institutes. Columbia, MD 21045, 2023."

***
***

## Database Structure

## 01_Data/
Raw data generated from each apparatus are included here in plain-text format. The data is organized first by material, next by the short name of test apparatus used, and where applicable additional filtering by test settings.

### Test Apparatus and Data File Structure
- __Cone Calorimeter__ (Cone)
    + Data file structure includes the material, the short name for the apparatus, heat flux setting and scan/scalar, date of test, and replicate number. Scan is for the raw output data and scalar is for the initial conditions and high-level test parameters. 
        * Example: __MDF_Cone_HF25scalar_210323_R1__ stands for the first replicate of scalar data generated from a medium density fiber board test in cone calorimeter exposed to 25 kW/m<sup>2</sup> on March 23, 2021.
    + A _Cone_Notes.csv_ is generated for each material from the __plot_Cone_data.py__ script. For materials whose experiments deviated from typical behavior relevant pictures are included in the respective material directory.
- __Fourier Transform Infrared Spectrometer__ (FTIR)
    + The FTIR directory contains subdirectories for the Attenuated Total Reflectance method (ATR) and the Integrating Sphere (IS)
    + Data file structure for the ATR experiment files includes the material, the abbreviated name for the apparatus, date of test, and replicate number. 
        * Example: __MDF_ATR_210323_R5__ stands for the fifth replicate of data collected with the ATR accessory conducted on June 8, 2021.
    + Data file structure for the IS experiment files includes the material, the abbreviated name for the apparatus, the measurand, whether the test is a sample measurement or standard reference, date of test, and replicate number.
        * Example: __OSB_IS_REFLECT_MEAS_2

File: Nylon_1.575_Trans_S_IS_221213_R1.dpt
7496.63,0.70788
7473.48,0.70164
7450.34,0.70110
7427.2,0.69807
7404.05,0.69569
7380.91,0.70022
7357.77,0.68455
7334.62,0.67909
7311.48,0.66716
7288.33,0.65165
7265.19,0.62869
7242.05,0.60954
7218.9,0.59646
7195.76,0.58988
7172.62,0.59884
7149.47,0.59581
7126.33,0.58409
7103.18,0.57988
7080.04,0.57498
7056.9,0.58386
7033.75,0.58495
7010.61,0.58660
6987.47,0.59112
6964.32,0.59887
6941.18,0.59018
6918.04,0.60536
6894.89,0.59764
6871.75,0.60302
6848.6,0.60060
6825.46,0.59885
6802.32,0.60483
6779.17,0.59520
6756.03,0.58444
6732.89,0.57419
6709.74,0.57104
6686.6,0.56476
6663.45,0.54595
6640.31,0.52426
6617.17,0.50236
6594.02,0.50518
6570.88,0.50041
6547.74,0.48422
6524.59,0.46060
6501.45,0.45559
6478.3,0.45486
6455.16,0.52328
6432.02,0.56641
6408.87,0.56605
6385.73,0.54815
6362.59,0.52435
6339.44,0.52577
6316.3,0.55197
6293.16,0.56834
6270.01,0.55206
6246.87,0.53662
6223.72,0.54260
6200.58,0.56958
6177.44,0.58964
6154.29,0.62099
6131.15,0.64175
6108.01,0.65060
6084.86,0.65197
6061.72,0.64846
6038.57,0.64669
6015.43,0.63983
5992.29,0.63238
5969.14,0.61821
5946,0.59581
5922.86,0.54186
5899.71,0.44570
5876.57,0.33191
5853.43,0.23780
5830.28,0.18429
5807.14,0.21485
5783.99,0.26273
5760.85,0.29042
5737.71,0.26355
5714.56,0.22629
5691.42,0.24094
5668.28,0.29377
5645.13,0.34721
5621.99,0.38630
5598.84,0.39932
5575.7,0.40874
5552.56,0.42268
5529.41,0.43307
5506.27,0.44294
5483.13,0.45378
5459.98,0.46235
5436.84,0.47204
5413.7,0.47343
5390.55,0.50050
5367.41,0.51736
5344.26,0.51755
5321.12,0.51586
5297.98,0.48010
5274.83,0.44028
5251.69,0.40830
5228.55,0.37170
5205.4,0.32571
5182.26,0.28129
5159.11,0.24932
5135.97,0.23084
5112.83,0.23614
5089.68,0.25652
5066.54,0.27925
5043.4,0.29969
5020.25,0.30493
4997.11,0.27595
4973.97,0.18660
4950.82,0.18223
4927.68,0.17664
4904.53,0.11943
4881.39,0.05475
4858.25,0.06956
4835.1,0.18932
4811.96,0.25748
4788.82,0.24738
4765.67,0.23822
4742.53,0.20900
4719.38,0.16595
4696.24,0.11819
4673.1,0.10966
4649.95,0.10492
4626.81,0.08270
4603.67,0.05438
4580.52,0.03612
4557.38,0.04825
4534.23,0.05398
4511.09,0.07464
4487.95,0.09046
4464.8,0.08449
4441.66,0.05957
4418.52,0.03302
4395.37,0.00962
4372.23,0.00063
4349.09,0.00069
4325.94,0.00223
4302.8,0.00538
4279.65,0.00337
4256.51,0.00141
4233.37,0.00158
4210.22,0.00085
4187.08,0.00153
4163.94,0.00301
4140.79,0.00727
4117.65,0.01040
4094.5,0.00774
4071.36,0.00770
4048.22,0.00530
4025.07,0.00259
4001.93,0.00232
3978.79,0.00798
3955.64,0.02147
3932.5,0.03355
3909.36,0.04650
3886.21,0.05784
3863.07,0.07134
3839.92,0.05293
3816.78,0.06026
3793.64,0.07111
3770.49,0.08168
3747.35,0.07074
3724.21,0.06292
3701.06,0.04344
3677.92,0.00369
3654.77,0.00095
3631.63,0.00027
3608.49,0.00031
3585.34,0.00047
3562.2,0.00032
3539.06,0.00061
3515.91,0.00058
3492.77,0.00039
3469.63,0.00050
3446.48,0.00012
3423.34,0.00023
3400.19,0.00052
3377.05,0.00019
3353.91,0.00066
3330.76,0.00026
3307.62,0.00059
3284.48,0.00016
3261.33,0.00080
3238.19,0.00030
3215.04,0.00005
3191.9,0.00052
3168.76,0.00029
3145.61,0.00038
3122.47,0.00039
3099.33,0.00020
3076.18,-0.00003
3053.04,0.00036
3029.89,0.00014
3006.75,0.00030
2983.61,0.00014
2960.46,0.00067
2937.32,0.00042
2914.18,0.00061
2891.03,0.00029
2867.89,0.00032
2844.75,0.00057
2821.6,0.00026
2798.46,0.00041
2775.31,0.00044
2752.17,0.00030
2729.03,0.00069
2705.88,0.00022
2682.74,0.00041
2659.6,0.00035
2636.45,0.00026
2613.31,0.00029
2590.16,0.00024
2567.02,0.00025
2543.88,0.00020
2520.73,0.00114
2497.59,0.00141
2474.45,0.00171
2451.3,0.00454
2428.16,0.00592
2405.02,0.00697
2381.87,0.00569
2358.73,0.00456
2335.58,0.00307
2312.44,0.00385
2289.3,0.00677
2266.15,0.00593
2243.01,0.00465
2219.87,0.00281
2196.72,0.00236
2173.58,0.00170
2150.43,0.00173
2127.29,0.00260
2104.15,0.00327
2081,0.00419
2057.86,0.00468
2034.72,0.00641
2011.57,0.01039
1988.43,0.01253
1965.29,0.01265
1942.14,0.01706
1919,0.01715
1895.85,0.01130
1872.71,0.00794
1849.57,0.00795
1826.42,0.00440
1803.28,0.00155
1780.14,0.00038
1756.99,0.00018
1733.85,0.00044
1710.7,0.00013
1687.56,0.00024
1664.42,0.00010
1641.27,0.00040
1618.13,0.00019
1594.99,0.00022
1571.84,0.00024
1548.7,0.00025
1525.56,0.00029
1502.41,0.00023
1479.27,0.00014
1456.12,0.00072
1432.98,0.00027
1409.84,0.00027
1386.69,0.00034
1363.55,0.00026
1340.41,0.00010
1317.26,0.00032
1294.12,0.00033
1270.97,0.00032
1247.83,0.00026
1224.69,0.00010
1201.54,0.00021
1178.4,0.00047
1155.26,0.00039
1132.11,0.00046
1108.97,0.00079
1085.82,0.00099
1062.68,0.00032
1039.54,0.00040
1016.39,0.00087
993.25,0.00035
970.106,0.00038
946.963,0.00072
923.819,0.00020
900.675,0.00049
877.532,0.00014
854.388,0.00073
831.244,0.00081
808.101,0.00068
784.957,0.00068
761.813,0.00080
738.669,0.00069
715.526,0.00067
692.382,0.00084
669.238,0.00076
646.095,0.00057
622.951,0.00103
599.807,0.00186

File: Nylon_1.575_Trans_S_IS_221213_R2.dpt
7496.63,0.70580
7473.48,0.71705
7450.34,0.70341
7427.2,0.70386
7404.05,0.70060
7380.91,0.69042
7357.77,0.69654
7334.62,0.68105
7311.48,0.66517
7288.33,0.65036
7265.19,0.62066
7242.05,0.60552
7218.9,0.59546
7195.76,0.58718
7172.62,0.60295
7149.47,0.59744
7126.33,0.59352
7103.18,0.58408
7080.04,0.57917
7056.9,0.59059
7033.75,0.58714
7010.61,0.58630
6987.47,0.59105
6964.32,0.59259
6941.18,0.59144
6918.04,0.59966
6894.89,0.60304
6871.75,0.60745
6848.6,0.60865
6825.46,0.60732
6802.32,0.60353
6779.17,0.59162
6756.03,0.57779
6732.89,0.58240
6709.74,0.56952
6686.6,0.56261
6663.45,0.54906
6640.31,0.53098
6617.17,0.50397
6594.02,0.50252
6570.88,0.50409
6547.74,0.48810
6524.59,0.46024
6501.45,0.45601
6478.3,0.45839
6455.16,0.52128
6432.02,0.56341
6408.87,0.56609
6385.73,0.54526
6362.59,0.52149
6339.44,0.52570
6316.3,0.55769
6293.16,0.56892
6270.01,0.55466
6246.87,0.54143
6223.72,0.54284
6200.58,0.56704
6177.44,0.59062
6154.29,0.62429
6131.15,0.64293
6108.01,0.65263
6084.86,0.65325
6061.72,0.64849
6038.57,0.64534
6015.43,0.64281
5992.29,0.63492
5969.14,0.62033
5946,0.59563
5922.86,0.54286
5899.71,0.44829
5876.57,0.33209
5853.43,0.23881
5830.28,0.18402
5807.14,0.21826
5783.99,0.26366
5760.85,0.29022
5737.71,0.26464
5714.56,0.22668
5691.42,0.24198
5668.28,0.29606
5645.13,0.34714
5621.99,0.38604
5598.84,0.39877
5575.7,0.41066
5552.56,0.42210
5529.41,0.43323
5506.27,0.44499
5483.13,0.45675
5459.98,0.46444
5436.84,0.47260
5413.7,0.47638
5390.55,0.50173
5367.41,0.51890
5344.26,0.52056
5321.12,0.51837
5297.98,0.48041
5274.83,0.44029
5251.69,0.40973
5228.55,0.37043
5205.4,0.32550
5182.26,0.28228
5159.11,0.24880
5135.97,0.23042
5112.83,0.23531
5089.68,0.25702
5066.54,0.27871
5043.4,0.30080
5020.25,0.30747
4997.11,0.27632
4973.97,0.18810
4950.82,0.18175
4927.68,0.17732
4904.53,0.11842
4881.39,0.05520
4858.25,0.07085
4835.1,0.19033
4811.96,0.25716
4788.82,0.24791
4765.67,0.23909
4742.53,0.20843
4719.38,0.16680
4696.24,0.11938
4673.1,0.10988
4649.95,0.10443
4626.81,0.08189
4603.67,0.05348
4580.52,0.03647
4557.38,0.04777
4534.23,0.05438
4511.09,0.07435
4487.95,0.09014
4464.8,0.08474
4441.66,0.05997
4418.52,0.03386
4395.37,0.00864
4372.23,0.00046
4349.09,0.00042
4325.94,0.00209
4302.8,0.00587
4279.65,0.00251
4256.51,0.00068
4233.37,0.00124
4210.22,0.00016
4187.08,0.00130
4163.94,0.00307
4140.79,0.00731
4117.65,0.00967
4094.5,0.00756
4071.36,0.00784
4048.22,0.00534
4025.07,0.00281
4001.93,0.00276
3978.79,0.00810
3955.64,0.02165
3932.5,0.03338
3909.36,0.04664
3886.21,0.05873
3863.07,0.07207
3839.92,0.05335
3816.78,0.06137
3793.64,0.07148
3770.49,0.08221
3747.35,0.07197
3724.21,0.06374
3701.06,0.04379
3677.92,0.00384
3654.77,0.00049
3631.63,0.00058
3608.49,0.00004
3585.34,0.00043
3562.2,0.00024
3539.06,0.00034
3515.91,0.00031
3492.77,0.00047
3469.63,0.00034
3446.48,0.00068
3423.34,0.00012
3400.19,0.00082
3377.05,0.00059
3353.91,0.00042
3330.76,0.00067
3307.62,0.00024
3284.48,0.00065
3261.33,0.00041
3238.19,0.00042
3215.04,0.00040
3191.9,0.00006
3168.76,0.00058
3145.61,0.00078
3122.47,0.00068
3099.33,0.00055
3076.18,0.00025
3053.04,0.00030
3029.89,0.00013
3006.75,0.00028
2983.61,0.00069
2960.46,0.00038
2937.32,0.00033
2914.18,0.00036
2891.03,0.00038
2867.89,0.00047
2844.75,0.00030
2821.6,0.00062
2798.46,0.00019
2775.31,0.00053
2752.17,0.00055
2729.03,0.00040
2705.88,0.00055
2682.74,0.00038
2659.6,0.00026
2636.45,0.00028
2613.31,0.00006
2590.16,0.00054
2567.02,0.00017
2543.88,0.00046
2520.73,0.00081
2497.59,0.00141
2474.45,0.00167
2451.3,0.00465
2428.16,0.00600
2405.02,0.00699
2381.87,0.00588
2358.73,0.00492
2335.58,0.00322
2312.44,0.00425
2289.3,0.00679
2266.15,0.00577
2243.01,0.00453
2219.87,0.00275
2196.72,0.00212
2173.58,0.00173
2150.43,0.00162
2127.29,0.00264
2104.15,0.00316
2081,0.00411
2057.86,0.00456
2034.72,0.00650
2011.57,0.01044
1988.43,0.01252
1965.29,0.01239
1942.14,0.01691
1919,0.01742
1895.85,0.01147
1872.71,0.00775
1849.57,0.00756
1826.42,0.00426
1803.28,0.00137
1780.14,0.00010
1756.99,0.00039
1733.85,0.00004
1710.7,0.00032
1687.56,0.00030
1664.42,0.00027
1641.27,0.00022
1618.13,0.00041
1594.99,0.00034
1571.84,0.00007
1548.7,0.00022
1525.56,0.00051
1502.41,0.00017
1479.27,0.00017
1456.12,0.00021
1432.98,0.00039
1409.84,0.00021
1386.69,0.00043
1363.55,0.00021
1340.41,0.00027
1317.26,0.00029
1294.12,0.00020
1270.97,0.00038
1247.83,0.00004
1224.69,0.00035
1201.54,0.00035
1178.4,0.00023
1155.26,-0.00002
1132.11,0.00072
1108.97,0.00050
1085.82,0.00039
1062.68,0.00036
1039.54,0.00057
1016.39,0.00080
993.25,0.00021
970.106,0.00039
946.963,0.00066
923.819,0.00107
900.675,-0.00001
877.532,0.00051
854.388,0.00013
831.244,0.00096
808.101,0.00065
784.957,0.00076
761.813,0.00007
738.669,0.00045
715.526,0.00108
692.382,0.00153
669.238,0.00128
646.095,0.00073
622.951,0.00123
599.807,0.00183

File: Nylon_1.575_Trans_S_IS_221213_R3.dpt
7496.63,0.70325
7473.48,0.69205
7450.34,0.70914
7427.2,0.69998
7404.05,0.70277
7380.91,0.69655
7357.77,0.67522
7334.62,0.67988
7311.48,0.66046
7288.33,0.64111
7265.19,0.62069
7242.05,0.60410
7218.9,0.59043
7195.76,0.59152
7172.62,0.59700
7149.47,0.59813
7126.33,0.58772
7103.18,0.58313
7080.04,0.58702
7056.9,0.58345
7033.75,0.59009
7010.61,0.58543
6987.47,0.58490
6964.32,0.59271
6941.18,0.59823
6918.04,0.59780
6894.89,0.60596
6871.75,0.59994
6848.6,0.59778
6825.46,0.59918
6802.32,0.60198
6779.17,0.59266
6756.03,0.57883
6732.89,0.57770
6709.74,0.56998
6686.6,0.56467
6663.45,0.55367
6640.31,0.53037
6617.17,0.50666
6594.02,0.50175
6570.88,0.49993
6547.74,0.48308
6524.59,0.46118
6501.45,0.45412
6478.3,0.45733
6455.16,0.52340
6432.02,0.56433
6408.87,0.56607
6385.73,0.54402
6362.59,0.52214
6339.44,0.52401
6316.3,0.55680
6293.16,0.56804
6270.01,0.54831
6246.87,0.53701
6223.72,0.54337
6200.58,0.56650
6177.44,0.59018
6154.29,0.61960
6131.15,0.63881
6108.01,0.65229
6084.86,0.65151
6061.72,0.65118
6038.57,0.64859
6015.43,0.64011
5992.29,0.63409
5969.14,0.61798
5946,0.59237
5922.86,0.53900
5899.71,0.44649
5876.57,0.33259
5853.43,0.23665
5830.28,0.18362
5807.14,0.21586
5783.99,0.26107
5760.85,0.28937
5737.71,0.26300
5714.56,0.22645
5691.42,0.24142
5668.28,0.29357
5645.13,0.34649
5621.99,0.38500
5598.84,0.39792
5575.7,0.40819
5552.56,0.42204
5529.41,0.43149
5506.27,0.44130
5483.13,0.45317
5459.98,0.46204
5436.84,0.47018
5413.7,0.47264
5390.55,0.49906
5367.41,0.51400
5344.26,0.51442
5321.12,0.51440
5297.98,0.47761
5274.83,0.44040
5251.69,0.40738
5228.55,0.36894
5205.4,0.32423
5182.26,0.28085
5159.11,0.24857
5135.97,0.23186
5112.83,0.23609
5089.68,0.25612
5066.54,0.27921
5043.4,0.29834
5020.25,0.30594
4997.11,0.27631
4973.97,0.18765
4950.82,0.18264
4927.68,0.17655
4904.53,0.11945
4881.39,0.05568
4858.25,0.07027
4835.1,0.18895
4811.96,0.25597
4788.82,0.24691
4765.67,0.23788
4742.53,0.20794
4719.38,0.16517
4696.24,0.11815
4673.1,0.10922
4649.95,0.10424
4626.81,0.08283
4603.67,0.05360
4580.52,0.03631
4557.38,0.04838
4534.23,0.05448
4511.09,0.07489
4487.95,0.08952
4464.8,0.08379
4441.66,0.05971
4418.52,0.03319
4395.37,0.00968
4372.23,0.00107
4349.09,0.00079
4325.94,0.00287
4302.8,0.00514
4279.65,0.00292
4256.51,0.00141
4233.37,0.00136
4210.22,0.00052
4187.08,0.00155
4163.94,0.00332
4140.79,0.00729
4117.65,0.00983
4094.5,0.00770
4071.36,0.00735
4048.22,0.00527
4025.07,0.00339
4001.93,0.00219
3978.79,0.00769
3955.64,0.02161
3932.5,0.03331
3909.36,0.04679
3886.21,0.05838
3863.07,0.07098
3839.92,0.05244
3816.78,0.06006
3793.64,0.07170
3770.49,0.08105
3747.35,0.06965
3724.21,0.06253
3701.06,0.04302
3677.92,0.00271
3654.77,0.00009
3631.63,0.00063
3608.49,0.00030
3585.34,0.00028
3562.2,0.00049
3539.06,0.00058
3515.91,0.00027
3492.77,0.00009
3469.63,0.00039
3446.48,0.00018
3423.34,0.00011
3400.19,0.00038
3377.05,0.00055
3353.91,0.00021
3330.76,0.00028
3307.62,0.00036
3284.48,0.00033
3261.33,0.00038
3238.19,0.00080
3215.04,0.00039
3191.9,0.00013
3168.76,0.00044
3145.61,0.00014
3122.47,0.00042
3099.33,0.00045
3076.18,0.00067
3053.04,0.00041
3029.89,0.00082
3006.75,0.00034
2983.61,0.00042
2960.46,0.00074
2937.32,0.00016
2914.18,0.00016
2891.03,0.00012
2867.89,0.00014
2844.75,0.00036
2821.6,0.00012
2798.46,0.00043
2775.31,0.00019
2752.17,0.00034
2729.03,0.00027
2705.88,0.00031
2682.74,-0.00004
2659.6,0.00040
2636.45,0.00035
2613.31,0.00016
2590.16,0.00036
2567.02,0.00052
2543.88,0.00045
2520.73,0.00128
2497.59,0.00167
2474.45,0.00153
2451.3,0.00482
2428.16,0.00599
2405.02,0.00714
2381.87,0.00548
2358.73,0.00394
2335.58,0.00291
2312.44,0.00382
2289.3,0.00652
2266.15,0.00593
2243.01,0.00460
2219.87,0.00283
2196.72,0.00220
2173.58,0.00182
2150.43,0.00155
2127.29,0.00277
2104.15,0.00338
2081,0.00418
2057.86,0.00448
2034.72,0.00664
2011.57,0.01041
1988.43,0.01240
1965.29,0.01206
1942.14,0.01702
1919,0.01717
1895.85,0.01136
1872.71,0.00784
1849.57,0.00791
1826.42,0.00420
1803.28,0.00154
1780.14,0.00017
1756.99,0.00015
1733.85,0.00048
1710.7,0.00005
1687.56,0.00028
1664.42,0.00024
1641.27,0.00016
1618.13,0.00021
1594.99,0.00025
1571.84,0.00031
1548.7,0.00052
1525.56,0.00038
1502.41,0.00040
1479.27,0.00048
1456.12,0.00019
1432.98,0.00025
1409.84,0.00017
1386.69,0.00027
1363.55,0.00006
1340.41,0.00022
1317.26,0.00046
1294.12,0.00037
1270.97,0.00010
1247.83,0.00015
1224.69,0.00039
1201.54,0.00054
1178.4,0.00070
1155.26,0.00039
1132.11,0.00055
1108.97,0.00038
1085.82,0.00057
1062.68,0.00013
1039.54,0.00035
1016.39,0.00049
993.25,0.00033
970.106,0.00024
946.963,0.00057
923.819,0.00074
900.675,0.00060
877.532,0.00112
854.388,0.00062
831.244,0.00024
808.101,0.00035
784.957,0.00066
761.813,0.00075
738.669,0.00046
715.526,0.00075
692.382,0.00077
669.238,0.00070
646.095,0.00168
622.951,0.00068
599.807,0.00160

File: Nylon_1.575_Trans_T_IS_221213_R1.dpt
7496.63,0.03282
7473.48,0.02569
7450.34,0.01177
7427.2,0.00649
7404.05,0.00520
7380.91,0.01809
7357.77,0.02090
7334.62,0.02172
7311.48,0.01460
7288.33,0.00598
7265.19,0.00868
7242.05,0.01464
7218.9,0.00910
7195.76,0.01364
7172.62,0.00742
7149.47,0.00493
7126.33,0.01133
7103.18,0.01886
7080.04,0.01135
7056.9,0.00946
7033.75,0.01159
7010.61,0.02183
6987.47,0.01119
6964.32,-0.00083
6941.18,0.01381
6918.04,0.00551
6894.89,0.00638
6871.75,0.01143
6848.6,0.01315
6825.46,0.01055
6802.32,0.01478
6779.17,0.00650
6756.03,0.00173
6732.89,0.00848
6709.74,0.00739
6686.6,0.01154
6663.45,0.00618
6640.31,0.01117
6617.17,0.01392
6594.02,0.00617
6570.88,0.00606
6547.74,0.01277
6524.59,-0.00057
6501.45,0.00562
6478.3,0.00374
6455.16,0.00925
6432.02,0.00206
6408.87,0.00708
6385.73,0.00816
6362.59,0.00535
6339.44,0.00372
6316.3,0.00518
6293.16,0.00889
6270.01,0.00527
6246.87,0.00880
6223.72,0.00542
6200.58,0.00841
6177.44,0.00171
6154.29,0.00112
6131.15,0.00540
6108.01,0.00465
6084.86,0.00331
6061.72,0.00887
6038.57,0.00819
6015.43,0.00092
5992.29,0.00681
5969.14,0.00573
5946,0.00387
5922.86,0.00448
5899.71,0.00501
5876.57,0.00701
5853.43,0.00879
5830.28,0.00734
5807.14,0.00580
5783.99,0.00531
5760.85,0.00474
5737.71,0.00515
5714.56,0.00348
5691.42,0.00483
5668.28,0.00274
5645.13,0.00235
5621.99,0.00510
5598.84,0.00333
5575.7,0.00543
5552.56,0.00418
5529.41,0.00493
5506.27,0.00384
5483.13,0.00335
5459.98,0.00039
5436.84,0.00685
5413.7,0.00201
5390.55,0.00015
5367.41,0.00188
5344.26,0.00511
5321.12,0.00020
5297.98,0.00415
5274.83,0.00298
5251.69,0.00446
5228.55,0.00544
5205.4,0.00076
5182.26,0.00240
5159.11,0.00108
5135.97,0.00110
5112.83,0.00142
5089.68,0.00295
5066.54,0.00240
5043.4,0.00337
5020.25,0.00193
4997.11,0.00160
4973.97,0.00207
4950.82,0.00328
4927.68,0.00305
4904.53,0.00203
4881.39,0.00149
4858.25,0.00158
4835.1,0.00231
4811.96,0.00247
4788.82,-0.00053
4765.67,0.00332
4742.53,0.00159
4719.38,-0.00060
4696.24,0.00299
4673.1,0.00167
4649.95,0.00206
4626.81,0.00003
4603.67,0.00153
4580.52,0.00182
4557.38,0.00146
4534.23,0.00201
4511.09,0.00158
4487.95,0.00196
4464.8,0.00071
4441.66,0.00089
4418.52,0.00238
4395.37,0.00223
4372.23,0.00117
4349.09,0.00145
4325.94,0.00272
4302.8,0.00180
4279.65,0.00157
4256.51,0.00049
4233.37,0.00052
4210.22,0.00109
4187.08,0.00066
4163.94,0.00087
4140.79,0.00059
4117.65,0.00218
4094.5,0.00135
4071.36,0.00118
4048.22,0.00144
4025.07,0.00132
4001.93,0.00150
3978.79,0.00057
3955.64,0.00155
3932.5,0.00003
3909.36,0.00146
3886.21,0.00059
3863.07,0.00110
3839.92,0.00175
3816.78,0.00122
3793.64,0.00130
3770.49,0.00205
3747.35,0.00247
3724.21,0.00179
3701.06,0.00039
3677.92,0.00215
3654.77,0.00191
3631.63,0.00068
3608.49,0.00057
3585.34,0.00187
3562.2,0.00092
3539.06,0.00247
3515.91,0.00056
3492.77,0.00113
3469.63,0.00119
3446.48,0.00033
3423.34,0.00113
3400.19,0.00092
3377.05,0.00122
3353.91,0.00141
3330.76,0.00088
3307.62,0.00136
3284.48,0.00077
3261.33,0.00077
3238.19,0.00126
3215.04,0.00207
3191.9,0.00087
3168.76,0.00160
3145.61,0.00082
3122.47,0.00107
3099.33,0.00175
3076.18,0.00099
3053.04,0.00097
3029.89,0.00190
3006.75,0.00134
2983.61,-0.00000
2960.46,0.00066
2937.32,0.00061
2914.18,0.00129
2891.03,0.00044
2867.89,0.00041
2844.75,0.00122
2821.6,0.00044
2798.46,0.00051
2775.31,0.00093
2752.17,0.00117
2729.03,0.00067
2705.88,0.00016
2682.74,0.00058
2659.6,0.00085
2636.45,0.00099
2613.31,0.00086
2590.16,0.00033
2567.02,0.00096
2543.88,0.00100
2520.73,0.00057
2497.59,0.00080
2474.45,0.00059
2451.3,0.00040
2428.16,0.00029
2405.02,0.00005
2381.87,0.00056
2358.73,0.00092
2335.58,0.00023
2312.44,0.00058
2289.3,0.00091
2266.15,0.00061
2243.01,0.00049
2219.87,0.00028
2196.72,0.00076
2173.58,0.00093
2150.43,0.00010
2127.29,0.00056
2104.15,0.00063
2081,0.00007
2057.86,0.00039
2034.72,0.00043
2011.57,0.00044
1988.43,0.00004
1965.29,0.00012
1942.14,0.00025
1919,0.00067
1895.85,0.00036
1872.71,0.00068
1849.57,0.00013
1826.42,0.00093
1803.28,0.00077
1780.14,0.00022
1756.99,0.00035
1733.85,0.00015
1710.7,0.00048
1687.56,0.00107
1664.42,0.00053
1641.27,0.00025
1618.13,0.00052
1594.99,0.00056
1571.84,0.00041
1548.7,0.00036
1525.56,0.00003
1502.41,0.00049
1479.27,0.00084
1456.12,0.00084
1432.98,0.00063
1409.84,0.00017
1386.69,0.00048
1363.55,0.00040
1340.41,0.00091
1317.26,0.00028
1294.12,0.00033
1270.97,0.00105
1247.83,0.00063
1224.69,0.00129
1201.54,0.00086
1178.4,0.00072
1155.26,0.00011
1132.11,0.00100
1108.97,0.00102
1085.82,0.00100
1062.68,0.00083
1039.54,0.00004
1016.39,0.00092
993.25,0.00243
970.106,0.00094
946.963,0.00212
923.819,0.00157
900.675,0.00157
877.532,0.00083
854.388,0.00092
831.244,0.00269
808.101,0.00156
784.957,0.00096
761.813,0.00073
738.669,0.00169
715.526,0.00023
692.382,0.00168
669.238,0.00093
646.095,0.00355
622.951,0.00205
599.807,0.00010