Folder: fsri_materials_database/01_Data/Cotton_Sheet/Cone

Note: README.md
# Materials and Products Database
### Repository of materials and products properties and fire test data to improve fire modeling and fire investigation.

This project was supported in part by Award No. 2019-DU-BX-0018, awarded by the National Institute of Justice, Office of Justice Programs, U.S. Department of Justice. The opinions, findings, and conclusions or recommendations expressed in this publication / program / exhibition are those of the author(s) and do not necessarily reflect those of the Department of Justice.

***
***

__Cite this database:__ "McKinnon, M., Weinschenk, C., Dow, N., DiDomizio, M., and Madrzykowski, D. Materials and Products Database (Version 1.0.0), Fire Safety Research Institute, UL Research Institutes. Columbia, MD 21045, 2023."

__Cite the Technical Reference Guide:__ "McKinnon, M., Weinschenk, C., and Madrzykowski, D. Materials and Products Database - Technical Reference Guide, Fire Safety Research Institute, UL Research Institutes. Columbia, MD 21045, 2023."

__Cite the User Guide:__ "McKinnon, M., and Weinschenk, C. Materials and Products Database - User Guide, Fire Safety Research Institute, UL Research Institutes. Columbia, MD 21045, 2023."

***
***

## Database Structure

## 01_Data/
Raw data generated from each apparatus are included here in plain-text format. The data is organized first by material, next by the short name of test apparatus used, and where applicable additional filtering by test settings.

### Test Apparatus and Data File Structure
- __Cone Calorimeter__ (Cone)
    + Data file structure includes the material, the short name for the apparatus, heat flux setting and scan/scalar, date of test, and replicate number. Scan is for the raw output data and scalar is for the initial conditions and high-level test parameters. 
        * Example: __MDF_Cone_HF25scalar_210323_R1__ stands for the first replicate of scalar data generated from a medium density fiber board test in cone calorimeter exposed to 25 kW/m<sup>2</sup> on March 23, 2021.
    + A _Cone_Notes.csv_ is generated for each material from the __plot_Cone_data.py__ script. For materials whose experiments deviated from typical behavior relevant pictures are included in the respective material directory.
- __Fourier Transform Infrared Spectrometer__ (FTIR)
    + The FTIR directory contains subdirectories for the Attenuated Total Reflectance method (ATR) and the Integrating Sphere (IS)
    + Data file structure for the ATR experiment files includes the material, the abbreviated name for the apparatus, date of test, and replicate number. 
        * Example: __MDF_ATR_210323_R5__ stands for the fifth replicate of data collected with the ATR accessory conducted on June 8, 2021.
    + Data file structure for the IS experiment files includes the material, the abbreviated name for the apparatus, the measurand, whether the test is a sample measurement or standard reference, date of test, and replicate number.
        * Example: __OSB_IS_REFLECT_MEAS_2

File: Cotton_Sheet_HRRPUA_25.csv
Time after Ignition,Cotton_Sheet_R1,Cotton_Sheet_R2,Cotton_Sheet_R3,Mean,Std. Dev.
0.0,19.0,19.1,28.2,22.1,5.3
0.25,21.6,28.6,35.6,28.6,7.0
0.5,23.9,37.6,41.8,34.4,9.4
0.75,26.2,45.3,47.5,39.7,11.7
1.0,33.5,53.1,52.4,46.3,11.1
1.25,40.3,63.5,57.0,53.6,12.0
1.5,46.6,74.9,65.5,62.3,14.4
1.75,51.4,83.3,74.7,69.8,16.5
2.0,60.7,90.7,80.2,77.2,15.2
2.25,69.8,100.4,87.1,85.8,15.4
2.5,77.5,109.1,96.1,94.2,15.9
2.75,85.0,120.7,106.3,104.0,18.0
3.0,94.8,123.0,115.1,111.0,14.6
3.25,104.9,133.9,123.4,120.7,14.7
3.5,113.7,139.3,130.9,128.0,13.0
3.75,121.6,140.8,137.0,133.2,10.2
4.0,127.7,145.1,143.3,138.7,9.5
4.25,133.3,152.3,145.6,143.7,9.7
4.5,141.9,154.1,152.0,149.4,6.5
4.75,145.3,157.9,155.1,152.8,6.6
5.0,148.9,163.4,161.8,158.0,8.0
5.25,153.5,163.7,164.3,160.5,6.1
5.5,156.3,168.1,170.6,165.0,7.6
5.75,161.9,168.0,168.9,166.3,3.8
6.0,164.4,168.4,170.9,167.9,3.3
6.25,170.0,170.2,173.5,171.2,2.0
6.5,167.6,168.3,170.7,168.9,1.7
6.75,170.8,168.0,172.8,170.5,2.4
7.0,173.3,167.8,174.2,171.7,3.4
7.25,174.2,168.3,170.9,171.1,3.0
7.5,173.9,164.8,171.3,170.0,4.7
7.75,172.1,162.3,168.9,167.8,5.0
8.0,170.8,158.6,166.7,165.4,6.2
8.25,169.4,152.2,159.4,160.3,8.6
8.5,168.6,151.6,154.3,158.2,9.2
8.75,164.7,143.5,153.3,153.9,10.6
9.0,159.9,138.1,145.2,147.7,11.1
9.25,157.3,133.8,137.3,142.8,12.6
9.5,152.0,127.6,130.4,136.7,13.3
9.75,145.8,122.2,124.5,130.8,13.0
10.0,140.4,116.2,121.7,126.1,12.7
10.25,136.3,111.5,116.0,121.2,13.2
10.5,129.3,106.9,112.4,116.2,11.7
10.75,120.3,102.3,105.3,109.3,9.7
11.0,115.3,97.5,100.7,104.5,9.5
11.25,110.8,92.6,96.3,99.9,9.6
11.5,103.4,88.9,92.4,94.9,7.5
11.75,98.7,83.6,87.8,90.0,7.8
12.0,92.8,80.3,83.9,85.7,6.5
12.25,89.0,74.6,78.3,80.7,7.5
12.5,84.8,69.6,74.7,76.4,7.8
12.75,78.9,65.0,71.4,71.8,6.9
13.0,80.7,61.3,68.4,70.1,9.8
13.25,76.1,57.2,64.6,66.0,9.5
13.5,71.7,53.8,62.3,62.6,9.0
13.75,68.2,50.5,59.2,59.3,8.9
14.0,65.3,47.4,56.0,56.3,8.9
14.25,62.8,44.7,52.7,53.4,9.1
14.5,59.8,45.0,50.5,51.8,7.5
14.75,57.7,42.0,48.1,49.3,7.9
15.0,54.1,40.1,45.9,46.7,7.1
15.25,51.2,36.6,43.4,43.7,7.3
15.5,49.2,34.8,40.5,41.5,7.2
15.75,47.1,32.7,39.4,39.8,7.2
16.0,45.3,30.8,36.1,37.4,7.4
16.25,43.2,28.5,34.1,35.3,7.4
16.5,42.4,26.8,32.8,34.0,7.9
16.75,41.4,25.2,30.6,32.4,8.3
17.0,39.0,24.1,29.1,30.7,7.6
17.25,37.2,22.8,27.7,29.2,7.3
17.5,36.5,21.6,26.5,28.2,7.6
17.75,35.1,20.9,24.9,27.0,7.3
18.0,33.9,19.8,,26.9,10.0

File: Cotton_Sheet_HRRPUA_50.csv
Time after Ignition,Cotton_Sheet_R1,Cotton_Sheet_R2,Cotton_Sheet_R3,Mean,Std. Dev.
0.0,67.6,57.6,62.4,62.5,5.0
0.25,77.5,67.8,70.9,72.1,4.9
0.5,91.2,75.1,80.5,82.3,8.2
0.75,101.1,87.0,87.5,91.9,8.0
1.0,117.0,98.9,103.0,106.3,9.5
1.25,122.9,111.0,116.5,116.8,6.0
1.5,130.2,118.3,128.7,125.7,6.4
1.75,140.2,127.9,131.4,133.2,6.4
2.0,144.6,134.8,139.7,139.7,4.9
2.25,152.8,143.0,153.6,149.8,5.9
2.5,156.1,148.7,161.4,155.4,6.4
2.75,167.0,155.0,168.1,163.4,7.3
3.0,173.7,166.2,176.2,172.0,5.2
3.25,178.3,174.3,185.8,179.4,5.8
3.5,185.5,178.2,193.4,185.7,7.6
3.75,190.8,188.3,199.4,192.8,5.9
4.0,190.6,184.8,208.0,194.5,12.1
4.25,187.6,188.6,211.4,195.9,13.5
4.5,187.6,184.4,207.4,193.1,12.5
4.75,187.2,180.6,203.4,190.4,11.7
5.0,187.1,183.0,195.7,188.6,6.5
5.25,181.6,178.4,192.3,184.1,7.3
5.5,170.8,170.0,191.4,177.4,12.1
5.75,166.8,164.4,180.5,170.6,8.7
6.0,163.4,158.1,174.8,165.4,8.5
6.25,160.6,153.9,166.8,160.4,6.4
6.5,151.0,149.7,163.8,154.8,7.8
6.75,143.7,141.9,156.5,147.4,7.9
7.0,139.3,134.9,148.5,140.9,7.0
7.25,134.0,130.2,142.0,135.4,6.0
7.5,130.2,124.1,135.6,130.0,5.7
7.75,123.2,120.4,127.9,123.9,3.8
8.0,114.7,112.7,121.8,116.4,4.8
8.25,111.2,107.7,116.4,111.8,4.4
8.5,105.2,103.6,110.2,106.3,3.5
8.75,100.3,97.4,104.6,100.8,3.7
9.0,95.2,91.0,99.0,95.1,4.0
9.25,91.9,87.2,95.7,91.6,4.2
9.5,86.0,82.7,90.1,86.3,3.7
9.75,82.2,78.2,86.3,82.2,4.1
10.0,79.6,75.0,82.4,79.0,3.7
10.25,74.4,69.2,77.8,73.8,4.3
10.5,70.8,65.4,74.2,70.1,4.4
10.75,67.6,61.1,69.7,66.1,4.5
11.0,64.3,57.6,66.3,62.7,4.5
11.25,61.4,53.9,62.0,59.1,4.5
11.5,57.4,51.6,59.3,56.1,4.0
11.75,54.8,47.6,56.4,52.9,4.7
12.0,51.5,44.3,50.3,48.7,3.8
12.25,49.4,41.5,46.6,45.9,4.0
12.5,46.7,39.5,47.2,44.5,4.3
12.75,44.5,37.2,,40.9,5.2
13.0,41.4,35.1,,38.3,4.4
13.25,39.7,33.4,,36.6,4.5
13.5,34.2,30.9,,32.5,2.3
13.75,34.8,29.1,,31.9,4.1
14.0,32.6,27.7,,30.1,3.4
14.25,30.3,26.5,,28.4,2.7
14.5,28.6,25.3,,26.9,2.3
14.75,27.1,24.0,,25.6,2.2
15.0,25.0,22.8,,23.9,1.5
15.25,23.3,21.4,,22.3,1.3
15.5,22.0,20.5,,21.2,1.0
15.75,20.5,19.6,,20.1,0.6
16.0,18.9,18.9,,18.9,0.0

File: Cotton_Sheet_HRRPUA_75.csv
Time after Ignition,Cotton_Sheet_R1,Cotton_Sheet_R2,Cotton_Sheet_R3,Mean,Std. Dev.
0.0,100.7,145.6,51.7,99.3,47.0
0.25,113.5,156.6,61.2,110.4,47.8
0.5,123.4,161.2,74.4,119.6,43.5
0.75,133.0,167.0,86.3,128.8,40.5
1.0,141.7,176.9,98.5,139.0,39.3
1.25,150.6,189.0,106.0,148.6,41.6
1.5,161.3,199.5,115.8,158.9,41.9
1.75,175.3,208.5,119.8,167.8,44.8
2.0,182.3,223.5,127.7,177.8,48.1
2.25,192.4,233.9,142.6,189.6,45.7
2.5,202.5,232.6,150.8,195.3,41.3
2.75,216.0,233.2,161.7,203.6,37.3
3.0,219.8,238.2,171.3,209.8,34.6
3.25,221.7,235.3,173.9,210.3,32.2
3.5,220.4,229.2,183.8,211.1,24.1
3.75,221.9,226.0,188.1,212.0,20.8
4.0,220.0,212.8,191.2,208.0,15.0
4.25,221.5,205.1,190.2,205.6,15.7
4.5,211.8,198.0,187.2,199.0,12.3
4.75,206.5,186.2,184.9,192.5,12.1
5.0,200.4,177.8,183.0,187.1,11.8
5.25,194.3,169.0,179.7,181.0,12.7
5.5,181.6,160.0,172.9,171.5,10.8
5.75,174.1,152.7,166.0,164.3,10.8
6.0,163.6,143.4,161.9,156.3,11.2
6.25,156.8,136.6,151.1,148.2,10.4
6.5,145.8,127.9,144.4,139.4,10.0
6.75,137.3,123.2,137.7,132.8,8.2
7.0,129.4,116.4,131.0,125.6,8.0
7.25,124.0,110.9,122.0,119.0,7.0
7.5,117.3,104.2,115.4,112.3,7.1
7.75,108.5,99.5,110.1,106.0,5.7
8.0,101.7,94.1,102.7,99.5,4.7
8.25,97.6,89.8,96.4,94.6,4.2
8.5,90.8,85.6,90.9,89.1,3.1
8.75,86.7,81.1,84.4,84.1,2.8
9.0,82.3,76.0,79.8,79.4,3.1
9.25,76.7,72.4,75.3,74.8,2.2
9.5,73.0,68.5,70.7,70.7,2.3
9.75,68.7,64.8,65.6,66.4,2.1
10.0,64.6,59.9,60.1,61.5,2.7
10.25,61.9,55.6,57.5,58.3,3.3
10.5,57.1,53.0,54.2,54.8,2.1