Folder: fsri_materials_database/01_Data/ABS/FTIR/IS

Note: README.md
# Materials and Products Database
### Repository of materials and products properties and fire test data to improve fire modeling and fire investigation.

This project was supported in part by Award No. 2019-DU-BX-0018, awarded by the National Institute of Justice, Office of Justice Programs, U.S. Department of Justice. The opinions, findings, and conclusions or recommendations expressed in this publication / program / exhibition are those of the author(s) and do not necessarily reflect those of the Department of Justice.

***
***

__Cite this database:__ "McKinnon, M., Weinschenk, C., Dow, N., DiDomizio, M., and Madrzykowski, D. Materials and Products Database (Version 1.0.0), Fire Safety Research Institute, UL Research Institutes. Columbia, MD 21045, 2023."

__Cite the Technical Reference Guide:__ "McKinnon, M., Weinschenk, C., and Madrzykowski, D. Materials and Products Database - Technical Reference Guide, Fire Safety Research Institute, UL Research Institutes. Columbia, MD 21045, 2023."

__Cite the User Guide:__ "McKinnon, M., and Weinschenk, C. Materials and Products Database - User Guide, Fire Safety Research Institute, UL Research Institutes. Columbia, MD 21045, 2023."

***
***

## Database Structure

## 01_Data/
Raw data generated from each apparatus are included here in plain-text format. The data is organized first by material, next by the short name of test apparatus used, and where applicable additional filtering by test settings.

### Test Apparatus and Data File Structure
- __Cone Calorimeter__ (Cone)
    + Data file structure includes the material, the short name for the apparatus, heat flux setting and scan/scalar, date of test, and replicate number. Scan is for the raw output data and scalar is for the initial conditions and high-level test parameters. 
        * Example: __MDF_Cone_HF25scalar_210323_R1__ stands for the first replicate of scalar data generated from a medium density fiber board test in cone calorimeter exposed to 25 kW/m<sup>2</sup> on March 23, 2021.
    + A _Cone_Notes.csv_ is generated for each material from the __plot_Cone_data.py__ script. For materials whose experiments deviated from typical behavior relevant pictures are included in the respective material directory.
- __Fourier Transform Infrared Spectrometer__ (FTIR)
    + The FTIR directory contains subdirectories for the Attenuated Total Reflectance method (ATR) and the Integrating Sphere (IS)
    + Data file structure for the ATR experiment files includes the material, the abbreviated name for the apparatus, date of test, and replicate number. 
        * Example: __MDF_ATR_210323_R5__ stands for the fifth replicate of data collected with the ATR accessory conducted on June 8, 2021.
    + Data file structure for the IS experiment files includes the material, the abbreviated name for the apparatus, the measurand, whether the test is a sample measurement or standard reference, date of test, and replicate number.
        * Example: __OSB_IS_REFLECT_MEAS_2

File: ABS_IS_S_220906_R1.dpt
7497.03,0.70838
7473.89,0.71119
7450.74,0.69743
7427.6,0.70332
7404.45,0.70503
7381.31,0.69740
7358.16,0.68500
7335.02,0.67737
7311.87,0.67625
7288.73,0.65585
7265.58,0.65448
7242.44,0.64229
7219.29,0.63429
7196.15,0.62564
7173,0.62211
7149.86,0.61714
7126.71,0.61035
7103.57,0.59126
7080.42,0.59421
7057.28,0.59949
7034.13,0.59780
7010.99,0.60686
6987.84,0.60830
6964.7,0.61189
6941.55,0.61337
6918.41,0.62294
6895.26,0.62927
6872.12,0.63144
6848.97,0.63493
6825.83,0.63571
6802.68,0.63493
6779.54,0.64242
6756.39,0.64349
6733.25,0.64004
6710.1,0.64568
6686.96,0.65165
6663.82,0.64863
6640.67,0.65016
6617.53,0.65099
6594.38,0.65372
6571.24,0.65837
6548.09,0.65017
6524.95,0.65447
6501.8,0.65261
6478.66,0.65739
6455.51,0.65095
6432.37,0.65351
6409.22,0.65429
6386.08,0.64844
6362.93,0.64136
6339.79,0.63798
6316.64,0.64106
6293.5,0.63420
6270.35,0.63774
6247.21,0.62444
6224.06,0.61732
6200.92,0.60026
6177.77,0.58109
6154.63,0.53638
6131.48,0.48186
6108.34,0.44527
6085.19,0.46206
6062.05,0.47358
6038.9,0.43887
6015.76,0.35717
5992.61,0.30108
5969.47,0.26566
5946.32,0.26813
5923.18,0.28268
5900.03,0.28354
5876.89,0.29529
5853.74,0.29733
5830.6,0.29276
5807.45,0.29228
5784.31,0.30408
5761.16,0.33415
5738.02,0.33610
5714.87,0.30825
5691.73,0.30021
5668.58,0.30772
5645.44,0.32357
5622.29,0.34074
5599.15,0.34440
5576,0.35661
5552.86,0.36341
5529.71,0.36445
5506.57,0.36770
5483.42,0.37513
5460.28,0.37712
5437.13,0.37514
5413.99,0.37563
5390.84,0.37160
5367.7,0.37386
5344.55,0.38087
5321.41,0.38309
5298.26,0.37864
5275.12,0.35955
5251.97,0.33529
5228.83,0.34888
5205.68,0.36848
5182.54,0.36977
5159.39,0.35974
5136.25,0.35213
5113.1,0.37430
5089.96,0.38133
5066.81,0.38463
5043.67,0.38417
5020.52,0.38655
4997.38,0.38205
4974.23,0.37785
4951.09,0.37394
4927.94,0.37332
4904.8,0.37353
4881.65,0.36334
4858.51,0.36349
4835.36,0.36367
4812.22,0.36480
4789.07,0.35585
4765.93,0.33938
4742.78,0.32447
4719.64,0.27176
4696.49,0.25584
4673.35,0.17459
4650.2,0.18989
4627.06,0.16893
4603.92,0.16813
4580.77,0.18908
4557.63,0.21624
4534.48,0.23296
4511.34,0.22871
4488.19,0.21231
4465.05,0.21302
4441.9,0.19810
4418.76,0.18038
4395.61,0.15037
4372.47,0.12759
4349.32,0.11483
4326.18,0.11301
4303.03,0.11738
4279.89,0.11038
4256.74,0.10241
4233.6,0.10354
4210.45,0.10607
4187.31,0.11075
4164.16,0.11581
4141.02,0.11537
4117.87,0.11191
4094.73,0.10808
4071.58,0.09416
4048.44,0.08851
4025.29,0.09553
4002.15,0.11000
3979,0.11520
3955.86,0.11732
3932.71,0.11627
3909.57,0.11737
3886.42,0.12139
3863.28,0.12341
3840.13,0.12146
3816.99,0.11850
3793.84,0.11895
3770.7,0.12106
3747.55,0.12388
3724.41,0.11567
3701.26,0.10786
3678.12,0.09120
3654.97,0.07849
3631.83,0.08065
3608.68,0.08376
3585.54,0.08443
3562.39,0.07821
3539.25,0.07589
3516.1,0.07789
3492.96,0.07986
3469.81,0.08004
3446.67,0.08049
3423.52,0.08094
3400.38,0.07982
3377.23,0.08079
3354.09,0.08038
3330.94,0.07909
3307.8,0.06840
3284.65,0.07135
3261.51,0.07710
3238.36,0.07761
3215.22,0.07598
3192.07,0.07549
3168.93,0.07455
3145.78,0.07385
3122.64,0.06998
3099.49,0.06310
3076.35,0.06099
3053.2,0.06059
3030.06,0.05890
3006.91,0.05966
2983.77,0.05890
2960.62,0.05863
2937.48,0.05875
2914.33,0.06224
2891.19,0.06128
2868.04,0.06173
2844.9,0.06248
2821.75,0.06346
2798.61,0.06565
2775.46,0.06703
2752.32,0.06880
2729.17,0.06893
2706.03,0.06874
2682.88,0.06844
2659.74,0.06865
2636.59,0.06778
2613.45,0.06880
2590.3,0.06965
2567.16,0.06977
2544.02,0.06949
2520.87,0.06812
2497.73,0.06961
2474.58,0.07048
2451.44,0.07065
2428.29,0.07050
2405.15,0.06934
2382,0.06860
2358.86,0.07078
2335.71,0.06809
2312.57,0.06688
2289.42,0.06753
2266.28,0.06535
2243.13,0.06017
2219.99,0.06523
2196.84,0.06803
2173.7,0.06884
2150.55,0.06941
2127.41,0.06942
2104.26,0.06902
2081.12,0.06876
2057.97,0.06808
2034.83,0.06650
2011.68,0.06530
1988.54,0.06233
1965.39,0.06102
1942.25,0.06108
1919.1,0.06240
1895.96,0.06065
1872.81,0.06034
1849.67,0.06184
1826.52,0.06015
1803.38,0.05952
1780.23,0.06031
1757.09,0.05957
1733.94,0.06082
1710.8,0.06084
1687.65,0.06066
1664.51,0.06039
1641.36,0.05945
1618.22,0.06099
1595.07,0.06055
1571.93,0.05955
1548.78,0.05948
1525.64,0.05956
1502.49,0.05666
1479.35,0.05872
1456.2,0.05646
1433.06,0.06147
1409.91,0.06071
1386.77,0.05953
1363.62,0.06017
1340.48,0.06024
1317.33,0.05958
1294.19,0.05986
1271.04,0.06044
1247.9,0.05991
1224.75,0.05964
1201.61,0.05986
1178.46,0.06047
1155.32,0.06026
1132.17,0.05956
1109.03,0.05957
1085.88,0.05892
1062.74,0.05984
1039.59,0.05986
1016.45,0.06087
993.304,0.05866
970.159,0.05649
947.014,0.06140
923.869,0.05910
900.724,0.06106
877.579,0.05887
854.434,0.05783
831.289,0.05696
808.144,0.05555
784.999,0.05257
761.854,0.05575
738.709,0.05632
715.565,0.04843
692.42,0.07544
669.275,0.06357
646.13,0.06211
622.985,0.06007
599.84,0.05938

File: ABS_IS_S_220906_R5.dpt
7497.03,0.69552
7473.89,0.70796
7450.74,0.70338
7427.6,0.69343
7404.45,0.69847
7381.31,0.68863
7358.16,0.68675
7335.02,0.68381
7311.87,0.67587
7288.73,0.65613
7265.58,0.64456
7242.44,0.63001
7219.29,0.63527
7196.15,0.61921
7173,0.61269
7149.86,0.61385
7126.71,0.60383
7103.57,0.60148
7080.42,0.59575
7057.28,0.59213
7034.13,0.59694
7010.99,0.60524
6987.84,0.61069
6964.7,0.60921
6941.55,0.62253
6918.41,0.62273
6895.26,0.62953
6872.12,0.63002
6848.97,0.63658
6825.83,0.63867
6802.68,0.63592
6779.54,0.63702
6756.39,0.63932
6733.25,0.64053
6710.1,0.64223
6686.96,0.64904
6663.82,0.64657
6640.67,0.65218
6617.53,0.65023
6594.38,0.64879
6571.24,0.65230
6548.09,0.65332
6524.95,0.65518
6501.8,0.64952
6478.66,0.64976
6455.51,0.65283
6432.37,0.65054
6409.22,0.65542
6386.08,0.64896
6362.93,0.63806
6339.79,0.64095
6316.64,0.64120
6293.5,0.63496
6270.35,0.63164
6247.21,0.62529
6224.06,0.61370
6200.92,0.60370
6177.77,0.57947
6154.63,0.53497
6131.48,0.48229
6108.34,0.43761
6085.19,0.45988
6062.05,0.47532
6038.9,0.43995
6015.76,0.35731
5992.61,0.30082
5969.47,0.26671
5946.32,0.26616
5923.18,0.28112
5900.03,0.28249
5876.89,0.29513
5853.74,0.29401
5830.6,0.29366
5807.45,0.29097
5784.31,0.30204
5761.16,0.33240
5738.02,0.33726
5714.87,0.30930
5691.73,0.30183
5668.58,0.30459
5645.44,0.32244
5622.29,0.34031
5599.15,0.34576
5576,0.35616
5552.86,0.36263
5529.71,0.36457
5506.57,0.36711
5483.42,0.37459
5460.28,0.37365
5437.13,0.37460
5413.99,0.37112
5390.84,0.37319
5367.7,0.37294
5344.55,0.37995
5321.41,0.38206
5298.26,0.37883
5275.12,0.36197
5251.97,0.33887
5228.83,0.35023
5205.68,0.36869
5182.54,0.37062
5159.39,0.35861
5136.25,0.35196
5113.1,0.37653
5089.96,0.38241
5066.81,0.38489
5043.67,0.38554
5020.52,0.38452
4997.38,0.38135
4974.23,0.37667
4951.09,0.37340
4927.94,0.37277
4904.8,0.37114
4881.65,0.36097
4858.51,0.36184
4835.36,0.36127
4812.22,0.36384
4789.07,0.35537
4765.93,0.33636
4742.78,0.32367
4719.64,0.27131
4696.49,0.25511
4673.35,0.17411
4650.2,0.18913
4627.06,0.16795
4603.92,0.16846
4580.77,0.18786
4557.63,0.21474
4534.48,0.23227
4511.34,0.22700
4488.19,0.21175
4465.05,0.21286
4441.9,0.19710
4418.76,0.17938
4395.61,0.15027
4372.47,0.12711
4349.32,0.11512
4326.18,0.11312
4303.03,0.11715
4279.89,0.11040
4256.74,0.10245
4233.6,0.10291
4210.45,0.10560
4187.31,0.11056
4164.16,0.11525
4141.02,0.11510
4117.87,0.11165
4094.73,0.10827
4071.58,0.09497
4048.44,0.08824
4025.29,0.09574
4002.15,0.11008
3979,0.11517
3955.86,0.11788
3932.71,0.11642
3909.57,0.11704
3886.42,0.12067
3863.28,0.12111
3840.13,0.11947
3816.99,0.11735
3793.84,0.11971
3770.7,0.12168
3747.55,0.12272
3724.41,0.11478
3701.26,0.10843
3678.12,0.09359
3654.97,0.08168
3631.83,0.08349
3608.68,0.08533
3585.54,0.08547
3562.39,0.08125
3539.25,0.07882
3516.1,0.07969
3492.96,0.08055
3469.81,0.08201
3446.67,0.08165
3423.52,0.08176
3400.38,0.08149
3377.23,0.08115
3354.09,0.08138
3330.94,0.07933
3307.8,0.06795
3284.65,0.07062
3261.51,0.07773
3238.36,0.07804
3215.22,0.07665
3192.07,0.07600
3168.93,0.07423
3145.78,0.07372
3122.64,0.07025
3099.49,0.06378
3076.35,0.06018
3053.2,0.06028
3030.06,0.05866
3006.91,0.05941
2983.77,0.05945
2960.62,0.05798
2937.48,0.05854
2914.33,0.06211
2891.19,0.06107
2868.04,0.06140
2844.9,0.06187
2821.75,0.06414
2798.61,0.06574
2775.46,0.06749
2752.32,0.06896
2729.17,0.06841
2706.03,0.06892
2682.88,0.06845
2659.74,0.06799
2636.59,0.06750
2613.45,0.06864
2590.3,0.06916
2567.16,0.06900
2544.02,0.06870
2520.87,0.06839
2497.73,0.06922
2474.58,0.07036
2451.44,0.06994
2428.29,0.06954
2405.15,0.06896
2382,0.06869
2358.86,0.06821
2335.71,0.06653
2312.57,0.06629
2289.42,0.06686
2266.28,0.06485
2243.13,0.05967
2219.99,0.06551
2196.84,0.06760
2173.7,0.06855
2150.55,0.06914
2127.41,0.06920
2104.26,0.06856
2081.12,0.06843
2057.97,0.06718
2034.83,0.06649
2011.68,0.06497
1988.54,0.06169
1965.39,0.06089
1942.25,0.06062
1919.1,0.06227
1895.96,0.06018
1872.81,0.06035
1849.67,0.06130
1826.52,0.05972
1803.38,0.05898
1780.23,0.05996
1757.09,0.05941
1733.94,0.05932
1710.8,0.06063
1687.65,0.05995
1664.51,0.05995
1641.36,0.05934
1618.22,0.05955
1595.07,0.06024
1571.93,0.05965
1548.78,0.05856
1525.64,0.05840
1502.49,0.05624
1479.35,0.05827
1456.2,0.05579
1433.06,0.06079
1409.91,0.06035
1386.77,0.05955
1363.62,0.05949
1340.48,0.05977
1317.33,0.05977
1294.19,0.05982
1271.04,0.05975
1247.9,0.06005
1224.75,0.06013
1201.61,0.05955
1178.46,0.05992
1155.32,0.05946
1132.17,0.05902
1109.03,0.05964
1085.88,0.05921
1062.74,0.06045
1039.59,0.05936
1016.45,0.06038
993.304,0.05850
970.159,0.05642
947.014,0.06121
923.869,0.05856
900.724,0.06057
877.579,0.05945
854.434,0.05773
831.289,0.05724
808.144,0.05557
784.999,0.05236
761.854,0.05484
738.709,0.05779
715.565,0.04708
692.42,0.07492
669.275,0.06359
646.13,0.06170
622.985,0.06184
599.84,0.05893

File: ABS_IS_T_220906_R2.dpt
7497.03,0.02190
7473.89,0.03352
7450.74,0.02152
7427.6,0.01812
7404.45,0.02567
7381.31,0.02623
7358.16,0.02405
7335.02,0.03116
7311.87,0.02879
7288.73,0.02533
7265.58,0.01853
7242.44,0.02101
7219.29,0.02095
7196.15,0.02441
7173,0.02194
7149.86,0.02482
7126.71,0.02668
7103.57,0.02887
7080.42,0.02564
7057.28,0.02979
7034.13,0.02103
7010.99,0.02282
6987.84,0.02388
6964.7,0.02259
6941.55,0.02299
6918.41,0.02421
6895.26,0.01991
6872.12,0.02806
6848.97,0.02486
6825.83,0.01883
6802.68,0.02478
6779.54,0.02449
6756.39,0.02353
6733.25,0.02037
6710.1,0.02432
6686.96,0.02358
6663.82,0.01978
6640.67,0.02122
6617.53,0.02285
6594.38,0.02138
6571.24,0.02043
6548.09,0.02472
6524.95,0.02330
6501.8,0.02394
6478.66,0.01996
6455.51,0.02172
6432.37,0.02295
6409.22,0.02305
6386.08,0.02059
6362.93,0.02056
6339.79,0.02252
6316.64,0.02697
6293.5,0.02193
6270.35,0.02140
6247.21,0.02512
6224.06,0.01997
6200.92,0.02366
6177.77,0.02342
6154.63,0.02580
6131.48,0.02248
6108.34,0.02235
6085.19,0.02223
6062.05,0.02252
6038.9,0.02166
6015.76,0.02157
5992.61,0.02296
5969.47,0.02310
5946.32,0.02310
5923.18,0.02450
5900.03,0.02005
5876.89,0.01993
5853.74,0.02355
5830.6,0.02103
5807.45,0.02033
5784.31,0.02118
5761.16,0.02000
5738.02,0.02019
5714.87,0.02048
5691.73,0.02125
5668.58,0.02120
5645.44,0.02310
5622.29,0.02208
5599.15,0.02188
5576,0.02093
5552.86,0.02203
5529.71,0.02192
5506.57,0.02201
5483.42,0.02212
5460.28,0.02134
5437.13,0.02219
5413.99,0.02319
5390.84,0.02229
5367.7,0.02203
5344.55,0.02347
5321.41,0.02353
5298.26,0.02107
5275.12,0.02187
5251.97,0.02150
5228.83,0.02240
5205.68,0.02197
5182.54,0.02289
5159.39,0.02124
5136.25,0.02113
5113.1,0.02232
5089.96,0.02201
5066.81,0.02147
5043.67,0.02173
5020.52,0.02222
4997.38,0.02215
4974.23,0.02225
4951.09,0.02135
4927.94,0.02229
4904.8,0.02182
4881.65,0.02183
4858.51,0.02254
4835.36,0.02266
4812.22,0.02237
4789.07,0.02238
4765.93,0.02224
4742.78,0.02196
4719.64,0.02225
4696.49,0.02278
4673.35,0.02180
4650.2,0.02180
4627.06,0.02175
4603.92,0.02228
4580.77,0.02323
4557.63,0.02246
4534.48,0.02276
4511.34,0.02121
4488.19,0.02263
4465.05,0.02245
4441.9,0.02243
4418.76,0.02220
4395.61,0.02215
4372.47,0.02230
4349.32,0.02205
4326.18,0.02241
4303.03,0.02223
4279.89,0.02238
4256.74,0.02280
4233.6,0.02341
4210.45,0.02183
4187.31,0.02254
4164.16,0.02216
4141.02,0.02172
4117.87,0.02260
4094.73,0.02171
4071.58,0.02281
4048.44,0.02224
4025.29,0.02192
4002.15,0.02241
3979,0.02252
3955.86,0.02240
3932.71,0.02230
3909.57,0.02327
3886.42,0.02279
3863.28,0.02256
3840.13,0.02345
3816.99,0.02215
3793.84,0.02232
3770.7,0.02241
3747.55,0.02314
3724.41,0.02230
3701.26,0.02248
3678.12,0.02174
3654.97,0.02171
3631.83,0.02171
3608.68,0.02213
3585.54,0.02123
3562.39,0.02078
3539.25,0.02096
3516.1,0.02090
3492.96,0.02118
3469.81,0.02092
3446.67,0.02062
3423.52,0.02069
3400.38,0.02010
3377.23,0.02053
3354.09,0.02012
3330.94,0.01993
3307.8,0.02058
3284.65,0.02065
3261.51,0.02015
3238.36,0.02071
3215.22,0.02068
3192.07,0.02043
3168.93,0.02111
3145.78,0.02063
3122.64,0.02113
3099.49,0.02073
3076.35,0.02078
3053.2,0.02061
3030.06,0.02026
3006.91,0.02031
2983.77,0.01978
2960.62,0.01953
2937.48,0.01972
2914.33,0.02010
2891.19,0.02047
2868.04,0.02013
2844.9,0.02072
2821.75,0.02086
2798.61,0.02132
2775.46,0.02081
2752.32,0.02112
2729.17,0.02135
2706.03,0.02108
2682.88,0.02132
2659.74,0.02138
2636.59,0.02150
2613.45,0.02112
2590.3,0.02137
2567.16,0.02114
2544.02,0.02121
2520.87,0.02151
2497.73,0.02112
2474.58,0.02085
2451.44,0.02113
2428.29,0.02105
2405.15,0.02104
2382,0.02148
2358.86,0.02139
2335.71,0.02073
2312.57,0.02124
2289.42,0.02094
2266.28,0.02086
2243.13,0.02078
2219.99,0.02087
2196.84,0.02084
2173.7,0.02057
2150.55,0.02068
2127.41,0.02114
2104.26,0.02068
2081.12,0.02080
2057.97,0.02095
2034.83,0.02080
2011.68,0.02063
1988.54,0.02095
1965.39,0.02059
1942.25,0.02070
1919.1,0.02035
1895.96,0.02070
1872.81,0.02039
1849.67,0.02028
1826.52,0.01989
1803.38,0.01958
1780.23,0.01892
1757.09,0.01739
1733.94,0.01959
1710.8,0.02051
1687.65,0.01903
1664.51,0.01849
1641.36,0.01859
1618.22,0.01878
1595.07,0.01870
1571.93,0.01813
1548.78,0.01854
1525.64,0.01906
1502.49,0.01888
1479.35,0.01868
1456.2,0.01906
1433.06,0.01859
1409.91,0.01858
1386.77,0.01802
1363.62,0.01826
1340.48,0.01768
1317.33,0.01732
1294.19,0.01805
1271.04,0.01939
1247.9,0.02049
1224.75,0.01903
1201.61,0.01813
1178.46,0.01706
1155.32,0.01700
1132.17,0.01819
1109.03,0.01825
1085.88,0.01790
1062.74,0.01957
1039.59,0.01985
1016.45,0.02006
993.304,0.02137
970.159,0.02027
947.014,0.01978
923.869,0.01876
900.724,0.01878
877.579,0.01892
854.434,0.01840
831.289,0.01830
808.144,0.01884
784.999,0.01795
761.854,0.01865
738.709,0.01831
715.565,0.01852
692.42,0.01860
669.275,0.01746
646.13,0.01611
622.985,0.01610
599.84,0.01570

File: ABS_IS_T_220906_R5.dpt
7497.03,0.02281
7473.89,0.01532
7450.74,0.01972
7427.6,0.02826
7404.45,0.02501
7381.31,0.01063
7358.16,0.02172
7335.02,0.03130
7311.87,0.03040
7288.73,0.02030
7265.58,0.02227
7242.44,0.01711
7219.29,0.02514
7196.15,0.01603
7173,0.02783
7149.86,0.02128
7126.71,0.01759
7103.57,0.02450
7080.42,0.02334
7057.28,0.03035
7034.13,0.02704
7010.99,0.02468
6987.84,0.02082
6964.7,0.02746
6941.55,0.02372
6918.41,0.02197
6895.26,0.02473
6872.12,0.03270
6848.97,0.02249
6825.83,0.02400
6802.68,0.02552
6779.54,0.02701
6756.39,0.02477
6733.25,0.02077
6710.1,0.01952
6686.96,0.02178
6663.82,0.02101
6640.67,0.02411
6617.53,0.02543
6594.38,0.02138
6571.24,0.02116
6548.09,0.02377
6524.95,0.02336
6501.8,0.02290
6478.66,0.02184
6455.51,0.02489
6432.37,0.02475
6409.22,0.02267
6386.08,0.01908
6362.93,0.02419
6339.79,0.02118
6316.64,0.02088
6293.5,0.02258
6270.35,0.02138
6247.21,0.02117
6224.06,0.02008
6200.92,0.02371
6177.77,0.02089
6154.63,0.01979
6131.48,0.01986
6108.34,0.01965
6085.19,0.02163
6062.05,0.01929
6038.9,0.02429
6015.76,0.02170
5992.61,0.02058
5969.47,0.02068
5946.32,0.02211
5923.18,0.02211
5900.03,0.02061
5876.89,0.01804
5853.74,0.02153
5830.6,0.02360
5807.45,0.02139
5784.31,0.02162
5761.16,0.02250
5738.02,0.02184
5714.87,0.02113
5691.73,0.02178
5668.58,0.02228
5645.44,0.02265
5622.29,0.02361
5599.15,0.02430
5576,0.02308
5552.86,0.02011
5529.71,0.02244
5506.57,0.02259
5483.42,0.02170
5460.28,0.02270
5437.13,0.02358
5413.99,0.02280
5390.84,0.02255
5367.7,0.02189
5344.55,0.02214
5321.41,0.02085
5298.26,0.02184
5275.12,0.02214
5251.97,0.02146
5228.83,0.02199
5205.68,0.02083
5182.54,0.02172
5159.39,0.02292
5136.25,0.02236
5113.1,0.02223
5089.96,0.02167
5066.81,0.02159
5043.67,0.02179
5020.52,0.02304
4997.38,0.02204
4974.23,0.02204
4951.09,0.02194
4927.94,0.02267
4904.8,0.02256
4881.65,0.02152
4858.51,0.02186
4835.36,0.02208
4812.22,0.02323
4789.07,0.02200
4765.93,0.02304
4742.78,0.02291
4719.64,0.02241
4696.49,0.02377
4673.35,0.02373
4650.2,0.02312
4627.06,0.02277
4603.92,0.02203
4580.77,0.02268
4557.63,0.02348
4534.48,0.02232
4511.34,0.02227
4488.19,0.02262
4465.05,0.02270
4441.9,0.02315
4418.76,0.02269
4395.61,0.02267
4372.47,0.02244
4349.32,0.02342
4326.18,0.02263
4303.03,0.02282
4279.89,0.02338
4256.74,0.02263
4233.6,0.02309
4210.45,0.02267
4187.31,0.02253
4164.16,0.02250
4141.02,0.02281
4117.87,0.02293
4094.73,0.02254
4071.58,0.02311
4048.44,0.02312
4025.29,0.02282
4002.15,0.02254
3979,0.02283
3955.86,0.02264
3932.71,0.02216
3909.57,0.02231
3886.42,0.02216
3863.28,0.02264
3840.13,0.02291
3816.99,0.02329
3793.84,0.02279
3770.7,0.02320
3747.55,0.02403
3724.41,0.02283
3701.26,0.02246
3678.12,0.02315
3654.97,0.02255
3631.83,0.02299
3608.68,0.02191
3585.54,0.02208
3562.39,0.02151
3539.25,0.02208
3516.1,0.02145
3492.96,0.02095
3469.81,0.02183
3446.67,0.02082
3423.52,0.02077
3400.38,0.02059
3377.23,0.02138
3354.09,0.02055
3330.94,0.01999
3307.8,0.02097
3284.65,0.02091
3261.51,0.02105
3238.36,0.02059
3215.22,0.02136
3192.07,0.02188
3168.93,0.02085
3145.78,0.02138
3122.64,0.02119
3099.49,0.02085
3076.35,0.02114
3053.2,0.02080
3030.06,0.02085
3006.91,0.02117
2983.77,0.01991
2960.62,0.01988
2937.48,0.01957
2914.33,0.02060
2891.19,0.02053
2868.04,0.02049
2844.9,0.02125
2821.75,0.02170
2798.61,0.02144
2775.46,0.02158
2752.32,0.02137
2729.17,0.02138
2706.03,0.02173
2682.88,0.02214
2659.74,0.02115
2636.59,0.02138
2613.45,0.02157
2590.3,0.02145
2567.16,0.02174
2544.02,0.02133
2520.87,0.02143
2497.73,0.02136
2474.58,0.02119
2451.44,0.02128
2428.29,0.02169
2405.15,0.02158
2382,0.02166
2358.86,0.02117
2335.71,0.02155
2312.57,0.02148
2289.42,0.02126
2266.28,0.02123
2243.13,0.02118
2219.99,0.02098
2196.84,0.02134
2173.7,0.02124
2150.55,0.02124
2127.41,0.02100
2104.26,0.02127
2081.12,0.02153
2057.97,0.02105
2034.83,0.02094
2011.68,0.02090
1988.54,0.02129
1965.39,0.02098
1942.25,0.02091
1919.1,0.02084
1895.96,0.02091
1872.81,0.02084
1849.67,0.02066
1826.52,0.02073
1803.38,0.01988
1780.23,0.01932
1757.09,0.01796
1733.94,0.02017
1710.8,0.02062
1687.65,0.01967
1664.51,0.01878
1641.36,0.01859
1618.22,0.01896
1595.07,0.01907
1571.93,0.01854
1548.78,0.01851
1525.64,0.01948
1502.49,0.01853
1479.35,0.01902
1456.2,0.01912
1433.06,0.01860
1409.91,0.01869
1386.77,0.01834
1363.62,0.01840
1340.48,0.01805
1317.33,0.01733
1294.19,0.01788
1271.04,0.01961
1247.9,0.02012
1224.75,0.01926
1201.61,0.01828
1178.46,0.01767
1155.32,0.01771
1132.17,0.01780
1109.03,0.01918
1085.88,0.01838
1062.74,0.01931
1039.59,0.01971
1016.45,0.01957
993.304,0.02108
970.159,0.02097
947.014,0.02001
923.869,0.01928
900.724,0.01917
877.579,0.01926
854.434,0.01896
831.289,0.01861
808.144,0.01896
784.999,0.01828
761.854,0.01853
738.709,0.01876
715.565,0.01850
692.42,0.01877
669.275,0.01775
646.13,0.01632
622.985,0.01606
599.84,0.01506