Folder: fsri_materials_database/01_Data/Bamboo_Rug/FTIR/IS (part 2)

File: Bamboo_Rug_IS_S_220822_R5.dpt
7497.03,0.76721
7473.89,0.76415
7450.74,0.74505
7427.6,0.72961
7404.45,0.72091
7381.31,0.72241
7358.16,0.70915
7335.02,0.69645
7311.87,0.69124
7288.73,0.68462
7265.58,0.69099
7242.44,0.67692
7219.29,0.67298
7196.15,0.66137
7173,0.66115
7149.86,0.63570
7126.71,0.61984
7103.57,0.59085
7080.42,0.57970
7057.28,0.54894
7034.13,0.52675
7010.99,0.51536
6987.84,0.49552
6964.7,0.49329
6941.55,0.48960
6918.41,0.48492
6895.26,0.48107
6872.12,0.48030
6848.97,0.47664
6825.83,0.47906
6802.68,0.47811
6779.54,0.48058
6756.39,0.47302
6733.25,0.48226
6710.1,0.48388
6686.96,0.48592
6663.82,0.49146
6640.67,0.49888
6617.53,0.49653
6594.38,0.50518
6571.24,0.51078
6548.09,0.51504
6524.95,0.51375
6501.8,0.51547
6478.66,0.51703
6455.51,0.52012
6432.37,0.52662
6409.22,0.52200
6386.08,0.52586
6362.93,0.52670
6339.79,0.53056
6316.64,0.52912
6293.5,0.53071
6270.35,0.53829
6247.21,0.54766
6224.06,0.55137
6200.92,0.56144
6177.77,0.56817
6154.63,0.57248
6131.48,0.57598
6108.34,0.57709
6085.19,0.57828
6062.05,0.57570
6038.9,0.57159
6015.76,0.56221
5992.61,0.55793
5969.47,0.55170
5946.32,0.54791
5923.18,0.55059
5900.03,0.54648
5876.89,0.54521
5853.74,0.54436
5830.6,0.54058
5807.45,0.53626
5784.31,0.53934
5761.16,0.54235
5738.02,0.54395
5714.87,0.54491
5691.73,0.54422
5668.58,0.53950
5645.44,0.53977
5622.29,0.53759
5599.15,0.53820
5576,0.54129
5552.86,0.54499
5529.71,0.54720
5506.57,0.54765
5483.42,0.55154
5460.28,0.55376
5437.13,0.55670
5413.99,0.56203
5390.84,0.56331
5367.7,0.56236
5344.55,0.55605
5321.41,0.53996
5298.26,0.50997
5275.12,0.45905
5251.97,0.40961
5228.83,0.37798
5205.68,0.36479
5182.54,0.36607
5159.39,0.37576
5136.25,0.38769
5113.1,0.40251
5089.96,0.41533
5066.81,0.42791
5043.67,0.43866
5020.52,0.44931
4997.38,0.45399
4974.23,0.45064
4951.09,0.44097
4927.94,0.42301
4904.8,0.40313
4881.65,0.38208
4858.51,0.36593
4835.36,0.35098
4812.22,0.34016
4789.07,0.33383
4765.93,0.33216
4742.78,0.33143
4719.64,0.33292
4696.49,0.33428
4673.35,0.34116
4650.2,0.35112
4627.06,0.35849
4603.92,0.36680
4580.77,0.37487
4557.63,0.38035
4534.48,0.38547
4511.34,0.38464
4488.19,0.37521
4465.05,0.34822
4441.9,0.31830
4418.76,0.29931
4395.61,0.29304
4372.47,0.29918
4349.32,0.30059
4326.18,0.29377
4303.03,0.28384
4279.89,0.28114
4256.74,0.28500
4233.6,0.28750
4210.45,0.28915
4187.31,0.29056
4164.16,0.29328
4141.02,0.28715
4117.87,0.27364
4094.73,0.25773
4071.58,0.23959
4048.44,0.22288
4025.29,0.21256
4002.15,0.21173
3979,0.21546
3955.86,0.22302
3932.71,0.23110
3909.57,0.23941
3886.42,0.24810
3863.28,0.25727
3840.13,0.26692
3816.99,0.26961
3793.84,0.26720
3770.7,0.26129
3747.55,0.25223
3724.41,0.23769
3701.26,0.21016
3678.12,0.16230
3654.97,0.11502
3631.83,0.08873
3608.68,0.07132
3585.54,0.06066
3562.39,0.05261
3539.25,0.04698
3516.1,0.04371
3492.96,0.04132
3469.81,0.03962
3446.67,0.03955
3423.52,0.03930
3400.38,0.04004
3377.23,0.04113
3354.09,0.04264
3330.94,0.04362
3307.8,0.04560
3284.65,0.04706
3261.51,0.05023
3238.36,0.05354
3215.22,0.05613
3192.07,0.05981
3168.93,0.06347
3145.78,0.06644
3122.64,0.07043
3099.49,0.07371
3076.35,0.07646
3053.2,0.08001
3030.06,0.08080
3006.91,0.07746
2983.77,0.07104
2960.62,0.06242
2937.48,0.05737
2914.33,0.05753
2891.19,0.05888
2868.04,0.06276
2844.9,0.06951
2821.75,0.08175
2798.61,0.09001
2775.46,0.09382
2752.32,0.09642
2729.17,0.09821
2706.03,0.10246
2682.88,0.10655
2659.74,0.11071
2636.59,0.11417
2613.45,0.11897
2590.3,0.12293
2567.16,0.12517
2544.02,0.12793
2520.87,0.13057
2497.73,0.13410
2474.58,0.13905
2451.44,0.14417
2428.29,0.15080
2405.15,0.15950
2382,0.16631
2358.86,0.17144
2335.71,0.17619
2312.57,0.17759
2289.42,0.17724
2266.28,0.17492
2243.13,0.17069
2219.99,0.17070
2196.84,0.16692
2173.7,0.15628
2150.55,0.14847
2127.41,0.14694
2104.26,0.14919
2081.12,0.15191
2057.97,0.15220
2034.83,0.15522
2011.68,0.16353
1988.54,0.16952
1965.39,0.16977
1942.25,0.17071
1919.1,0.17711
1895.96,0.17733
1872.81,0.17705
1849.67,0.16985
1826.52,0.15696
1803.38,0.13069
1780.23,0.09402
1757.09,0.05380
1733.94,0.04698
1710.8,0.05538
1687.65,0.05992
1664.51,0.05731
1641.36,0.05492
1618.22,0.05342
1595.07,0.05032
1571.93,0.06701
1548.78,0.07272
1525.64,0.06114
1502.49,0.05010
1479.35,0.05141
1456.2,0.04309
1433.06,0.04213
1409.91,0.04521
1386.77,0.04047
1363.62,0.04263
1340.48,0.04164
1317.33,0.04240
1294.19,0.04301
1271.04,0.03798
1247.9,0.03762
1224.75,0.04252
1201.61,0.04129
1178.46,0.03445
1155.32,0.04081
1132.17,0.03337
1109.03,0.04051
1085.88,0.04026
1062.74,0.05733
1039.59,0.06830
1016.45,0.07058
993.304,0.07081
970.159,0.07884
947.014,0.09024
923.869,0.08740
900.724,0.07815
877.579,0.08649
854.434,0.08482
831.289,0.07960
808.144,0.08371
784.999,0.08109
761.854,0.07478
738.709,0.06891
715.565,0.06394
692.42,0.06331
669.275,0.05732
646.13,0.05830
622.985,0.05656
599.84,0.06131

File: Bamboo_Rug_IS_S_220822_R6.dpt
7497.03,0.76628
7473.89,0.76103
7450.74,0.74177
7427.6,0.72841
7404.45,0.71915
7381.31,0.72083
7358.16,0.70802
7335.02,0.69282
7311.87,0.68927
7288.73,0.68514
7265.58,0.68377
7242.44,0.67617
7219.29,0.67169
7196.15,0.66274
7173,0.64934
7149.86,0.63029
7126.71,0.62305
7103.57,0.59712
7080.42,0.56796
7057.28,0.54901
7034.13,0.53513
7010.99,0.51180
6987.84,0.50338
6964.7,0.48864
6941.55,0.48969
6918.41,0.48777
6895.26,0.48406
6872.12,0.48077
6848.97,0.47982
6825.83,0.47843
6802.68,0.47827
6779.54,0.47761
6756.39,0.48278
6733.25,0.48163
6710.1,0.48592
6686.96,0.48865
6663.82,0.49349
6640.67,0.49514
6617.53,0.49859
6594.38,0.50439
6571.24,0.50593
6548.09,0.51677
6524.95,0.51670
6501.8,0.51814
6478.66,0.52227
6455.51,0.52205
6432.37,0.52431
6409.22,0.52500
6386.08,0.52600
6362.93,0.52685
6339.79,0.52865
6316.64,0.53237
6293.5,0.53378
6270.35,0.54069
6247.21,0.55009
6224.06,0.55105
6200.92,0.55993
6177.77,0.56929
6154.63,0.57284
6131.48,0.57821
6108.34,0.57923
6085.19,0.57922
6062.05,0.57267
6038.9,0.57358
6015.76,0.56495
5992.61,0.55930
5969.47,0.55259
5946.32,0.54942
5923.18,0.55134
5900.03,0.54787
5876.89,0.54531
5853.74,0.54373
5830.6,0.54117
5807.45,0.53527
5784.31,0.53710
5761.16,0.54527
5738.02,0.54449
5714.87,0.54370
5691.73,0.54400
5668.58,0.54320
5645.44,0.54065
5622.29,0.53747
5599.15,0.53738
5576,0.54073
5552.86,0.54465
5529.71,0.54612
5506.57,0.54927
5483.42,0.55016
5460.28,0.55308
5437.13,0.55972
5413.99,0.56359
5390.84,0.56548
5367.7,0.56090
5344.55,0.55757
5321.41,0.53982
5298.26,0.51166
5275.12,0.46085
5251.97,0.40948
5228.83,0.38210
5205.68,0.36784
5182.54,0.36870
5159.39,0.37699
5136.25,0.39068
5113.1,0.40529
5089.96,0.41691
5066.81,0.43126
5043.67,0.44187
5020.52,0.45187
4997.38,0.45583
4974.23,0.45287
4951.09,0.44264
4927.94,0.42424
4904.8,0.40258
4881.65,0.38219
4858.51,0.36511
4835.36,0.34983
4812.22,0.34097
4789.07,0.33632
4765.93,0.33202
4742.78,0.33182
4719.64,0.33286
4696.49,0.33540
4673.35,0.34113
4650.2,0.35149
4627.06,0.35804
4603.92,0.36775
4580.77,0.37585
4557.63,0.37952
4534.48,0.38582
4511.34,0.38569
4488.19,0.37467
4465.05,0.34862
4441.9,0.31865
4418.76,0.29903
4395.61,0.29332
4372.47,0.29881
4349.32,0.30157
4326.18,0.29387
4303.03,0.28480
4279.89,0.28121
4256.74,0.28544
4233.6,0.28730
4210.45,0.28961
4187.31,0.29090
4164.16,0.29317
4141.02,0.28754
4117.87,0.27434
4094.73,0.25739
4071.58,0.24067
4048.44,0.22344
4025.29,0.21260
4002.15,0.21243
3979,0.21624
3955.86,0.22366
3932.71,0.23220
3909.57,0.24142
3886.42,0.25012
3863.28,0.25852
3840.13,0.26721
3816.99,0.27059
3793.84,0.26801
3770.7,0.26226
3747.55,0.25376
3724.41,0.23849
3701.26,0.21130
3678.12,0.16386
3654.97,0.11528
3631.83,0.08932
3608.68,0.07295
3585.54,0.06046
3562.39,0.05260
3539.25,0.04757
3516.1,0.04386
3492.96,0.04156
3469.81,0.04015
3446.67,0.03993
3423.52,0.03963
3400.38,0.04024
3377.23,0.04157
3354.09,0.04254
3330.94,0.04361
3307.8,0.04563
3284.65,0.04726
3261.51,0.05001
3238.36,0.05305
3215.22,0.05636
3192.07,0.05945
3168.93,0.06337
3145.78,0.06646
3122.64,0.07054
3099.49,0.07397
3076.35,0.07643
3053.2,0.08036
3030.06,0.08196
3006.91,0.07850
2983.77,0.07190
2960.62,0.06265
2937.48,0.05728
2914.33,0.05758
2891.19,0.05894
2868.04,0.06244
2844.9,0.06972
2821.75,0.08214
2798.61,0.09016
2775.46,0.09402
2752.32,0.09618
2729.17,0.09909
2706.03,0.10287
2682.88,0.10705
2659.74,0.11090
2636.59,0.11465
2613.45,0.11902
2590.3,0.12293
2567.16,0.12543
2544.02,0.12806
2520.87,0.13074
2497.73,0.13466
2474.58,0.13956
2451.44,0.14443
2428.29,0.15129
2405.15,0.15993
2382,0.16704
2358.86,0.17218
2335.71,0.17658
2312.57,0.17882
2289.42,0.17760
2266.28,0.17604
2243.13,0.17117
2219.99,0.17131
2196.84,0.16737
2173.7,0.15687
2150.55,0.14939
2127.41,0.14758
2104.26,0.15002
2081.12,0.15247
2057.97,0.15296
2034.83,0.15604
2011.68,0.16450
1988.54,0.17020
1965.39,0.16986
1942.25,0.17136
1919.1,0.17785
1895.96,0.17836
1872.81,0.17796
1849.67,0.17042
1826.52,0.15741
1803.38,0.13137
1780.23,0.09435
1757.09,0.05371
1733.94,0.04678
1710.8,0.05532
1687.65,0.06015
1664.51,0.05717
1641.36,0.05550
1618.22,0.05352
1595.07,0.05057
1571.93,0.06667
1548.78,0.07290
1525.64,0.06145
1502.49,0.04970
1479.35,0.05107
1456.2,0.04242
1433.06,0.04175
1409.91,0.04503
1386.77,0.04059
1363.62,0.04210
1340.48,0.04142
1317.33,0.04246
1294.19,0.04332
1271.04,0.03808
1247.9,0.03798
1224.75,0.04212
1201.61,0.04142
1178.46,0.03413
1155.32,0.04078
1132.17,0.03302
1109.03,0.04081
1085.88,0.04043
1062.74,0.05681
1039.59,0.06829
1016.45,0.07073
993.304,0.07205
970.159,0.07901
947.014,0.09009
923.869,0.08745
900.724,0.07887
877.579,0.08663
854.434,0.08535
831.289,0.08080
808.144,0.08498
784.999,0.08192
761.854,0.07529
738.709,0.06938
715.565,0.06547
692.42,0.06385
669.275,0.05787
646.13,0.05983
622.985,0.05512
599.84,0.06078

File: Bamboo_Rug_IS_S_220822_R7.dpt
7497.03,0.77648
7473.89,0.76174
7450.74,0.75550
7427.6,0.72945
7404.45,0.72533
7381.31,0.71116
7358.16,0.70636
7335.02,0.69106
7311.87,0.68787
7288.73,0.68752
7265.58,0.68580
7242.44,0.67546
7219.29,0.67821
7196.15,0.67093
7173,0.65584
7149.86,0.63322
7126.71,0.62422
7103.57,0.59603
7080.42,0.57695
7057.28,0.55393
7034.13,0.53267
7010.99,0.51274
6987.84,0.50412
6964.7,0.49342
6941.55,0.48738
6918.41,0.48449
6895.26,0.47947
6872.12,0.48304
6848.97,0.48010
6825.83,0.47975
6802.68,0.48010
6779.54,0.47883
6756.39,0.47988
6733.25,0.48456
6710.1,0.48681
6686.96,0.48955
6663.82,0.48824
6640.67,0.49591
6617.53,0.49912
6594.38,0.50951
6571.24,0.50596
6548.09,0.51565
6524.95,0.51631
6501.8,0.52040
6478.66,0.52001
6455.51,0.52532
6432.37,0.52726
6409.22,0.52221
6386.08,0.52715
6362.93,0.53135
6339.79,0.53224
6316.64,0.53467
6293.5,0.53805
6270.35,0.54106
6247.21,0.55088
6224.06,0.55248
6200.92,0.56331
6177.77,0.56929
6154.63,0.57332
6131.48,0.57446
6108.34,0.57750
6085.19,0.57880
6062.05,0.57722
6038.9,0.57392
6015.76,0.56662
5992.61,0.56054
5969.47,0.55323
5946.32,0.55123
5923.18,0.55486
5900.03,0.54969
5876.89,0.54861
5853.74,0.54969
5830.6,0.54265
5807.45,0.53425
5784.31,0.54207
5761.16,0.54536
5738.02,0.54721
5714.87,0.55015
5691.73,0.54525
5668.58,0.54295
5645.44,0.53967
5622.29,0.54161
5599.15,0.54013
5576,0.54113
5552.86,0.54653
5529.71,0.54752
5506.57,0.55019
5483.42,0.55094
5460.28,0.55277
5437.13,0.56014
5413.99,0.56501
5390.84,0.56619
5367.7,0.56297
5344.55,0.55911
5321.41,0.54302
5298.26,0.51153
5275.12,0.46600
5251.97,0.41422
5228.83,0.38310
5205.68,0.37074
5182.54,0.37098
5159.39,0.38060
5136.25,0.39416
5113.1,0.40866
5089.96,0.42035
5066.81,0.43400
5043.67,0.44619
5020.52,0.45378
4997.38,0.45720
4974.23,0.45599
4951.09,0.44358
4927.94,0.42427
4904.8,0.40506
4881.65,0.38526
4858.51,0.36645
4835.36,0.35116
4812.22,0.34127
4789.07,0.33664
4765.93,0.33330
4742.78,0.33173
4719.64,0.33407
4696.49,0.33668
4673.35,0.34284
4650.2,0.35172
4627.06,0.36016
4603.92,0.36855
4580.77,0.37666
4557.63,0.38113
4534.48,0.38655
4511.34,0.38708
4488.19,0.37522
4465.05,0.34935
4441.9,0.31997
4418.76,0.29956
4395.61,0.29489
4372.47,0.30052
4349.32,0.30063
4326.18,0.29377
4303.03,0.28490
4279.89,0.28259
4256.74,0.28558
4233.6,0.28852
4210.45,0.29062
4187.31,0.29163
4164.16,0.29475
4141.02,0.28868
4117.87,0.27508
4094.73,0.25931
4071.58,0.24006
4048.44,0.22443
4025.29,0.21413
4002.15,0.21300
3979,0.21688
3955.86,0.22468
3932.71,0.23272
3909.57,0.24188
3886.42,0.25034
3863.28,0.25906
3840.13,0.26903
3816.99,0.27128
3793.84,0.26949
3770.7,0.26417
3747.55,0.25525
3724.41,0.24122
3701.26,0.21340
3678.12,0.16611
3654.97,0.11775
3631.83,0.09020
3608.68,0.07346
3585.54,0.06050
3562.39,0.05314
3539.25,0.04732
3516.1,0.04400
3492.96,0.04166
3469.81,0.03976
3446.67,0.03916
3423.52,0.03948
3400.38,0.04055
3377.23,0.04103
3354.09,0.04194
3330.94,0.04387
3307.8,0.04590
3284.65,0.04801
3261.51,0.05056
3238.36,0.05326
3215.22,0.05607
3192.07,0.05972
3168.93,0.06285
3145.78,0.06720
3122.64,0.07042
3099.49,0.07416
3076.35,0.07710
3053.2,0.08053
3030.06,0.08127
3006.91,0.07832
2983.77,0.07202
2960.62,0.06218
2937.48,0.05699
2914.33,0.05747
2891.19,0.05883
2868.04,0.06213
2844.9,0.06969
2821.75,0.08203
2798.61,0.08984
2775.46,0.09473
2752.32,0.09696
2729.17,0.09878
2706.03,0.10295
2682.88,0.10739
2659.74,0.11134
2636.59,0.11488
2613.45,0.11948
2590.3,0.12366
2567.16,0.12628
2544.02,0.12806
2520.87,0.13118
2497.73,0.13502
2474.58,0.14010
2451.44,0.14459
2428.29,0.15152
2405.15,0.16043
2382,0.16775
2358.86,0.17286
2335.71,0.17768
2312.57,0.17938
2289.42,0.17872
2266.28,0.17620
2243.13,0.17181
2219.99,0.17198
2196.84,0.16824
2173.7,0.15759
2150.55,0.15000
2127.41,0.14803
2104.26,0.15076
2081.12,0.15388
2057.97,0.15375
2034.83,0.15654
2011.68,0.16518
1988.54,0.17121
1965.39,0.17113
1942.25,0.17248
1919.1,0.17859
1895.96,0.17911
1872.81,0.17864
1849.67,0.17108
1826.52,0.15748
1803.38,0.13141
1780.23,0.09419
1757.09,0.05376
1733.94,0.04710
1710.8,0.05568
1687.65,0.06053
1664.51,0.05760
1641.36,0.05514
1618.22,0.05345
1595.07,0.05052
1571.93,0.06699
1548.78,0.07306
1525.64,0.06155
1502.49,0.04986
1479.35,0.05101
1456.2,0.04278
1433.06,0.04201
1409.91,0.04472
1386.77,0.04039
1363.62,0.04266
1340.48,0.04106
1317.33,0.04201
1294.19,0.04322
1271.04,0.03803
1247.9,0.03778
1224.75,0.04204
1201.61,0.04191
1178.46,0.03388
1155.32,0.04088
1132.17,0.03338
1109.03,0.04066
1085.88,0.04020
1062.74,0.05655
1039.59,0.06797
1016.45,0.07040
993.304,0.07090
970.159,0.07903
947.014,0.09019
923.869,0.08688
900.724,0.07850
877.579,0.08662
854.434,0.08502
831.289,0.08109
808.144,0.08437
784.999,0.08218
761.854,0.07542
738.709,0.06902
715.565,0.06407
692.42,0.06348
669.275,0.05915
646.13,0.05873
622.985,0.05734
599.84,0.06318

File: Bamboo_Rug_IS_S_220822_R8.dpt
7497.03,0.75866
7473.89,0.75653
7450.74,0.74552
7427.6,0.73882
7404.45,0.72741
7381.31,0.71623
7358.16,0.69722
7335.02,0.69695
7311.87,0.69187
7288.73,0.68087
7265.58,0.67571
7242.44,0.67330
7219.29,0.67985
7196.15,0.65817
7173,0.65633
7149.86,0.63282
7126.71,0.61556
7103.57,0.59263
7080.42,0.57598
7057.28,0.55608
7034.13,0.52815
7010.99,0.51478
6987.84,0.50187
6964.7,0.49514
6941.55,0.48663
6918.41,0.48766
6895.26,0.47972
6872.12,0.47676
6848.97,0.48369
6825.83,0.48124
6802.68,0.48048
6779.54,0.48049
6756.39,0.48173
6733.25,0.48534
6710.1,0.48509
6686.96,0.49125
6663.82,0.49302
6640.67,0.49493
6617.53,0.49830
6594.38,0.50766
6571.24,0.51246
6548.09,0.51354
6524.95,0.51733
6501.8,0.52344
6478.66,0.51996
6455.51,0.52212
6432.37,0.52459
6409.22,0.52918
6386.08,0.52992
6362.93,0.53134
6339.79,0.53250
6316.64,0.53458
6293.5,0.53658
6270.35,0.54243
6247.21,0.54707
6224.06,0.55485
6200.92,0.56164
6177.77,0.57051
6154.63,0.57543
6131.48,0.57513
6108.34,0.58136
6085.19,0.58020
6062.05,0.57958
6038.9,0.57523
6015.76,0.56861
5992.61,0.55902
5969.47,0.55584
5946.32,0.55060
5923.18,0.55019
5900.03,0.54800
5876.89,0.54948
5853.74,0.54745
5830.6,0.54380
5807.45,0.53769
5784.31,0.53955
5761.16,0.54560
5738.02,0.54924
5714.87,0.54834
5691.73,0.54448
5668.58,0.54118
5645.44,0.54088
5622.29,0.54259
5599.15,0.54044
5576,0.54238
5552.86,0.54452
5529.71,0.55015
5506.57,0.55179
5483.42,0.55334
5460.28,0.55641
5437.13,0.56213
5413.99,0.56505
5390.84,0.56581
5367.7,0.56505
5344.55,0.55919
5321.41,0.54224
5298.26,0.51276
5275.12,0.46632
5251.97,0.41592
5228.83,0.38546
5205.68,0.37241
5182.54,0.37301
5159.39,0.38131
5136.25,0.39706
5113.1,0.41003
5089.96,0.42246
5066.81,0.43502
5043.67,0.44654
5020.52,0.45565
4997.38,0.45907
4974.23,0.45682
4951.09,0.44488
4927.94,0.42562
4904.8,0.40446
4881.65,0.38380
4858.51,0.36580
4835.36,0.35235
4812.22,0.34240
4789.07,0.33716
4765.93,0.33353
4742.78,0.33178
4719.64,0.33460
4696.49,0.33619
4673.35,0.34269
4650.2,0.35102
4627.06,0.36025
4603.92,0.36950
4580.77,0.37676
4557.63,0.38140
4534.48,0.38563
4511.34,0.38676
4488.19,0.37634
4465.05,0.35039
4441.9,0.32008
4418.76,0.30065
4395.61,0.29393
4372.47,0.29934
4349.32,0.30071
4326.18,0.29464
4303.03,0.28548
4279.89,0.28243
4256.74,0.28593
4233.6,0.28896
4210.45,0.29102
4187.31,0.29163
4164.16,0.29420
4141.02,0.28859
4117.87,0.27661
4094.73,0.25882
4071.58,0.24122
4048.44,0.22480
4025.29,0.21409
4002.15,0.21286
3979,0.21771
3955.86,0.22476
3932.71,0.23322
3909.57,0.24272
3886.42,0.25045
3863.28,0.25996
3840.13,0.27010
3816.99,0.27188
3793.84,0.26979
3770.7,0.26526
3747.55,0.25666
3724.41,0.24160
3701.26,0.21413
3678.12,0.16689
3654.97,0.11800
3631.83,0.09100
3608.68,0.07347
3585.54,0.06154
3562.39,0.05308
3539.25,0.04773
3516.1,0.04428
3492.96,0.04107
3469.81,0.04025
3446.67,0.03936
3423.52,0.03887
3400.38,0.03984
3377.23,0.04133
3354.09,0.04135
3330.94,0.04385
3307.8,0.04573
3284.65,0.04753
3261.51,0.04987
3238.36,0.05348
3215.22,0.05681
3192.07,0.06009
3168.93,0.06382
3145.78,0.06672
3122.64,0.07035
3099.49,0.07425
3076.35,0.07785
3053.2,0.08119
3030.06,0.08110
3006.91,0.07846
2983.77,0.07185
2960.62,0.06277
2937.48,0.05686
2914.33,0.05778
2891.19,0.05894
2868.04,0.06225
2844.9,0.06965
2821.75,0.08211
2798.61,0.09050
2775.46,0.09439
2752.32,0.09676
2729.17,0.09856
2706.03,0.10301
2682.88,0.10744
2659.74,0.11108
2636.59,0.11520
2613.45,0.11970
2590.3,0.12351
2567.16,0.12602
2544.02,0.12836
2520.87,0.13107
2497.73,0.13520
2474.58,0.14015
2451.44,0.14478
2428.29,0.15172
2405.15,0.16043
2382,0.16728
2358.86,0.17247
2335.71,0.17781
2312.57,0.17945
2289.42,0.17893
2266.28,0.17674
2243.13,0.17216
2219.99,0.17263
2196.84,0.16894
2173.7,0.15822
2150.55,0.15033
2127.41,0.14871
2104.26,0.15110
2081.12,0.15418
2057.97,0.15419
2034.83,0.15737
2011.68,0.16504
1988.54,0.17167
1965.39,0.17146
1942.25,0.17247
1919.1,0.17940
1895.96,0.17952
1872.81,0.17858
1849.67,0.17138
1826.52,0.15835
1803.38,0.13191
1780.23,0.09452
1757.09,0.05330
1733.94,0.04687
1710.8,0.05574
1687.65,0.06059
1664.51,0.05757
1641.36,0.05561
1618.22,0.05352
1595.07,0.05066
1571.93,0.06660
1548.78,0.07298
1525.64,0.06113
1502.49,0.05008
1479.35,0.05127
1456.2,0.04248
1433.06,0.04237
1409.91,0.04502
1386.77,0.04071
1363.62,0.04289
1340.48,0.04134
1317.33,0.04240
1294.19,0.04349
1271.04,0.03806
1247.9,0.03774
1224.75,0.04221
1201.61,0.04149
1178.46,0.03470
1155.32,0.04110
1132.17,0.03312
1109.03,0.04104
1085.88,0.04042
1062.74,0.05621
1039.59,0.06876
1016.45,0.06994
993.304,0.07122
970.159,0.07875
947.014,0.09083
923.869,0.08736
900.724,0.07829
877.579,0.08656
854.434,0.08606
831.289,0.08004
808.144,0.08520
784.999,0.08271
761.854,0.07617
738.709,0.06860
715.565,0.06463
692.42,0.06384
669.275,0.05843
646.13,0.05979
622.985,0.05798
599.84,0.06089

File: Bamboo_Rug_IS_T_220822_R4.dpt
7497.03,0.01566
7473.89,0.02578
7450.74,0.01666
7427.6,0.02642
7404.45,0.01729
7381.31,0.01810
7358.16,0.02294
7335.02,0.02456
7311.87,0.02225
7288.73,0.01496
7265.58,0.02123
7242.44,0.02096
7219.29,0.02352
7196.15,0.02089
7173,0.01798
7149.86,0.01860
7126.71,0.02123
7103.57,0.01932
7080.42,0.02563
7057.28,0.01922
7034.13,0.01888
7010.99,0.02357
6987.84,0.02101
6964.7,0.02227
6941.55,0.02465
6918.41,0.02002
6895.26,0.02237
6872.12,0.01958
6848.97,0.02202
6825.83,0.01963
6802.68,0.01973
6779.54,0.02514
6756.39,0.02224
6733.25,0.02526
6710.1,0.02010
6686.96,0.02247
6663.82,0.02332
6640.67,0.01832
6617.53,0.02375
6594.38,0.02014
6571.24,0.01822
6548.09,0.02236
6524.95,0.02122
6501.8,0.01963
6478.66,0.01939
6455.51,0.02151
6432.37,0.01849
6409.22,0.01736
6386.08,0.01863
6362.93,0.01868
6339.79,0.02103
6316.64,0.01697
6293.5,0.01825
6270.35,0.01974
6247.21,0.01899
6224.06,0.01813
6200.92,0.01780
6177.77,0.01901
6154.63,0.01820
6131.48,0.02014
6108.34,0.01659
6085.19,0.02093
6062.05,0.01866
6038.9,0.01779
6015.76,0.01915
5992.61,0.01823
5969.47,0.01717
5946.32,0.01871
5923.18,0.01695
5900.03,0.01954
5876.89,0.02033
5853.74,0.02027
5830.6,0.01810
5807.45,0.02002
5784.31,0.01799
5761.16,0.01815
5738.02,0.01857
5714.87,0.01828
5691.73,0.01788
5668.58,0.01893
5645.44,0.01956
5622.29,0.01847
5599.15,0.01954
5576,0.02044
5552.86,0.01921
5529.71,0.02007
5506.57,0.01892
5483.42,0.02046
5460.28,0.01923
5437.13,0.02034
5413.99,0.02009
5390.84,0.01908
5367.7,0.02005
5344.55,0.01855
5321.41,0.01982
5298.26,0.01941
5275.12,0.01860
5251.97,0.01625
5228.83,0.02050
5205.68,0.01728
5182.54,0.01833
5159.39,0.01956
5136.25,0.01868
5113.1,0.01822
5089.96,0.01862
5066.81,0.01869
5043.67,0.01937
5020.52,0.01929
4997.38,0.02013
4974.23,0.01913
4951.09,0.02047
4927.94,0.01921
4904.8,0.01885
4881.65,0.01950
4858.51,0.01910
4835.36,0.01902
4812.22,0.01918
4789.07,0.01930
4765.93,0.01939
4742.78,0.02009
4719.64,0.02012
4696.49,0.01897
4673.35,0.01959
4650.2,0.01838
4627.06,0.01957
4603.92,0.01877
4580.77,0.01978
4557.63,0.01929
4534.48,0.01985
4511.34,0.02011
4488.19,0.01894
4465.05,0.01903
4441.9,0.01876
4418.76,0.01915
4395.61,0.01910
4372.47,0.01882
4349.32,0.01923
4326.18,0.01922
4303.03,0.01859
4279.89,0.01997
4256.74,0.01986
4233.6,0.01958
4210.45,0.01905
4187.31,0.01919
4164.16,0.02001
4141.02,0.01962
4117.87,0.01966
4094.73,0.01988
4071.58,0.01924
4048.44,0.01871
4025.29,0.01953
4002.15,0.02012
3979,0.01976
3955.86,0.01954
3932.71,0.01961
3909.57,0.01926
3886.42,0.01953
3863.28,0.01950
3840.13,0.02013
3816.99,0.01982
3793.84,0.01953
3770.7,0.01944
3747.55,0.01929
3724.41,0.01914
3701.26,0.01879
3678.12,0.01915
3654.97,0.01960
3631.83,0.01932
3608.68,0.01834
3585.54,0.01817
3562.39,0.01897
3539.25,0.01883
3516.1,0.01850
3492.96,0.01795
3469.81,0.01767
3446.67,0.01758
3423.52,0.01770
3400.38,0.01607
3377.23,0.01805
3354.09,0.01670
3330.94,0.01647
3307.8,0.01698
3284.65,0.01723
3261.51,0.01707
3238.36,0.01797
3215.22,0.01777
3192.07,0.01775
3168.93,0.01810
3145.78,0.01780
3122.64,0.01790
3099.49,0.01778
3076.35,0.01771
3053.2,0.01700
3030.06,0.01732
3006.91,0.01719
2983.77,0.01643
2960.62,0.01715
2937.48,0.01658
2914.33,0.01678
2891.19,0.01749
2868.04,0.01774
2844.9,0.01794
2821.75,0.01866
2798.61,0.01803
2775.46,0.01897
2752.32,0.01786
2729.17,0.01830
2706.03,0.01806
2682.88,0.01790
2659.74,0.01808
2636.59,0.01789
2613.45,0.01795
2590.3,0.01815
2567.16,0.01822
2544.02,0.01818
2520.87,0.01823
2497.73,0.01811
2474.58,0.01804
2451.44,0.01803
2428.29,0.01789
2405.15,0.01805
2382,0.01827
2358.86,0.01821
2335.71,0.01799
2312.57,0.01843
2289.42,0.01816
2266.28,0.01799
2243.13,0.01794
2219.99,0.01814
2196.84,0.01823
2173.7,0.01807
2150.55,0.01830
2127.41,0.01811
2104.26,0.01844
2081.12,0.01833
2057.97,0.01813
2034.83,0.01804
2011.68,0.01763
1988.54,0.01800
1965.39,0.01784
1942.25,0.01793
1919.1,0.01777
1895.96,0.01784
1872.81,0.01749
1849.67,0.01722
1826.52,0.01689
1803.38,0.01669
1780.23,0.01589
1757.09,0.01443
1733.94,0.01681
1710.8,0.01753
1687.65,0.01611
1664.51,0.01530
1641.36,0.01540
1618.22,0.01639
1595.07,0.01589
1571.93,0.01526
1548.78,0.01523
1525.64,0.01556
1502.49,0.01555
1479.35,0.01529
1456.2,0.01532
1433.06,0.01601
1409.91,0.01520
1386.77,0.01511
1363.62,0.01511
1340.48,0.01467
1317.33,0.01398
1294.19,0.01492
1271.04,0.01646
1247.9,0.01686
1224.75,0.01639
1201.61,0.01552
1178.46,0.01509
1155.32,0.01496
1132.17,0.01494
1109.03,0.01568
1085.88,0.01571
1062.74,0.01641
1039.59,0.01667
1016.45,0.01608
993.304,0.01787
970.159,0.01769
947.014,0.01662
923.869,0.01633
900.724,0.01600
877.579,0.01570
854.434,0.01580
831.289,0.01631
808.144,0.01578
784.999,0.01544
761.854,0.01654
738.709,0.01619
715.565,0.01479
692.42,0.01554
669.275,0.01471
646.13,0.01413
622.985,0.01168
599.84,0.01272