Folder: fsri_materials_database/01_Data/Bamboo_Rug/FTIR/IS (part 3)

File: Bamboo_Rug_IS_T_220822_R6.dpt
7497.03,0.02061
7473.89,0.02467
7450.74,0.01790
7427.6,0.02817
7404.45,0.02386
7381.31,0.02045
7358.16,0.01604
7335.02,0.02826
7311.87,0.03331
7288.73,0.01956
7265.58,0.02442
7242.44,0.01363
7219.29,0.01935
7196.15,0.01592
7173,0.01704
7149.86,0.02270
7126.71,0.01661
7103.57,0.02047
7080.42,0.01892
7057.28,0.01823
7034.13,0.01924
7010.99,0.02543
6987.84,0.01722
6964.7,0.02281
6941.55,0.01612
6918.41,0.02254
6895.26,0.01894
6872.12,0.02404
6848.97,0.01787
6825.83,0.02696
6802.68,0.02440
6779.54,0.02209
6756.39,0.01997
6733.25,0.02569
6710.1,0.02401
6686.96,0.01797
6663.82,0.02030
6640.67,0.02018
6617.53,0.02206
6594.38,0.02165
6571.24,0.01899
6548.09,0.02455
6524.95,0.01980
6501.8,0.01473
6478.66,0.02161
6455.51,0.01493
6432.37,0.01887
6409.22,0.01832
6386.08,0.01457
6362.93,0.01930
6339.79,0.02210
6316.64,0.02118
6293.5,0.01789
6270.35,0.02044
6247.21,0.01830
6224.06,0.01675
6200.92,0.01723
6177.77,0.01944
6154.63,0.02180
6131.48,0.01959
6108.34,0.01955
6085.19,0.02055
6062.05,0.01956
6038.9,0.01838
6015.76,0.01717
5992.61,0.02003
5969.47,0.01905
5946.32,0.01773
5923.18,0.01982
5900.03,0.02004
5876.89,0.01861
5853.74,0.01927
5830.6,0.01895
5807.45,0.01954
5784.31,0.01927
5761.16,0.01926
5738.02,0.02205
5714.87,0.01769
5691.73,0.01969
5668.58,0.01995
5645.44,0.01851
5622.29,0.01720
5599.15,0.01936
5576,0.01962
5552.86,0.01930
5529.71,0.01768
5506.57,0.01839
5483.42,0.01848
5460.28,0.01794
5437.13,0.01843
5413.99,0.01904
5390.84,0.01954
5367.7,0.01932
5344.55,0.01887
5321.41,0.01975
5298.26,0.01711
5275.12,0.02024
5251.97,0.01967
5228.83,0.01940
5205.68,0.02015
5182.54,0.01993
5159.39,0.01930
5136.25,0.01970
5113.1,0.02033
5089.96,0.02046
5066.81,0.01974
5043.67,0.01914
5020.52,0.01829
4997.38,0.01974
4974.23,0.01902
4951.09,0.01961
4927.94,0.01921
4904.8,0.01915
4881.65,0.01835
4858.51,0.01892
4835.36,0.01999
4812.22,0.01998
4789.07,0.01993
4765.93,0.01920
4742.78,0.01954
4719.64,0.01952
4696.49,0.01868
4673.35,0.02004
4650.2,0.01952
4627.06,0.02057
4603.92,0.02018
4580.77,0.01879
4557.63,0.01919
4534.48,0.01930
4511.34,0.01905
4488.19,0.01931
4465.05,0.02010
4441.9,0.01905
4418.76,0.01946
4395.61,0.01931
4372.47,0.01953
4349.32,0.01981
4326.18,0.01971
4303.03,0.01890
4279.89,0.01997
4256.74,0.01860
4233.6,0.01949
4210.45,0.01927
4187.31,0.01927
4164.16,0.01902
4141.02,0.01921
4117.87,0.01943
4094.73,0.01937
4071.58,0.01995
4048.44,0.01927
4025.29,0.01993
4002.15,0.01960
3979,0.01976
3955.86,0.01956
3932.71,0.01951
3909.57,0.01971
3886.42,0.01927
3863.28,0.01947
3840.13,0.02029
3816.99,0.01990
3793.84,0.01905
3770.7,0.01960
3747.55,0.01958
3724.41,0.01968
3701.26,0.02015
3678.12,0.01884
3654.97,0.01891
3631.83,0.01904
3608.68,0.01941
3585.54,0.01857
3562.39,0.01864
3539.25,0.01808
3516.1,0.01777
3492.96,0.01774
3469.81,0.01799
3446.67,0.01789
3423.52,0.01719
3400.38,0.01685
3377.23,0.01796
3354.09,0.01744
3330.94,0.01740
3307.8,0.01746
3284.65,0.01747
3261.51,0.01781
3238.36,0.01822
3215.22,0.01811
3192.07,0.01823
3168.93,0.01815
3145.78,0.01795
3122.64,0.01891
3099.49,0.01771
3076.35,0.01803
3053.2,0.01770
3030.06,0.01731
3006.91,0.01724
2983.77,0.01612
2960.62,0.01658
2937.48,0.01649
2914.33,0.01706
2891.19,0.01796
2868.04,0.01808
2844.9,0.01867
2821.75,0.01818
2798.61,0.01848
2775.46,0.01802
2752.32,0.01838
2729.17,0.01847
2706.03,0.01855
2682.88,0.01869
2659.74,0.01863
2636.59,0.01831
2613.45,0.01802
2590.3,0.01822
2567.16,0.01833
2544.02,0.01851
2520.87,0.01830
2497.73,0.01851
2474.58,0.01790
2451.44,0.01821
2428.29,0.01830
2405.15,0.01793
2382,0.01808
2358.86,0.01840
2335.71,0.01862
2312.57,0.01840
2289.42,0.01849
2266.28,0.01829
2243.13,0.01832
2219.99,0.01838
2196.84,0.01814
2173.7,0.01813
2150.55,0.01810
2127.41,0.01798
2104.26,0.01847
2081.12,0.01821
2057.97,0.01807
2034.83,0.01821
2011.68,0.01799
1988.54,0.01840
1965.39,0.01809
1942.25,0.01783
1919.1,0.01785
1895.96,0.01790
1872.81,0.01743
1849.67,0.01733
1826.52,0.01742
1803.38,0.01650
1780.23,0.01631
1757.09,0.01469
1733.94,0.01699
1710.8,0.01802
1687.65,0.01645
1664.51,0.01566
1641.36,0.01585
1618.22,0.01625
1595.07,0.01616
1571.93,0.01523
1548.78,0.01572
1525.64,0.01581
1502.49,0.01573
1479.35,0.01562
1456.2,0.01613
1433.06,0.01621
1409.91,0.01558
1386.77,0.01559
1363.62,0.01556
1340.48,0.01519
1317.33,0.01377
1294.19,0.01479
1271.04,0.01607
1247.9,0.01673
1224.75,0.01681
1201.61,0.01565
1178.46,0.01569
1155.32,0.01442
1132.17,0.01551
1109.03,0.01570
1085.88,0.01422
1062.74,0.01704
1039.59,0.01719
1016.45,0.01653
993.304,0.01802
970.159,0.01723
947.014,0.01755
923.869,0.01685
900.724,0.01659
877.579,0.01576
854.434,0.01597
831.289,0.01629
808.144,0.01720
784.999,0.01621
761.854,0.01593
738.709,0.01566
715.565,0.01406
692.42,0.01458
669.275,0.01368
646.13,0.01436
622.985,0.01267
599.84,0.01384

File: Bamboo_Rug_IS_T_220822_R7.dpt
7497.03,0.01884
7473.89,0.02621
7450.74,0.02497
7427.6,0.02053
7404.45,0.01964
7381.31,0.02366
7358.16,0.02484
7335.02,0.02272
7311.87,0.02139
7288.73,0.02491
7265.58,0.01797
7242.44,0.02163
7219.29,0.02205
7196.15,0.02160
7173,0.02780
7149.86,0.02112
7126.71,0.01387
7103.57,0.02186
7080.42,0.01776
7057.28,0.02027
7034.13,0.02285
7010.99,0.01925
6987.84,0.02252
6964.7,0.01791
6941.55,0.02174
6918.41,0.01724
6895.26,0.01449
6872.12,0.01969
6848.97,0.02319
6825.83,0.02133
6802.68,0.01761
6779.54,0.01654
6756.39,0.02484
6733.25,0.01627
6710.1,0.01890
6686.96,0.02130
6663.82,0.02383
6640.67,0.01832
6617.53,0.02073
6594.38,0.01801
6571.24,0.01679
6548.09,0.01866
6524.95,0.01749
6501.8,0.02141
6478.66,0.01895
6455.51,0.01996
6432.37,0.01939
6409.22,0.01902
6386.08,0.01962
6362.93,0.02052
6339.79,0.01684
6316.64,0.01814
6293.5,0.02064
6270.35,0.02078
6247.21,0.02293
6224.06,0.01924
6200.92,0.02057
6177.77,0.01828
6154.63,0.01978
6131.48,0.01835
6108.34,0.01997
6085.19,0.02093
6062.05,0.02141
6038.9,0.01857
6015.76,0.01611
5992.61,0.01904
5969.47,0.01985
5946.32,0.01794
5923.18,0.02040
5900.03,0.01641
5876.89,0.01943
5853.74,0.01666
5830.6,0.01770
5807.45,0.02112
5784.31,0.01869
5761.16,0.02065
5738.02,0.01961
5714.87,0.02037
5691.73,0.01968
5668.58,0.01833
5645.44,0.01884
5622.29,0.01795
5599.15,0.02045
5576,0.01834
5552.86,0.02050
5529.71,0.02030
5506.57,0.01888
5483.42,0.01891
5460.28,0.01823
5437.13,0.01983
5413.99,0.01961
5390.84,0.02073
5367.7,0.01945
5344.55,0.01874
5321.41,0.01931
5298.26,0.01710
5275.12,0.01901
5251.97,0.01857
5228.83,0.02024
5205.68,0.01831
5182.54,0.01965
5159.39,0.01869
5136.25,0.01851
5113.1,0.01970
5089.96,0.01944
5066.81,0.01963
5043.67,0.02055
5020.52,0.01871
4997.38,0.02006
4974.23,0.01998
4951.09,0.02017
4927.94,0.01890
4904.8,0.01992
4881.65,0.02043
4858.51,0.02049
4835.36,0.01977
4812.22,0.02000
4789.07,0.01897
4765.93,0.01905
4742.78,0.01969
4719.64,0.02010
4696.49,0.01945
4673.35,0.01988
4650.2,0.01981
4627.06,0.01882
4603.92,0.02049
4580.77,0.01920
4557.63,0.01962
4534.48,0.01935
4511.34,0.01913
4488.19,0.02004
4465.05,0.01965
4441.9,0.01991
4418.76,0.01989
4395.61,0.01991
4372.47,0.01863
4349.32,0.01996
4326.18,0.02006
4303.03,0.01972
4279.89,0.02050
4256.74,0.01993
4233.6,0.01954
4210.45,0.01980
4187.31,0.01968
4164.16,0.01951
4141.02,0.01995
4117.87,0.02001
4094.73,0.02036
4071.58,0.02002
4048.44,0.02001
4025.29,0.01957
4002.15,0.01998
3979,0.01991
3955.86,0.01947
3932.71,0.01972
3909.57,0.02027
3886.42,0.01952
3863.28,0.02029
3840.13,0.02034
3816.99,0.02074
3793.84,0.01998
3770.7,0.02000
3747.55,0.02071
3724.41,0.02004
3701.26,0.01990
3678.12,0.01892
3654.97,0.01934
3631.83,0.01935
3608.68,0.01871
3585.54,0.01875
3562.39,0.01895
3539.25,0.01925
3516.1,0.01841
3492.96,0.01838
3469.81,0.01816
3446.67,0.01803
3423.52,0.01767
3400.38,0.01833
3377.23,0.01706
3354.09,0.01758
3330.94,0.01743
3307.8,0.01733
3284.65,0.01758
3261.51,0.01747
3238.36,0.01774
3215.22,0.01799
3192.07,0.01763
3168.93,0.01815
3145.78,0.01780
3122.64,0.01816
3099.49,0.01841
3076.35,0.01815
3053.2,0.01811
3030.06,0.01805
3006.91,0.01754
2983.77,0.01734
2960.62,0.01642
2937.48,0.01683
2914.33,0.01762
2891.19,0.01759
2868.04,0.01741
2844.9,0.01847
2821.75,0.01850
2798.61,0.01881
2775.46,0.01822
2752.32,0.01840
2729.17,0.01856
2706.03,0.01825
2682.88,0.01837
2659.74,0.01871
2636.59,0.01868
2613.45,0.01844
2590.3,0.01804
2567.16,0.01869
2544.02,0.01866
2520.87,0.01848
2497.73,0.01828
2474.58,0.01875
2451.44,0.01898
2428.29,0.01844
2405.15,0.01862
2382,0.01808
2358.86,0.01848
2335.71,0.01853
2312.57,0.01827
2289.42,0.01848
2266.28,0.01862
2243.13,0.01880
2219.99,0.01845
2196.84,0.01833
2173.7,0.01819
2150.55,0.01840
2127.41,0.01840
2104.26,0.01842
2081.12,0.01829
2057.97,0.01839
2034.83,0.01783
2011.68,0.01829
1988.54,0.01784
1965.39,0.01822
1942.25,0.01815
1919.1,0.01835
1895.96,0.01806
1872.81,0.01768
1849.67,0.01747
1826.52,0.01747
1803.38,0.01680
1780.23,0.01647
1757.09,0.01494
1733.94,0.01666
1710.8,0.01811
1687.65,0.01679
1664.51,0.01581
1641.36,0.01634
1618.22,0.01592
1595.07,0.01610
1571.93,0.01530
1548.78,0.01582
1525.64,0.01573
1502.49,0.01573
1479.35,0.01601
1456.2,0.01568
1433.06,0.01631
1409.91,0.01548
1386.77,0.01538
1363.62,0.01520
1340.48,0.01474
1317.33,0.01420
1294.19,0.01504
1271.04,0.01671
1247.9,0.01735
1224.75,0.01668
1201.61,0.01573
1178.46,0.01502
1155.32,0.01509
1132.17,0.01528
1109.03,0.01591
1085.88,0.01487
1062.74,0.01771
1039.59,0.01650
1016.45,0.01599
993.304,0.01820
970.159,0.01744
947.014,0.01703
923.869,0.01658
900.724,0.01617
877.579,0.01659
854.434,0.01609
831.289,0.01623
808.144,0.01666
784.999,0.01490
761.854,0.01562
738.709,0.01474
715.565,0.01516
692.42,0.01515
669.275,0.01425
646.13,0.01389
622.985,0.01357
599.84,0.01380

File: Bamboo_Rug_IS_T_220822_R8.dpt
7497.03,0.03386
7473.89,0.02653
7450.74,0.01960
7427.6,0.02333
7404.45,0.01778
7381.31,0.02330
7358.16,0.01883
7335.02,0.01967
7311.87,0.02637
7288.73,0.01640
7265.58,0.02070
7242.44,0.02754
7219.29,0.02611
7196.15,0.01467
7173,0.02505
7149.86,0.01677
7126.71,0.01637
7103.57,0.02376
7080.42,0.02450
7057.28,0.01920
7034.13,0.01851
7010.99,0.02257
6987.84,0.02040
6964.7,0.01852
6941.55,0.02112
6918.41,0.01566
6895.26,0.02099
6872.12,0.02200
6848.97,0.01785
6825.83,0.02497
6802.68,0.02330
6779.54,0.02255
6756.39,0.01754
6733.25,0.01695
6710.1,0.02446
6686.96,0.02094
6663.82,0.02069
6640.67,0.01988
6617.53,0.01796
6594.38,0.02239
6571.24,0.02105
6548.09,0.01728
6524.95,0.01759
6501.8,0.01612
6478.66,0.01972
6455.51,0.02221
6432.37,0.01836
6409.22,0.01940
6386.08,0.02186
6362.93,0.01888
6339.79,0.02044
6316.64,0.01913
6293.5,0.01669
6270.35,0.01989
6247.21,0.01940
6224.06,0.02182
6200.92,0.01788
6177.77,0.01897
6154.63,0.01932
6131.48,0.01729
6108.34,0.01900
6085.19,0.01809
6062.05,0.01713
6038.9,0.01611
6015.76,0.01622
5992.61,0.01768
5969.47,0.01835
5946.32,0.01771
5923.18,0.01775
5900.03,0.02213
5876.89,0.01792
5853.74,0.01963
5830.6,0.01870
5807.45,0.01729
5784.31,0.01827
5761.16,0.01657
5738.02,0.01816
5714.87,0.01947
5691.73,0.01883
5668.58,0.01973
5645.44,0.01936
5622.29,0.01947
5599.15,0.01982
5576,0.01924
5552.86,0.02121
5529.71,0.01745
5506.57,0.02096
5483.42,0.01887
5460.28,0.01894
5437.13,0.01754
5413.99,0.01865
5390.84,0.01740
5367.7,0.02049
5344.55,0.02029
5321.41,0.01945
5298.26,0.02144
5275.12,0.02052
5251.97,0.02056
5228.83,0.01756
5205.68,0.01895
5182.54,0.01993
5159.39,0.02008
5136.25,0.01956
5113.1,0.01959
5089.96,0.02023
5066.81,0.01903
5043.67,0.01836
5020.52,0.02003
4997.38,0.01920
4974.23,0.01858
4951.09,0.01936
4927.94,0.01870
4904.8,0.02017
4881.65,0.01897
4858.51,0.02007
4835.36,0.01890
4812.22,0.01885
4789.07,0.01927
4765.93,0.01961
4742.78,0.01900
4719.64,0.02029
4696.49,0.01931
4673.35,0.01929
4650.2,0.02010
4627.06,0.02073
4603.92,0.02034
4580.77,0.01957
4557.63,0.01952
4534.48,0.01909
4511.34,0.02022
4488.19,0.01894
4465.05,0.01988
4441.9,0.01924
4418.76,0.01914
4395.61,0.01998
4372.47,0.01877
4349.32,0.01965
4326.18,0.01965
4303.03,0.01979
4279.89,0.01966
4256.74,0.01942
4233.6,0.02008
4210.45,0.02009
4187.31,0.01948
4164.16,0.02024
4141.02,0.01992
4117.87,0.01983
4094.73,0.01984
4071.58,0.01996
4048.44,0.01977
4025.29,0.02029
4002.15,0.01977
3979,0.01970
3955.86,0.02034
3932.71,0.01979
3909.57,0.01985
3886.42,0.02020
3863.28,0.02075
3840.13,0.02083
3816.99,0.01930
3793.84,0.01994
3770.7,0.01957
3747.55,0.02006
3724.41,0.01969
3701.26,0.01978
3678.12,0.02039
3654.97,0.01952
3631.83,0.01900
3608.68,0.01871
3585.54,0.01936
3562.39,0.01842
3539.25,0.01823
3516.1,0.01810
3492.96,0.01836
3469.81,0.01826
3446.67,0.01721
3423.52,0.01813
3400.38,0.01721
3377.23,0.01736
3354.09,0.01671
3330.94,0.01771
3307.8,0.01769
3284.65,0.01777
3261.51,0.01824
3238.36,0.01794
3215.22,0.01782
3192.07,0.01790
3168.93,0.01789
3145.78,0.01819
3122.64,0.01766
3099.49,0.01767
3076.35,0.01803
3053.2,0.01704
3030.06,0.01781
3006.91,0.01777
2983.77,0.01674
2960.62,0.01642
2937.48,0.01728
2914.33,0.01735
2891.19,0.01766
2868.04,0.01770
2844.9,0.01810
2821.75,0.01863
2798.61,0.01827
2775.46,0.01846
2752.32,0.01826
2729.17,0.01866
2706.03,0.01885
2682.88,0.01840
2659.74,0.01889
2636.59,0.01875
2613.45,0.01856
2590.3,0.01839
2567.16,0.01831
2544.02,0.01853
2520.87,0.01858
2497.73,0.01857
2474.58,0.01890
2451.44,0.01833
2428.29,0.01835
2405.15,0.01841
2382,0.01828
2358.86,0.01833
2335.71,0.01837
2312.57,0.01822
2289.42,0.01842
2266.28,0.01816
2243.13,0.01855
2219.99,0.01834
2196.84,0.01865
2173.7,0.01793
2150.55,0.01858
2127.41,0.01812
2104.26,0.01823
2081.12,0.01805
2057.97,0.01834
2034.83,0.01806
2011.68,0.01832
1988.54,0.01832
1965.39,0.01839
1942.25,0.01826
1919.1,0.01784
1895.96,0.01744
1872.81,0.01774
1849.67,0.01768
1826.52,0.01724
1803.38,0.01710
1780.23,0.01643
1757.09,0.01525
1733.94,0.01673
1710.8,0.01777
1687.65,0.01658
1664.51,0.01607
1641.36,0.01569
1618.22,0.01644
1595.07,0.01605
1571.93,0.01566
1548.78,0.01498
1525.64,0.01617
1502.49,0.01574
1479.35,0.01583
1456.2,0.01559
1433.06,0.01586
1409.91,0.01581
1386.77,0.01532
1363.62,0.01527
1340.48,0.01512
1317.33,0.01389
1294.19,0.01533
1271.04,0.01662
1247.9,0.01736
1224.75,0.01634
1201.61,0.01560
1178.46,0.01560
1155.32,0.01423
1132.17,0.01559
1109.03,0.01593
1085.88,0.01465
1062.74,0.01641
1039.59,0.01636
1016.45,0.01668
993.304,0.01854
970.159,0.01765
947.014,0.01705
923.869,0.01684
900.724,0.01594
877.579,0.01559
854.434,0.01609
831.289,0.01695
808.144,0.01615
784.999,0.01545
761.854,0.01602
738.709,0.01554
715.565,0.01584
692.42,0.01522
669.275,0.01476
646.13,0.01330
622.985,0.01316
599.84,0.01307