Folder: fsri_materials_database/01_Data/Bamboo_Rug/FTIR/IS

Note: README.md
# Materials and Products Database
### Repository of materials and products properties and fire test data to improve fire modeling and fire investigation.

This project was supported in part by Award No. 2019-DU-BX-0018, awarded by the National Institute of Justice, Office of Justice Programs, U.S. Department of Justice. The opinions, findings, and conclusions or recommendations expressed in this publication / program / exhibition are those of the author(s) and do not necessarily reflect those of the Department of Justice.

***
***

__Cite this database:__ "McKinnon, M., Weinschenk, C., Dow, N., DiDomizio, M., and Madrzykowski, D. Materials and Products Database (Version 1.0.0), Fire Safety Research Institute, UL Research Institutes. Columbia, MD 21045, 2023."

__Cite the Technical Reference Guide:__ "McKinnon, M., Weinschenk, C., and Madrzykowski, D. Materials and Products Database - Technical Reference Guide, Fire Safety Research Institute, UL Research Institutes. Columbia, MD 21045, 2023."

__Cite the User Guide:__ "McKinnon, M., and Weinschenk, C. Materials and Products Database - User Guide, Fire Safety Research Institute, UL Research Institutes. Columbia, MD 21045, 2023."

***
***

## Database Structure

## 01_Data/
Raw data generated from each apparatus are included here in plain-text format. The data is organized first by material, next by the short name of test apparatus used, and where applicable additional filtering by test settings.

### Test Apparatus and Data File Structure
- __Cone Calorimeter__ (Cone)
    + Data file structure includes the material, the short name for the apparatus, heat flux setting and scan/scalar, date of test, and replicate number. Scan is for the raw output data and scalar is for the initial conditions and high-level test parameters. 
        * Example: __MDF_Cone_HF25scalar_210323_R1__ stands for the first replicate of scalar data generated from a medium density fiber board test in cone calorimeter exposed to 25 kW/m<sup>2</sup> on March 23, 2021.
    + A _Cone_Notes.csv_ is generated for each material from the __plot_Cone_data.py__ script. For materials whose experiments deviated from typical behavior relevant pictures are included in the respective material directory.
- __Fourier Transform Infrared Spectrometer__ (FTIR)
    + The FTIR directory contains subdirectories for the Attenuated Total Reflectance method (ATR) and the Integrating Sphere (IS)
    + Data file structure for the ATR experiment files includes the material, the abbreviated name for the apparatus, date of test, and replicate number. 
        * Example: __MDF_ATR_210323_R5__ stands for the fifth replicate of data collected with the ATR accessory conducted on June 8, 2021.
    + Data file structure for the IS experiment files includes the material, the abbreviated name for the apparatus, the measurand, whether the test is a sample measurement or standard reference, date of test, and replicate number.
        * Example: __OSB_IS_REFLECT_MEAS_2

File: Bamboo_Rug_IS_S_220822_R1.dpt
7497.03,0.76518
7473.89,0.75446
7450.74,0.73744
7427.6,0.72678
7404.45,0.72496
7381.31,0.71115
7358.16,0.69905
7335.02,0.69545
7311.87,0.68544
7288.73,0.67945
7265.58,0.67995
7242.44,0.67679
7219.29,0.66597
7196.15,0.65275
7173,0.64364
7149.86,0.62770
7126.71,0.60659
7103.57,0.58575
7080.42,0.56505
7057.28,0.54211
7034.13,0.52642
7010.99,0.50340
6987.84,0.48827
6964.7,0.48879
6941.55,0.47978
6918.41,0.47728
6895.26,0.47410
6872.12,0.47342
6848.97,0.47593
6825.83,0.47046
6802.68,0.46878
6779.54,0.47255
6756.39,0.47285
6733.25,0.47424
6710.1,0.47713
6686.96,0.47911
6663.82,0.48604
6640.67,0.48706
6617.53,0.49427
6594.38,0.50128
6571.24,0.50273
6548.09,0.50552
6524.95,0.50837
6501.8,0.51071
6478.66,0.51325
6455.51,0.51558
6432.37,0.51786
6409.22,0.51907
6386.08,0.51874
6362.93,0.52292
6339.79,0.52287
6316.64,0.52454
6293.5,0.53172
6270.35,0.53547
6247.21,0.53830
6224.06,0.54686
6200.92,0.55760
6177.77,0.56007
6154.63,0.56868
6131.48,0.56879
6108.34,0.57208
6085.19,0.57227
6062.05,0.56920
6038.9,0.56586
6015.76,0.56174
5992.61,0.55423
5969.47,0.54970
5946.32,0.54952
5923.18,0.54743
5900.03,0.54401
5876.89,0.54718
5853.74,0.54294
5830.6,0.53731
5807.45,0.53344
5784.31,0.53602
5761.16,0.54093
5738.02,0.54263
5714.87,0.54248
5691.73,0.53992
5668.58,0.53698
5645.44,0.53626
5622.29,0.53360
5599.15,0.53312
5576,0.53717
5552.86,0.54179
5529.71,0.54182
5506.57,0.54360
5483.42,0.54452
5460.28,0.54935
5437.13,0.55384
5413.99,0.55913
5390.84,0.55953
5367.7,0.55549
5344.55,0.55102
5321.41,0.53209
5298.26,0.49904
5275.12,0.44516
5251.97,0.39083
5228.83,0.35827
5205.68,0.34510
5182.54,0.34616
5159.39,0.35442
5136.25,0.36747
5113.1,0.38402
5089.96,0.39706
5066.81,0.40934
5043.67,0.42360
5020.52,0.43373
4997.38,0.44097
4974.23,0.44202
4951.09,0.43222
4927.94,0.41658
4904.8,0.39728
4881.65,0.37730
4858.51,0.36195
4835.36,0.34656
4812.22,0.33773
4789.07,0.33281
4765.93,0.32839
4742.78,0.32860
4719.64,0.32890
4696.49,0.33122
4673.35,0.33717
4650.2,0.34730
4627.06,0.35512
4603.92,0.36458
4580.77,0.37088
4557.63,0.37649
4534.48,0.38134
4511.34,0.38098
4488.19,0.37043
4465.05,0.34411
4441.9,0.31621
4418.76,0.29715
4395.61,0.29143
4372.47,0.29682
4349.32,0.29853
4326.18,0.29067
4303.03,0.28254
4279.89,0.27930
4256.74,0.28247
4233.6,0.28427
4210.45,0.28579
4187.31,0.28716
4164.16,0.28972
4141.02,0.28209
4117.87,0.26880
4094.73,0.25399
4071.58,0.23543
4048.44,0.21970
4025.29,0.20939
4002.15,0.20841
3979,0.21211
3955.86,0.21954
3932.71,0.22750
3909.57,0.23560
3886.42,0.24402
3863.28,0.25243
3840.13,0.25974
3816.99,0.26117
3793.84,0.25837
3770.7,0.25243
3747.55,0.24222
3724.41,0.22617
3701.26,0.19684
3678.12,0.14963
3654.97,0.10351
3631.83,0.07991
3608.68,0.06598
3585.54,0.05662
3562.39,0.05002
3539.25,0.04609
3516.1,0.04328
3492.96,0.04084
3469.81,0.03978
3446.67,0.03852
3423.52,0.03902
3400.38,0.04013
3377.23,0.04106
3354.09,0.04210
3330.94,0.04385
3307.8,0.04547
3284.65,0.04675
3261.51,0.04939
3238.36,0.05308
3215.22,0.05499
3192.07,0.05808
3168.93,0.06119
3145.78,0.06444
3122.64,0.06831
3099.49,0.07165
3076.35,0.07410
3053.2,0.07702
3030.06,0.07887
3006.91,0.07661
2983.77,0.07068
2960.62,0.06231
2937.48,0.05716
2914.33,0.05723
2891.19,0.05870
2868.04,0.06201
2844.9,0.06867
2821.75,0.08064
2798.61,0.08823
2775.46,0.09264
2752.32,0.09495
2729.17,0.09652
2706.03,0.10041
2682.88,0.10492
2659.74,0.10897
2636.59,0.11214
2613.45,0.11684
2590.3,0.12094
2567.16,0.12372
2544.02,0.12586
2520.87,0.12839
2497.73,0.13232
2474.58,0.13697
2451.44,0.14199
2428.29,0.14885
2405.15,0.15669
2382,0.16310
2358.86,0.16815
2335.71,0.17234
2312.57,0.17373
2289.42,0.17232
2266.28,0.17040
2243.13,0.16559
2219.99,0.16484
2196.84,0.16103
2173.7,0.15084
2150.55,0.14345
2127.41,0.14148
2104.26,0.14399
2081.12,0.14705
2057.97,0.14696
2034.83,0.15001
2011.68,0.15758
1988.54,0.16388
1965.39,0.16407
1942.25,0.16540
1919.1,0.17163
1895.96,0.17265
1872.81,0.17217
1849.67,0.16532
1826.52,0.15271
1803.38,0.12851
1780.23,0.09385
1757.09,0.05416
1733.94,0.04619
1710.8,0.05453
1687.65,0.05876
1664.51,0.05533
1641.36,0.05375
1618.22,0.05316
1595.07,0.05044
1571.93,0.06555
1548.78,0.07083
1525.64,0.06074
1502.49,0.04970
1479.35,0.05085
1456.2,0.04286
1433.06,0.04197
1409.91,0.04489
1386.77,0.04071
1363.62,0.04220
1340.48,0.04151
1317.33,0.04218
1294.19,0.04289
1271.04,0.03775
1247.9,0.03798
1224.75,0.04253
1201.61,0.04141
1178.46,0.03411
1155.32,0.04039
1132.17,0.03344
1109.03,0.04090
1085.88,0.04040
1062.74,0.05569
1039.59,0.06726
1016.45,0.07022
993.304,0.07007
970.159,0.07808
947.014,0.08906
923.869,0.08592
900.724,0.07763
877.579,0.08446
854.434,0.08244
831.289,0.07790
808.144,0.08077
784.999,0.07830
761.854,0.07171
738.709,0.06598
715.565,0.06191
692.42,0.06211
669.275,0.05759
646.13,0.05849
622.985,0.05527
599.84,0.05973

File: Bamboo_Rug_IS_S_220822_R2.dpt
7497.03,0.77215
7473.89,0.75583
7450.74,0.73769
7427.6,0.73603
7404.45,0.72017
7381.31,0.71943
7358.16,0.70532
7335.02,0.69131
7311.87,0.69057
7288.73,0.68045
7265.58,0.68055
7242.44,0.67821
7219.29,0.68325
7196.15,0.65931
7173,0.64566
7149.86,0.63232
7126.71,0.60896
7103.57,0.59214
7080.42,0.56941
7057.28,0.54622
7034.13,0.52911
7010.99,0.50519
6987.84,0.49567
6964.7,0.49238
6941.55,0.48444
6918.41,0.48230
6895.26,0.47774
6872.12,0.47689
6848.97,0.47548
6825.83,0.47355
6802.68,0.47658
6779.54,0.47311
6756.39,0.47324
6733.25,0.48277
6710.1,0.48507
6686.96,0.48697
6663.82,0.49092
6640.67,0.49312
6617.53,0.49916
6594.38,0.49877
6571.24,0.50557
6548.09,0.51111
6524.95,0.50997
6501.8,0.51454
6478.66,0.51915
6455.51,0.51631
6432.37,0.52212
6409.22,0.52354
6386.08,0.52204
6362.93,0.52469
6339.79,0.52794
6316.64,0.52838
6293.5,0.53274
6270.35,0.53962
6247.21,0.54579
6224.06,0.55221
6200.92,0.55557
6177.77,0.56203
6154.63,0.57002
6131.48,0.57244
6108.34,0.57880
6085.19,0.57601
6062.05,0.57619
6038.9,0.56979
6015.76,0.56684
5992.61,0.55767
5969.47,0.55650
5946.32,0.55002
5923.18,0.55204
5900.03,0.54877
5876.89,0.54570
5853.74,0.54569
5830.6,0.53953
5807.45,0.53676
5784.31,0.54077
5761.16,0.54547
5738.02,0.54689
5714.87,0.54665
5691.73,0.54417
5668.58,0.53989
5645.44,0.53944
5622.29,0.53879
5599.15,0.53818
5576,0.54138
5552.86,0.54592
5529.71,0.54674
5506.57,0.54832
5483.42,0.54939
5460.28,0.55311
5437.13,0.55702
5413.99,0.56382
5390.84,0.56441
5367.7,0.56218
5344.55,0.55449
5321.41,0.53770
5298.26,0.50467
5275.12,0.45334
5251.97,0.40031
5228.83,0.36725
5205.68,0.35681
5182.54,0.35585
5159.39,0.36562
5136.25,0.38033
5113.1,0.39234
5089.96,0.40727
5066.81,0.41966
5043.67,0.43166
5020.52,0.44284
4997.38,0.44864
4974.23,0.44808
4951.09,0.43867
4927.94,0.42093
4904.8,0.40223
4881.65,0.38161
4858.51,0.36416
4835.36,0.34940
4812.22,0.34054
4789.07,0.33525
4765.93,0.33161
4742.78,0.33129
4719.64,0.33231
4696.49,0.33559
4673.35,0.34079
4650.2,0.35028
4627.06,0.35764
4603.92,0.36807
4580.77,0.37445
4557.63,0.37925
4534.48,0.38440
4511.34,0.38489
4488.19,0.37400
4465.05,0.34771
4441.9,0.31828
4418.76,0.29815
4395.61,0.29367
4372.47,0.29936
4349.32,0.30071
4326.18,0.29377
4303.03,0.28380
4279.89,0.28221
4256.74,0.28527
4233.6,0.28700
4210.45,0.28909
4187.31,0.28901
4164.16,0.29175
4141.02,0.28599
4117.87,0.27295
4094.73,0.25704
4071.58,0.23889
4048.44,0.22179
4025.29,0.21199
4002.15,0.21020
3979,0.21511
3955.86,0.22202
3932.71,0.23007
3909.57,0.23879
3886.42,0.24696
3863.28,0.25603
3840.13,0.26409
3816.99,0.26598
3793.84,0.26420
3770.7,0.25792
3747.55,0.24807
3724.41,0.23254
3701.26,0.20461
3678.12,0.15627
3654.97,0.10857
3631.83,0.08390
3608.68,0.06888
3585.54,0.05867
3562.39,0.05172
3539.25,0.04697
3516.1,0.04291
3492.96,0.04211
3469.81,0.03916
3446.67,0.03883
3423.52,0.03943
3400.38,0.04007
3377.23,0.04059
3354.09,0.04223
3330.94,0.04406
3307.8,0.04554
3284.65,0.04732
3261.51,0.04946
3238.36,0.05248
3215.22,0.05585
3192.07,0.05860
3168.93,0.06167
3145.78,0.06555
3122.64,0.06928
3099.49,0.07244
3076.35,0.07527
3053.2,0.07888
3030.06,0.08042
3006.91,0.07721
2983.77,0.07146
2960.62,0.06215
2937.48,0.05705
2914.33,0.05724
2891.19,0.05842
2868.04,0.06211
2844.9,0.06932
2821.75,0.08195
2798.61,0.08999
2775.46,0.09317
2752.32,0.09612
2729.17,0.09806
2706.03,0.10170
2682.88,0.10613
2659.74,0.11014
2636.59,0.11402
2613.45,0.11832
2590.3,0.12197
2567.16,0.12496
2544.02,0.12711
2520.87,0.12956
2497.73,0.13373
2474.58,0.13865
2451.44,0.14368
2428.29,0.15063
2405.15,0.15910
2382,0.16568
2358.86,0.17007
2335.71,0.17529
2312.57,0.17628
2289.42,0.17528
2266.28,0.17336
2243.13,0.16872
2219.99,0.16811
2196.84,0.16457
2173.7,0.15417
2150.55,0.14686
2127.41,0.14484
2104.26,0.14699
2081.12,0.14987
2057.97,0.15030
2034.83,0.15282
2011.68,0.16118
1988.54,0.16714
1965.39,0.16714
1942.25,0.16864
1919.1,0.17524
1895.96,0.17569
1872.81,0.17502
1849.67,0.16791
1826.52,0.15537
1803.38,0.12993
1780.23,0.09413
1757.09,0.05397
1733.94,0.04685
1710.8,0.05526
1687.65,0.05917
1664.51,0.05645
1641.36,0.05443
1618.22,0.05308
1595.07,0.05046
1571.93,0.06596
1548.78,0.07190
1525.64,0.06067
1502.49,0.05017
1479.35,0.05124
1456.2,0.04293
1433.06,0.04211
1409.91,0.04509
1386.77,0.04028
1363.62,0.04247
1340.48,0.04124
1317.33,0.04257
1294.19,0.04377
1271.04,0.03779
1247.9,0.03789
1224.75,0.04193
1201.61,0.04122
1178.46,0.03391
1155.32,0.04119
1132.17,0.03331
1109.03,0.04076
1085.88,0.04068
1062.74,0.05633
1039.59,0.06835
1016.45,0.07043
993.304,0.07021
970.159,0.07875
947.014,0.09020
923.869,0.08689
900.724,0.07784
877.579,0.08568
854.434,0.08415
831.289,0.07964
808.144,0.08309
784.999,0.08013
761.854,0.07277
738.709,0.06742
715.565,0.06286
692.42,0.06127
669.275,0.05812
646.13,0.05934
622.985,0.05629
599.84,0.06085

File: Bamboo_Rug_IS_S_220822_R3.dpt
7497.03,0.76217
7473.89,0.75842
7450.74,0.74910
7427.6,0.72880
7404.45,0.71168
7381.31,0.70696
7358.16,0.69237
7335.02,0.69263
7311.87,0.69062
7288.73,0.68420
7265.58,0.68443
7242.44,0.68259
7219.29,0.66835
7196.15,0.66763
7173,0.64783
7149.86,0.63220
7126.71,0.61481
7103.57,0.59277
7080.42,0.57585
7057.28,0.54452
7034.13,0.52657
7010.99,0.50507
6987.84,0.50080
6964.7,0.48849
6941.55,0.48659
6918.41,0.48153
6895.26,0.47763
6872.12,0.47886
6848.97,0.47060
6825.83,0.47169
6802.68,0.47919
6779.54,0.47942
6756.39,0.47566
6733.25,0.48159
6710.1,0.48185
6686.96,0.48866
6663.82,0.49065
6640.67,0.49452
6617.53,0.49457
6594.38,0.50062
6571.24,0.50654
6548.09,0.51179
6524.95,0.51328
6501.8,0.51720
6478.66,0.51635
6455.51,0.51966
6432.37,0.52123
6409.22,0.52385
6386.08,0.52674
6362.93,0.52580
6339.79,0.52731
6316.64,0.52963
6293.5,0.53215
6270.35,0.53866
6247.21,0.54413
6224.06,0.55078
6200.92,0.56057
6177.77,0.56245
6154.63,0.56578
6131.48,0.57490
6108.34,0.57473
6085.19,0.57921
6062.05,0.57508
6038.9,0.57295
6015.76,0.56288
5992.61,0.55835
5969.47,0.55347
5946.32,0.55124
5923.18,0.55207
5900.03,0.54550
5876.89,0.54721
5853.74,0.54455
5830.6,0.53980
5807.45,0.53566
5784.31,0.53866
5761.16,0.54526
5738.02,0.54442
5714.87,0.54487
5691.73,0.54436
5668.58,0.53922
5645.44,0.53894
5622.29,0.53810
5599.15,0.53595
5576,0.53805
5552.86,0.54273
5529.71,0.54380
5506.57,0.54802
5483.42,0.54970
5460.28,0.55194
5437.13,0.55662
5413.99,0.56227
5390.84,0.56480
5367.7,0.56146
5344.55,0.55457
5321.41,0.53738
5298.26,0.50512
5275.12,0.45583
5251.97,0.40302
5228.83,0.37087
5205.68,0.35930
5182.54,0.35898
5159.39,0.36830
5136.25,0.38191
5113.1,0.39550
5089.96,0.40916
5066.81,0.42244
5043.67,0.43496
5020.52,0.44439
4997.38,0.44937
4974.23,0.44822
4951.09,0.43801
4927.94,0.42105
4904.8,0.40091
4881.65,0.38108
4858.51,0.36338
4835.36,0.34866
4812.22,0.33941
4789.07,0.33446
4765.93,0.33217
4742.78,0.33074
4719.64,0.33204
4696.49,0.33433
4673.35,0.33903
4650.2,0.34993
4627.06,0.35810
4603.92,0.36618
4580.77,0.37375
4557.63,0.37874
4534.48,0.38432
4511.34,0.38442
4488.19,0.37321
4465.05,0.34745
4441.9,0.31783
4418.76,0.29918
4395.61,0.29224
4372.47,0.29850
4349.32,0.30022
4326.18,0.29248
4303.03,0.28341
4279.89,0.28068
4256.74,0.28491
4233.6,0.28653
4210.45,0.28829
4187.31,0.28972
4164.16,0.29198
4141.02,0.28640
4117.87,0.27235
4094.73,0.25645
4071.58,0.23911
4048.44,0.22249
4025.29,0.21207
4002.15,0.21072
3979,0.21506
3955.86,0.22245
3932.71,0.23069
3909.57,0.23902
3886.42,0.24749
3863.28,0.25597
3840.13,0.26465
3816.99,0.26677
3793.84,0.26446
3770.7,0.25889
3747.55,0.25016
3724.41,0.23445
3701.26,0.20657
3678.12,0.15935
3654.97,0.11139
3631.83,0.08538
3608.68,0.07017
3585.54,0.05952
3562.39,0.05187
3539.25,0.04719
3516.1,0.04385
3492.96,0.04127
3469.81,0.03958
3446.67,0.03940
3423.52,0.03868
3400.38,0.03998
3377.23,0.04072
3354.09,0.04198
3330.94,0.04414
3307.8,0.04597
3284.65,0.04758
3261.51,0.04976
3238.36,0.05251
3215.22,0.05592
3192.07,0.05891
3168.93,0.06232
3145.78,0.06585
3122.64,0.06940
3099.49,0.07321
3076.35,0.07576
3053.2,0.07914
3030.06,0.08012
3006.91,0.07790
2983.77,0.07136
2960.62,0.06204
2937.48,0.05689
2914.33,0.05726
2891.19,0.05969
2868.04,0.06205
2844.9,0.06890
2821.75,0.08160
2798.61,0.08962
2775.46,0.09372
2752.32,0.09608
2729.17,0.09826
2706.03,0.10173
2682.88,0.10581
2659.74,0.11032
2636.59,0.11371
2613.45,0.11859
2590.3,0.12208
2567.16,0.12476
2544.02,0.12725
2520.87,0.12970
2497.73,0.13419
2474.58,0.13869
2451.44,0.14363
2428.29,0.15074
2405.15,0.15887
2382,0.16570
2358.86,0.17103
2335.71,0.17532
2312.57,0.17640
2289.42,0.17602
2266.28,0.17380
2243.13,0.16950
2219.99,0.16918
2196.84,0.16537
2173.7,0.15494
2150.55,0.14714
2127.41,0.14571
2104.26,0.14786
2081.12,0.15119
2057.97,0.15092
2034.83,0.15392
2011.68,0.16175
1988.54,0.16833
1965.39,0.16797
1942.25,0.16937
1919.1,0.17576
1895.96,0.17638
1872.81,0.17577
1849.67,0.16863
1826.52,0.15543
1803.38,0.13008
1780.23,0.09424
1757.09,0.05390
1733.94,0.04680
1710.8,0.05466
1687.65,0.05956
1664.51,0.05657
1641.36,0.05469
1618.22,0.05344
1595.07,0.05020
1571.93,0.06643
1548.78,0.07238
1525.64,0.06104
1502.49,0.04959
1479.35,0.05098
1456.2,0.04305
1433.06,0.04197
1409.91,0.04516
1386.77,0.04075
1363.62,0.04285
1340.48,0.04147
1317.33,0.04200
1294.19,0.04330
1271.04,0.03779
1247.9,0.03757
1224.75,0.04259
1201.61,0.04146
1178.46,0.03433
1155.32,0.04051
1132.17,0.03316
1109.03,0.04140
1085.88,0.04027
1062.74,0.05636
1039.59,0.06830
1016.45,0.07078
993.304,0.07067
970.159,0.07849
947.014,0.09070
923.869,0.08671
900.724,0.07751
877.579,0.08557
854.434,0.08541
831.289,0.07959
808.144,0.08273
784.999,0.08040
761.854,0.07331
738.709,0.06761
715.565,0.06433
692.42,0.06314
669.275,0.05858
646.13,0.05835
622.985,0.05693
599.84,0.06001

File: Bamboo_Rug_IS_S_220822_R4.dpt
7497.03,0.76914
7473.89,0.75691
7450.74,0.73770
7427.6,0.73977
7404.45,0.72147
7381.31,0.71030
7358.16,0.70893
7335.02,0.68792
7311.87,0.68636
7288.73,0.68226
7265.58,0.67943
7242.44,0.67717
7219.29,0.67475
7196.15,0.66227
7173,0.65308
7149.86,0.63058
7126.71,0.61400
7103.57,0.59017
7080.42,0.56663
7057.28,0.55180
7034.13,0.52993
7010.99,0.50992
6987.84,0.50217
6964.7,0.48871
6941.55,0.48588
6918.41,0.48480
6895.26,0.47769
6872.12,0.47850
6848.97,0.47694
6825.83,0.48091
6802.68,0.47148
6779.54,0.47627
6756.39,0.47791
6733.25,0.48217
6710.1,0.48773
6686.96,0.48387
6663.82,0.49312
6640.67,0.49640
6617.53,0.50011
6594.38,0.50359
6571.24,0.50446
6548.09,0.51467
6524.95,0.51382
6501.8,0.51655
6478.66,0.51681
6455.51,0.52086
6432.37,0.52406
6409.22,0.52428
6386.08,0.52514
6362.93,0.52570
6339.79,0.52761
6316.64,0.53140
6293.5,0.53308
6270.35,0.53602
6247.21,0.54281
6224.06,0.55390
6200.92,0.55833
6177.77,0.56649
6154.63,0.56956
6131.48,0.57813
6108.34,0.57881
6085.19,0.57735
6062.05,0.57753
6038.9,0.57019
6015.76,0.56464
5992.61,0.56111
5969.47,0.55420
5946.32,0.55230
5923.18,0.55129
5900.03,0.54583
5876.89,0.54517
5853.74,0.54555
5830.6,0.54089
5807.45,0.53444
5784.31,0.53920
5761.16,0.54337
5738.02,0.54719
5714.87,0.54668
5691.73,0.54285
5668.58,0.54197
5645.44,0.53831
5622.29,0.53747
5599.15,0.53657
5576,0.54052
5552.86,0.54210
5529.71,0.54663
5506.57,0.54696
5483.42,0.54888
5460.28,0.55133
5437.13,0.55845
5413.99,0.56241
5390.84,0.56351
5367.7,0.56257
5344.55,0.55410
5321.41,0.53835
5298.26,0.50862
5275.12,0.45961
5251.97,0.40492
5228.83,0.37503
5205.68,0.36342
5182.54,0.36228
5159.39,0.37163
5136.25,0.38716
5113.1,0.39844
5089.96,0.41293
5066.81,0.42611
5043.67,0.43766
5020.52,0.44779
4997.38,0.45266
4974.23,0.45166
4951.09,0.43995
4927.94,0.42277
4904.8,0.40138
4881.65,0.38288
4858.51,0.36449
4835.36,0.34988
4812.22,0.34068
4789.07,0.33708
4765.93,0.33149
4742.78,0.33128
4719.64,0.33376
4696.49,0.33574
4673.35,0.34093
4650.2,0.34961
4627.06,0.35859
4603.92,0.36733
4580.77,0.37400
4557.63,0.38096
4534.48,0.38533
4511.34,0.38460
4488.19,0.37374
4465.05,0.34765
4441.9,0.31809
4418.76,0.29861
4395.61,0.29303
4372.47,0.29910
4349.32,0.30047
4326.18,0.29248
4303.03,0.28376
4279.89,0.28116
4256.74,0.28514
4233.6,0.28733
4210.45,0.28893
4187.31,0.29003
4164.16,0.29203
4141.02,0.28658
4117.87,0.27309
4094.73,0.25777
4071.58,0.23984
4048.44,0.22388
4025.29,0.21234
4002.15,0.21127
3979,0.21617
3955.86,0.22240
3932.71,0.23112
3909.57,0.23988
3886.42,0.24864
3863.28,0.25682
3840.13,0.26610
3816.99,0.26903
3793.84,0.26614
3770.7,0.26081
3747.55,0.25119
3724.41,0.23634
3701.26,0.20908
3678.12,0.16129
3654.97,0.11340
3631.83,0.08632
3608.68,0.07073
3585.54,0.06002
3562.39,0.05234
3539.25,0.04726
3516.1,0.04322
3492.96,0.04189
3469.81,0.03982
3446.67,0.03903
3423.52,0.03938
3400.38,0.04037
3377.23,0.04167
3354.09,0.04214
3330.94,0.04418
3307.8,0.04641
3284.65,0.04744
3261.51,0.05053
3238.36,0.05281
3215.22,0.05636
3192.07,0.05908
3168.93,0.06224
3145.78,0.06651
3122.64,0.06946
3099.49,0.07330
3076.35,0.07630
3053.2,0.08023
3030.06,0.08046
3006.91,0.07793
2983.77,0.07127
2960.62,0.06251
2937.48,0.05689
2914.33,0.05783
2891.19,0.05883
2868.04,0.06259
2844.9,0.06904
2821.75,0.08196
2798.61,0.08982
2775.46,0.09388
2752.32,0.09617
2729.17,0.09819
2706.03,0.10205
2682.88,0.10648
2659.74,0.11059
2636.59,0.11423
2613.45,0.11885
2590.3,0.12250
2567.16,0.12521
2544.02,0.12770
2520.87,0.13003
2497.73,0.13442
2474.58,0.13950
2451.44,0.14379
2428.29,0.15113
2405.15,0.15916
2382,0.16634
2358.86,0.17102
2335.71,0.17609
2312.57,0.17734
2289.42,0.17660
2266.28,0.17456
2243.13,0.17018
2219.99,0.17039
2196.84,0.16606
2173.7,0.15577
2150.55,0.14786
2127.41,0.14647
2104.26,0.14884
2081.12,0.15164
2057.97,0.15226
2034.83,0.15454
2011.68,0.16274
1988.54,0.16888
1965.39,0.16875
1942.25,0.17035
1919.1,0.17682
1895.96,0.17727
1872.81,0.17660
1849.67,0.16931
1826.52,0.15656
1803.38,0.13082
1780.23,0.09395
1757.09,0.05380
1733.94,0.04730
1710.8,0.05527
1687.65,0.06016
1664.51,0.05721
1641.36,0.05508
1618.22,0.05354
1595.07,0.05063
1571.93,0.06651
1548.78,0.07217
1525.64,0.06122
1502.49,0.05008
1479.35,0.05143
1456.2,0.04274
1433.06,0.04179
1409.91,0.04494
1386.77,0.04062
1363.62,0.04250
1340.48,0.04133
1317.33,0.04250
1294.19,0.04310
1271.04,0.03788
1247.9,0.03776
1224.75,0.04215
1201.61,0.04182
1178.46,0.03411
1155.32,0.04103
1132.17,0.03303
1109.03,0.04037
1085.88,0.04048
1062.74,0.05650
1039.59,0.06837
1016.45,0.07135
993.304,0.07074
970.159,0.07910
947.014,0.09006
923.869,0.08683
900.724,0.07796
877.579,0.08567
854.434,0.08453
831.289,0.08013
808.144,0.08348
784.999,0.08101
761.854,0.07479
738.709,0.06800
715.565,0.06440
692.42,0.06240
669.275,0.05843
646.13,0.05821
622.985,0.05706
599.84,0.06157