Folder: fsri_materials_database/01_Data/Roof_Felt/Cone

Note: README.md
# Materials and Products Database
### Repository of materials and products properties and fire test data to improve fire modeling and fire investigation.

This project was supported in part by Award No. 2019-DU-BX-0018, awarded by the National Institute of Justice, Office of Justice Programs, U.S. Department of Justice. The opinions, findings, and conclusions or recommendations expressed in this publication / program / exhibition are those of the author(s) and do not necessarily reflect those of the Department of Justice.

***
***

__Cite this database:__ "McKinnon, M., Weinschenk, C., Dow, N., DiDomizio, M., and Madrzykowski, D. Materials and Products Database (Version 1.0.0), Fire Safety Research Institute, UL Research Institutes. Columbia, MD 21045, 2023."

__Cite the Technical Reference Guide:__ "McKinnon, M., Weinschenk, C., and Madrzykowski, D. Materials and Products Database - Technical Reference Guide, Fire Safety Research Institute, UL Research Institutes. Columbia, MD 21045, 2023."

__Cite the User Guide:__ "McKinnon, M., and Weinschenk, C. Materials and Products Database - User Guide, Fire Safety Research Institute, UL Research Institutes. Columbia, MD 21045, 2023."

***
***

## Database Structure

## 01_Data/
Raw data generated from each apparatus are included here in plain-text format. The data is organized first by material, next by the short name of test apparatus used, and where applicable additional filtering by test settings.

### Test Apparatus and Data File Structure
- __Cone Calorimeter__ (Cone)
    + Data file structure includes the material, the short name for the apparatus, heat flux setting and scan/scalar, date of test, and replicate number. Scan is for the raw output data and scalar is for the initial conditions and high-level test parameters. 
        * Example: __MDF_Cone_HF25scalar_210323_R1__ stands for the first replicate of scalar data generated from a medium density fiber board test in cone calorimeter exposed to 25 kW/m<sup>2</sup> on March 23, 2021.
    + A _Cone_Notes.csv_ is generated for each material from the __plot_Cone_data.py__ script. For materials whose experiments deviated from typical behavior relevant pictures are included in the respective material directory.
- __Fourier Transform Infrared Spectrometer__ (FTIR)
    + The FTIR directory contains subdirectories for the Attenuated Total Reflectance method (ATR) and the Integrating Sphere (IS)
    + Data file structure for the ATR experiment files includes the material, the abbreviated name for the apparatus, date of test, and replicate number. 
        * Example: __MDF_ATR_210323_R5__ stands for the fifth replicate of data collected with the ATR accessory conducted on June 8, 2021.
    + Data file structure for the IS experiment files includes the material, the abbreviated name for the apparatus, the measurand, whether the test is a sample measurement or standard reference, date of test, and replicate number.
        * Example: __OSB_IS_REFLECT_MEAS_2

File: Roof_Felt_HRRPUA_25.csv
Time after Ignition,Roof_Felt_R1,Roof_Felt_R2,Roof_Felt_R3,Mean,Std. Dev.
0.0,15.9,14.4,15.5,15.3,0.8
0.5,22.0,21.4,20.8,21.4,0.6
1.0,27.2,31.1,32.1,30.1,2.6
1.5,43.3,47.3,41.1,43.9,3.2
2.0,61.6,60.8,57.4,59.9,2.3
2.5,81.4,73.1,72.8,75.7,4.9
3.0,95.2,87.5,83.3,88.7,6.0
3.5,106.8,101.5,96.7,101.7,5.0
4.0,128.9,113.2,112.1,118.0,9.4
4.5,142.7,128.8,124.8,132.1,9.4
5.0,166.8,140.2,147.1,151.4,13.8
5.5,184.8,157.3,165.0,169.0,14.2
6.0,201.7,175.7,186.4,188.0,13.1
6.5,223.0,195.7,202.4,207.0,14.3
7.0,242.4,204.6,225.6,224.2,18.9
7.5,275.5,221.2,247.5,248.0,27.2
8.0,299.3,236.1,266.2,267.2,31.6
8.5,326.4,248.7,296.6,290.6,39.2
9.0,334.9,265.6,310.5,303.7,35.2
9.5,368.3,290.1,342.8,333.7,39.9
10.0,378.6,299.8,359.3,345.9,41.1
10.5,406.7,306.4,381.5,364.9,52.2
11.0,414.1,323.2,411.6,383.0,51.8
11.5,434.0,336.8,424.6,398.5,53.6
12.0,448.6,346.2,450.0,414.9,59.5
12.5,462.9,353.8,481.3,432.7,69.0
13.0,465.7,366.8,491.8,441.4,65.9
13.5,470.5,375.5,515.1,453.7,71.3
14.0,480.7,390.7,519.6,463.7,66.1
14.5,495.7,393.8,533.2,474.2,72.1
15.0,494.4,400.6,543.8,479.6,72.7
15.5,499.3,411.6,564.4,491.8,76.7
16.0,503.5,413.2,562.8,493.2,75.4
16.5,509.7,423.8,574.0,502.5,75.3
17.0,508.4,422.8,575.0,502.1,76.3
17.5,499.1,433.8,573.6,502.2,69.9
18.0,498.5,428.8,546.7,491.4,59.3
18.5,500.2,444.8,545.0,496.7,50.2
19.0,484.1,450.6,538.3,491.0,44.2
19.5,482.8,434.9,537.7,485.1,51.5
20.0,474.6,448.1,519.2,480.6,35.9
20.5,458.1,442.0,505.4,468.5,33.0
21.0,461.3,440.4,490.9,464.2,25.4
21.5,442.3,437.4,474.0,451.2,19.8
22.0,430.2,435.1,458.4,441.2,15.0
22.5,418.8,416.4,446.2,427.1,16.5
23.0,406.4,410.0,421.4,412.6,7.9
23.5,403.6,403.9,420.3,409.3,9.5
24.0,388.1,387.9,398.8,391.6,6.3
24.5,383.1,391.4,385.4,386.7,4.2
25.0,371.1,387.1,383.9,380.7,8.4
25.5,357.0,372.5,359.9,363.1,8.2
26.0,360.1,362.6,350.6,357.8,6.3
26.5,349.3,359.9,340.7,350.0,9.6
27.0,345.3,353.6,329.4,342.7,12.3
27.5,337.8,342.5,314.2,331.5,15.2
28.0,324.0,338.7,302.1,321.6,18.4
28.5,321.0,329.9,289.6,313.5,21.2
29.0,302.9,324.6,277.3,301.6,23.7
29.5,301.1,317.8,270.9,296.6,23.8
30.0,285.4,310.7,254.2,283.4,28.3
30.5,279.0,300.9,247.3,275.7,27.0
31.0,268.4,291.2,239.7,266.5,25.8
31.5,255.7,286.2,234.0,258.6,26.2
32.0,250.4,274.2,227.0,250.5,23.6
32.5,241.3,266.6,219.6,242.5,23.5
33.0,233.9,263.2,218.3,238.5,22.8
33.5,222.7,255.9,210.2,229.6,23.6
34.0,212.8,242.6,206.5,220.6,19.3
34.5,207.4,238.9,199.2,215.1,20.9
35.0,197.2,228.4,192.2,205.9,19.6
35.5,190.5,225.7,184.3,200.1,22.3
36.0,180.1,222.4,177.4,193.3,25.2
36.5,177.5,211.2,172.4,187.0,21.1
37.0,168.9,202.9,166.8,179.5,20.3
37.5,164.3,201.8,159.6,175.3,23.1
38.0,161.4,195.1,155.9,170.8,21.3
38.5,156.5,195.3,153.0,168.3,23.4
39.0,153.2,191.6,148.3,164.4,23.7
39.5,148.3,186.4,142.6,159.1,23.8
40.0,143.8,182.3,136.1,154.1,24.8
40.5,139.2,183.1,133.3,151.8,27.2
41.0,135.9,180.3,130.0,148.7,27.5
41.5,129.5,179.1,125.5,144.7,29.8
42.0,125.1,171.9,124.3,140.5,27.3
42.5,118.6,172.4,118.6,136.5,31.1
43.0,113.2,170.1,115.9,133.1,32.1
43.5,109.7,165.4,111.8,129.0,31.6
44.0,104.6,162.8,109.6,125.7,32.3
44.5,100.7,160.3,105.4,122.1,33.1
45.0,96.9,156.6,106.1,119.9,32.2
45.5,95.2,154.9,101.3,117.1,32.8
46.0,91.8,153.3,100.3,115.2,33.3
46.5,89.7,152.3,96.8,112.9,34.3
47.0,86.2,149.3,96.1,110.5,33.9
47.5,82.8,150.6,93.3,108.9,36.5
48.0,80.6,144.6,91.7,105.6,34.2
48.5,79.6,146.0,88.8,104.8,36.0
49.0,77.0,146.1,86.7,103.3,37.4
49.5,74.8,146.5,86.3,102.5,38.5
50.0,72.7,142.4,83.8,99.7,37.4
50.5,72.1,141.5,80.4,98.0,37.9
51.0,69.4,139.6,77.4,95.5,38.5
51.5,68.0,137.2,74.5,93.2,38.2
52.0,65.3,136.6,71.3,91.0,39.6
52.5,64.2,133.8,70.1,89.4,38.6
53.0,63.1,133.1,66.9,87.7,39.4
53.5,61.3,131.9,64.8,86.0,39.8
54.0,59.7,129.4,62.9,84.0,39.4
54.5,57.3,126.4,61.6,81.8,38.7
55.0,57.1,126.4,59.6,81.0,39.3
55.5,54.8,124.2,58.9,79.3,38.9
56.0,54.5,123.5,56.6,78.2,39.3
56.5,53.6,120.6,54.6,76.2,38.4
57.0,52.7,118.6,52.9,74.7,38.0
57.5,52.0,115.5,51.8,73.1,36.7
58.0,51.4,111.8,50.1,71.1,35.3
58.5,50.5,109.8,48.6,69.6,34.8
59.0,50.3,106.0,47.5,68.0,33.0
59.5,49.4,105.7,46.2,67.1,33.5
60.0,49.6,102.6,46.1,66.1,31.6
60.5,48.5,101.3,45.3,65.0,31.4
61.0,47.4,98.0,44.6,63.3,30.0
61.5,47.3,96.1,44.4,62.6,29.1
62.0,47.0,94.2,42.7,61.3,28.6
62.5,46.5,92.7,43.6,60.9,27.5
63.0,45.7,90.6,43.5,59.9,26.6
63.5,44.5,87.4,43.7,58.5,25.0
64.0,44.5,86.3,,65.4,29.5
64.5,42.5,82.9,,62.7,28.5
65.0,42.0,80.8,,61.4,27.4
65.5,40.5,79.3,,59.9,27.4
66.0,40.1,78.5,,59.3,27.1
66.5,39.7,74.7,,57.2,24.8
67.0,39.0,74.0,,56.5,24.7
67.5,38.0,72.3,,55.1,24.3
68.0,38.3,72.1,,55.2,23.9
68.5,37.6,69.6,,53.6,22.6
69.0,37.1,70.2,,53.6,23.4
69.5,36.5,68.7,,52.6,22.8
70.0,36.3,67.6,,52.0,22.2
70.5,35.3,67.2,,51.2,22.6
71.0,35.8,67.0,,51.4,22.0
71.5,34.6,65.9,,50.3,22.1
72.0,34.3,66.3,,50.3,22.6
72.5,33.9,64.8,,49.3,21.8
73.0,33.3,65.9,,49.6,23.0
73.5,33.1,63.4,,48.3,21.4
74.0,32.6,62.8,,47.7,21.4
74.5,32.9,61.6,,47.3,20.3
75.0,32.6,62.2,,47.4,20.9
75.5,32.3,60.2,,46.3,19.7
76.0,31.5,60.3,,45.9,20.3
76.5,31.5,61.0,,46.3,20.9
77.0,31.1,60.0,,45.6,20.4
77.5,31.5,59.9,,45.7,20.1
78.0,30.9,61.2,,46.1,21.4
78.5,30.8,61.0,,45.9,21.3
79.0,30.4,61.0,,45.7,21.6
79.5,30.6,60.8,,45.7,21.4
80.0,30.5,61.6,,46.0,21.9
80.5,30.9,61.9,,46.4,21.9
81.0,31.0,61.3,,46.1,21.4
81.5,30.4,62.4,,46.4,22.6
82.0,30.2,61.9,,46.0,22.4
82.25,30.1,62.5,,46.3,22.9

File: Roof_Felt_HRRPUA_50.csv
Time after Ignition,Roof_Felt_R1,Roof_Felt_R2,Roof_Felt_R3,Mean,Std. Dev.
0.0,32.6,48.6,67.0,49.4,17.2
0.5,46.6,59.4,93.8,66.6,24.4
1.0,62.6,86.4,112.2,87.1,24.8
1.5,87.6,104.5,149.3,113.8,31.9
2.0,116.1,130.5,173.1,139.9,29.7
2.5,136.7,151.5,214.1,167.4,41.1
3.0,184.3,185.3,240.7,203.4,32.3
3.5,220.5,220.6,283.9,241.7,36.6
4.0,280.8,253.6,318.2,284.2,32.4
4.5,332.1,286.1,358.9,325.7,36.8
5.0,373.0,310.8,395.5,359.8,43.9
5.5,436.0,367.1,445.6,416.2,42.8
6.0,449.8,405.1,477.6,444.2,36.6
6.5,499.5,424.5,516.1,480.0,48.8
7.0,530.6,436.8,555.2,507.5,62.5
7.5,588.6,472.3,577.3,546.0,64.1
8.0,614.4,513.3,605.7,577.8,56.0
8.5,686.3,535.3,640.5,620.7,77.4
9.0,724.3,589.6,673.3,662.4,68.0
9.5,741.9,594.2,646.7,660.9,74.9
10.0,755.4,646.4,713.4,705.1,55.0
10.5,783.5,670.0,731.0,728.2,56.8
11.0,803.4,699.5,774.1,759.0,53.6
11.5,840.8,713.8,780.7,778.4,63.5
12.0,878.9,726.8,798.4,801.4,76.1
12.5,883.1,746.2,789.6,806.3,70.0
13.0,886.0,738.3,792.2,805.5,74.7
13.5,901.3,738.6,787.8,809.3,83.4
14.0,913.0,752.1,796.3,820.5,83.2
14.5,864.7,775.3,758.9,799.6,57.0
15.0,840.9,787.7,759.9,796.2,41.1
15.5,823.3,767.0,750.2,780.1,38.3
16.0,796.5,748.3,737.6,760.8,31.4
16.5,760.4,722.4,711.3,731.4,25.7
17.0,715.8,720.6,685.4,707.3,19.1
17.5,665.6,696.9,667.1,676.6,17.7
18.0,613.9,661.9,632.3,636.0,24.2
18.5,585.2,609.1,600.5,598.3,12.1
19.0,536.6,583.3,550.3,556.7,24.0
19.5,505.3,534.8,521.3,520.5,14.8
20.0,475.9,499.6,482.8,486.1,12.2
20.5,438.4,475.9,442.8,452.4,20.5
21.0,394.6,434.4,410.0,413.0,20.1
21.5,372.3,404.4,375.0,383.9,17.8
22.0,347.9,377.5,352.1,359.2,16.0
22.5,327.2,351.9,329.7,336.3,13.6
23.0,305.0,328.5,321.3,318.3,12.0
23.5,281.4,307.8,296.5,295.3,13.2
24.0,263.6,285.1,271.6,273.4,10.9
24.5,248.8,266.5,262.3,259.2,9.2
25.0,229.8,249.9,247.0,242.2,10.8
25.5,217.1,237.1,231.7,228.6,10.4
26.0,200.4,220.6,218.3,213.1,11.1
26.5,193.9,209.0,210.7,204.5,9.2
27.0,180.7,198.0,199.0,192.6,10.3
27.5,170.7,188.2,190.9,183.3,11.0
28.0,159.2,180.2,186.5,175.3,14.3
28.5,150.7,172.4,176.2,166.5,13.7
29.0,142.2,160.2,169.8,157.4,14.0
29.5,137.3,154.3,165.5,152.4,14.2
30.0,130.2,147.1,158.8,145.4,14.4
30.5,124.8,140.8,152.4,139.3,13.9
31.0,117.7,134.7,149.5,133.9,15.9
31.5,113.3,129.9,147.0,130.0,16.8
32.0,111.4,124.6,140.6,125.5,14.6
32.5,106.1,119.4,133.9,119.8,13.9
33.0,104.2,114.6,130.8,116.5,13.4
33.5,99.4,110.3,126.9,112.2,13.8
34.0,96.3,107.5,121.8,108.5,12.8
34.5,93.6,105.0,118.3,105.6,12.4
35.0,93.8,101.5,115.9,103.7,11.2
35.5,89.2,99.8,113.2,100.7,12.0
36.0,88.5,97.4,110.2,98.7,10.9
36.5,87.7,95.4,108.3,97.1,10.4
37.0,86.0,91.8,106.0,94.6,10.3
37.5,83.9,91.2,103.7,92.9,10.0
38.0,81.8,90.6,101.5,91.3,9.8
38.5,80.2,88.5,100.0,89.6,9.9
39.0,78.6,85.4,99.5,87.8,10.7
39.5,77.6,84.9,97.5,86.7,10.1
40.0,76.7,83.1,95.2,85.0,9.4
40.5,77.0,82.5,93.2,84.2,8.2
41.0,75.4,79.7,90.7,81.9,7.9
41.5,73.5,79.5,88.3,80.4,7.4
42.0,72.8,78.9,88.2,79.9,7.8
42.5,71.3,77.7,84.9,78.0,6.8
43.0,71.9,76.9,84.3,77.7,6.2
43.5,69.1,76.8,81.5,75.8,6.3
44.0,68.5,73.8,80.4,74.2,5.9
44.5,67.0,73.8,80.6,73.8,6.8
45.0,66.3,74.3,80.1,73.6,6.9
45.5,65.2,72.9,78.2,72.1,6.5
46.0,64.7,71.8,76.9,71.1,6.1
46.5,63.9,70.1,76.0,70.0,6.0
47.0,64.1,69.9,75.5,69.8,5.7
47.5,64.4,68.1,73.7,68.7,4.7
48.0,63.5,68.5,74.2,68.7,5.3
48.5,63.7,67.3,73.1,68.0,4.7
49.0,63.2,66.3,72.8,67.4,4.9
49.5,62.5,65.3,71.7,66.5,4.7
50.0,61.4,64.4,70.2,65.3,4.4
50.5,61.1,63.9,69.5,64.8,4.3
51.0,59.9,62.5,68.8,63.7,4.6
51.5,59.8,61.7,68.0,63.2,4.3
52.0,58.2,61.0,67.6,62.3,4.8
52.5,58.0,60.3,66.5,61.6,4.4
53.0,57.4,59.9,66.8,61.4,4.9
53.5,57.5,59.6,65.5,60.9,4.1
54.0,56.0,58.6,65.4,60.0,4.9
54.5,56.0,57.8,64.5,59.5,4.5
55.0,55.4,57.5,64.1,59.0,4.5
55.5,55.5,56.8,63.9,58.7,4.6
56.0,55.4,56.1,62.5,58.0,3.9
56.5,54.3,55.8,61.4,57.1,3.7
57.0,53.9,54.9,61.4,56.7,4.1
57.5,52.9,54.8,60.1,55.9,3.7
58.0,52.3,54.7,60.8,55.9,4.4
58.5,51.5,53.6,60.7,55.2,4.8
59.0,50.6,51.9,59.7,54.1,4.9
59.5,50.6,52.0,60.3,54.3,5.2
60.0,50.6,52.2,60.6,54.4,5.4
60.5,49.4,51.9,60.0,53.7,5.5
61.0,50.0,52.0,58.8,53.6,4.6
61.5,49.4,51.4,58.9,53.2,5.0
62.0,49.2,51.0,59.2,53.1,5.3
62.5,48.4,50.7,59.3,52.8,5.7
63.0,48.8,50.4,58.8,52.6,5.4
63.5,47.7,50.1,59.2,52.3,6.1
64.0,47.8,50.4,58.0,52.1,5.3
64.5,48.1,50.1,57.9,52.1,5.2
65.0,47.0,49.7,59.0,51.9,6.3
65.5,47.3,49.8,57.2,51.4,5.2
66.0,46.8,49.8,57.0,51.2,5.2
66.5,47.3,49.6,56.6,51.1,4.8
67.0,47.1,49.4,57.0,51.2,5.2
67.5,45.6,48.7,57.1,50.5,5.9
68.0,44.7,49.5,56.7,50.3,6.0
68.5,45.7,48.6,56.6,50.3,5.6
69.0,45.3,48.0,56.2,49.8,5.7
69.5,44.0,47.8,54.8,48.9,5.5
70.0,44.0,47.5,55.4,49.0,5.8
70.5,43.1,46.3,54.9,48.1,6.1
71.0,43.4,46.2,55.4,48.3,6.3
71.5,42.8,46.8,54.6,48.1,6.0
72.0,42.1,46.7,54.7,47.9,6.4
72.5,42.5,46.1,54.7,47.8,6.3
73.0,41.2,45.7,54.6,47.2,6.8
73.5,41.3,45.9,54.1,47.1,6.5
74.0,40.5,44.9,53.4,46.3,6.5
74.5,40.0,45.1,52.9,46.0,6.5
75.0,39.1,44.6,52.4,45.4,6.7
75.5,39.1,44.5,52.0,45.2,6.5
76.0,38.7,44.7,52.6,45.3,7.0
76.5,37.6,44.7,50.9,44.4,6.7
77.0,38.3,44.5,51.2,44.7,6.5
77.5,37.3,43.5,50.8,43.8,6.8
78.0,37.3,43.1,50.7,43.7,6.7
78.5,37.1,43.7,50.0,43.6,6.5
79.0,37.0,43.1,49.7,43.3,6.4
79.5,36.7,42.2,49.3,42.7,6.3
80.0,36.5,43.0,49.4,43.0,6.4
80.5,36.3,42.1,49.8,42.7,6.8
81.0,35.7,43.0,49.0,42.6,6.7
81.5,35.5,41.9,48.7,42.1,6.6
82.0,35.4,42.1,48.0,41.9,6.3
82.5,35.0,42.0,48.5,41.8,6.7
83.0,34.7,42.1,48.1,41.6,6.7
83.5,34.5,41.7,47.7,41.3,6.6
84.0,33.8,41.5,47.7,41.0,7.0
84.5,33.3,42.1,47.0,40.8,6.9
85.0,32.9,41.1,47.6,40.5,7.4
85.5,32.8,40.7,47.0,40.2,7.1
86.0,32.7,41.4,46.4,40.2,6.9
86.5,32.6,40.7,45.9,39.7,6.7
87.0,32.4,40.2,44.9,39.2,6.3
87.5,31.9,,44.4,38.1,8.8
88.0,32.0,,44.3,38.1,8.7
88.5,31.5,,43.5,37.5,8.4
89.0,31.1,,43.6,37.3,8.8
89.5,31.0,,44.0,37.5,9.1
90.0,31.3,,43.3,37.3,8.5
90.5,30.8,,43.1,37.0,8.7
91.0,30.8,,42.7,36.7,8.5
91.5,30.8,,42.8,36.8,8.5
92.0,30.7,,42.9,36.8,8.6
92.5,30.7,,42.6,36.6,8.4
93.0,30.5,,41.9,36.2,8.1
93.5,30.3,,41.8,36.0,8.1
94.0,30.5,,41.8,36.1,8.0
94.25,30.3,,41.5,35.9,7.9

File: Roof_Felt_HRRPUA_75.csv
Time after Ignition,Roof_Felt_R1,Roof_Felt_R2,Roof_Felt_R3,Mean,Std. Dev.
0.0,46.8,44.9,45.3,45.6,1.0
0.5,67.8,60.8,61.2,63.2,3.9
1.0,96.9,107.0,109.2,104.4,6.6
1.5,126.7,142.3,150.7,139.9,12.2
2.0,148.5,214.0,195.4,186.0,33.8
2.5,198.7,224.7,242.2,221.8,21.9
3.0,258.9,303.4,299.4,287.2,24.7
3.5,294.9,358.6,370.0,341.1,40.5
4.0,347.4,401.0,417.0,388.4,36.5
4.5,404.3,455.8,496.8,452.3,46.4
5.0,432.6,498.6,583.1,504.8,75.4
5.5,504.1,563.7,653.2,573.6,75.0
6.0,570.5,601.8,687.6,620.0,60.6
6.5,595.5,659.4,780.6,678.5,94.0
7.0,684.4,685.8,887.0,752.4,116.6
7.5,671.9,749.6,857.1,759.5,93.0
8.0,788.3,825.5,931.7,848.5,74.4
8.5,796.3,844.7,984.5,875.2,97.7
9.0,838.2,946.3,1025.0,936.5,93.8
9.5,972.6,1005.7,1082.9,1020.4,56.6
10.0,952.7,1081.2,1092.1,1042.0,77.5
10.5,1032.5,1094.5,1099.1,1075.4,37.2
11.0,1056.1,1160.7,1027.3,1081.4,70.2
11.5,1117.5,1144.8,1016.1,1092.8,67.8
12.0,1126.2,1181.9,948.6,1085.6,121.8
12.5,1104.5,1195.0,901.7,1067.1,150.2
13.0,1101.1,1168.2,856.0,1041.8,164.4
13.5,1113.8,1155.5,795.0,1021.4,197.2
14.0,1099.5,1088.0,753.9,980.4,196.3
14.5,1042.2,1025.0,718.5,928.6,182.2
15.0,1014.6,996.8,667.1,892.8,195.7
15.5,941.1,914.7,616.8,824.2,180.1
16.0,876.2,835.9,578.2,763.4,161.7
16.5,809.3,774.6,537.8,707.2,147.8
17.0,734.3,712.4,502.4,649.7,128.0
17.5,670.6,652.0,464.2,595.6,114.2
18.0,612.7,590.5,432.0,545.1,98.5
18.5,560.6,545.8,406.1,504.2,85.3
19.0,514.8,500.3,382.3,465.8,72.7
19.5,468.2,461.4,354.5,428.0,63.8
20.0,429.3,421.7,339.6,396.9,49.7
20.5,400.5,392.9,317.9,370.4,45.7
21.0,363.0,360.1,305.2,342.8,32.6
21.5,339.8,335.8,296.5,324.0,23.9
22.0,314.6,301.6,282.9,299.7,16.0
22.5,293.3,280.1,273.7,282.4,10.0
23.0,267.8,259.5,263.6,263.6,4.2
23.5,248.7,238.3,255.8,247.6,8.8
24.0,232.5,222.1,246.1,233.6,12.0
24.5,213.2,207.5,235.7,218.8,14.9
25.0,203.4,192.2,227.9,207.8,18.2
25.5,189.2,178.6,218.4,195.4,20.6
26.0,176.8,171.6,209.0,185.8,20.3
26.5,172.4,160.7,199.1,177.4,19.7
27.0,162.3,152.1,192.0,168.8,20.8
27.5,156.8,144.7,181.1,160.9,18.5
28.0,148.4,139.8,173.9,154.0,17.7
28.5,143.0,132.7,169.9,148.5,19.2
29.0,139.6,126.7,161.9,142.7,17.8
29.5,140.1,121.1,155.1,138.8,17.0
30.0,135.0,118.0,151.2,134.7,16.6
30.5,132.9,114.8,143.0,130.2,14.3
31.0,128.9,114.8,137.7,127.1,11.5
31.5,125.6,107.5,134.5,122.5,13.7
32.0,118.5,106.5,129.2,118.1,11.4
32.5,117.6,104.4,123.8,115.3,9.9
33.0,112.5,100.9,121.1,111.5,10.2
33.5,108.9,100.7,114.3,107.9,6.9
34.0,106.3,96.8,110.4,104.5,7.0
34.5,103.7,93.5,107.3,101.5,7.2
35.0,101.7,92.6,106.8,100.4,7.2
35.5,97.5,90.3,103.4,97.1,6.5
36.0,95.9,88.4,100.2,94.8,6.0
36.5,93.7,87.3,98.0,93.0,5.4
37.0,91.6,85.7,96.4,91.2,5.4
37.5,90.1,84.5,94.7,89.8,5.1
38.0,87.1,82.0,92.5,87.2,5.2
38.5,85.8,80.9,90.3,85.6,4.7
39.0,86.5,78.9,88.7,84.7,5.1
39.5,85.1,78.0,87.5,83.5,5.0
40.0,83.0,77.1,83.9,81.3,3.7
40.5,81.3,76.5,83.9,80.6,3.7
41.0,80.6,74.8,80.5,78.6,3.3
41.5,79.6,74.1,79.6,77.8,3.2
42.0,78.4,73.4,78.7,76.9,3.0
42.5,78.1,72.7,77.5,76.1,2.9
43.0,77.4,72.1,77.5,75.7,3.1
43.5,78.2,70.5,75.9,74.9,3.9
44.0,76.7,70.4,75.0,74.0,3.3
44.5,74.4,70.6,73.6,72.9,2.0
45.0,74.7,70.1,74.5,73.1,2.6
45.5,73.8,68.7,73.2,71.9,2.8
46.0,73.3,68.1,71.9,71.1,2.7
46.5,72.6,67.2,71.3,70.4,2.8
47.0,71.7,66.7,69.3,69.2,2.5
47.5,72.2,66.8,69.3,69.4,2.7
48.0,71.0,66.1,68.2,68.4,2.5
48.5,69.7,66.1,67.6,67.8,1.8
49.0,70.3,65.2,65.9,67.1,2.7
49.5,68.8,64.6,66.3,66.5,2.1
50.0,67.7,64.1,66.5,66.1,1.8
50.5,68.6,63.9,64.5,65.7,2.6
51.0,68.1,63.2,64.1,65.1,2.6
51.5,66.4,61.8,63.5,63.9,2.3
52.0,66.2,62.0,63.7,64.0,2.1
52.5,66.0,62.9,62.2,63.7,2.0
53.0,65.4,62.1,63.6,63.7,1.6
53.5,65.7,62.0,62.8,63.5,1.9
54.0,64.7,62.3,62.4,63.1,1.4
54.5,64.1,61.8,61.8,62.5,1.3
55.0,64.7,62.1,61.1,62.6,1.8
55.5,63.7,61.9,60.5,62.0,1.6
56.0,64.3,61.7,61.4,62.4,1.6
56.5,64.2,60.9,59.7,61.6,2.3
57.0,63.5,61.2,60.2,61.6,1.7
57.5,63.3,61.6,59.3,61.4,2.0
58.0,62.5,61.0,58.7,60.8,1.9
58.5,62.6,60.3,58.7,60.5,2.0
59.0,62.3,60.7,58.6,60.5,1.9
59.5,62.3,60.8,58.3,60.4,2.0
60.0,62.7,60.5,58.3,60.5,2.2
60.5,62.5,60.5,57.5,60.2,2.5
61.0,61.4,60.3,57.2,59.6,2.2
61.5,61.4,59.6,56.9,59.3,2.3
62.0,61.3,59.3,55.9,58.8,2.8
62.5,60.0,59.1,56.9,58.7,1.6
63.0,59.3,59.4,56.4,58.4,1.7
63.5,58.8,58.7,55.8,57.8,1.7
64.0,58.9,58.8,55.9,57.9,1.7
64.5,57.4,58.7,55.7,57.3,1.5
65.0,58.3,58.2,55.3,57.2,1.7
65.5,57.2,57.7,55.2,56.7,1.3
66.0,57.5,58.2,55.1,56.9,1.6
66.5,56.6,58.7,55.0,56.7,1.9
67.0,57.8,57.4,54.5,56.6,1.8
67.5,56.7,57.5,54.4,56.2,1.6
68.0,56.7,57.7,54.7,56.4,1.6
68.5,57.3,57.9,53.4,56.2,2.4
69.0,55.8,57.5,53.8,55.7,1.9
69.5,55.5,57.1,53.5,55.4,1.8
70.0,55.2,57.4,53.7,55.5,1.9
70.5,55.1,56.2,52.6,54.6,1.8
71.0,55.1,56.9,52.9,55.0,2.0
71.5,55.0,56.2,53.0,54.7,1.6
72.0,54.0,56.9,53.4,54.8,1.9
72.5,54.4,56.3,52.0,54.2,2.1
73.0,53.3,56.0,52.1,53.8,2.0
73.5,53.0,55.3,52.2,53.5,1.6
74.0,53.0,55.8,52.1,53.6,1.9
74.5,53.4,55.3,51.9,53.6,1.7
75.0,53.2,55.4,52.0,53.5,1.7
75.5,53.1,55.5,51.0,53.2,2.2
76.0,50.9,55.8,51.2,52.6,2.8
76.5,51.4,55.5,51.9,52.9,2.3
77.0,52.2,55.8,51.2,53.1,2.4
77.5,50.6,56.2,50.2,52.3,3.4
78.0,51.2,55.7,50.7,52.5,2.7
78.5,50.7,56.4,50.5,52.5,3.3
79.0,49.5,56.4,50.1,52.0,3.8
79.5,49.6,56.9,49.0,51.8,4.4
80.0,49.0,57.6,49.1,51.9,4.9
80.5,49.2,57.9,48.5,51.9,5.2
81.0,48.2,58.5,48.4,51.7,5.9
81.5,47.5,57.5,48.7,51.2,5.4
82.0,47.5,58.2,48.2,51.3,6.0
82.5,47.5,58.2,47.6,51.1,6.2
83.0,47.1,58.3,48.3,51.2,6.2
83.5,47.3,59.2,47.3,51.3,6.9
84.0,47.3,58.9,46.7,51.0,6.9
84.5,46.7,59.3,46.5,50.9,7.3
85.0,46.3,57.8,46.5,50.2,6.6
85.5,46.9,58.4,46.0,50.5,6.9
86.0,46.3,56.5,45.7,49.5,6.1
86.5,46.0,56.1,46.0,49.3,5.8
87.0,44.9,55.6,45.4,48.7,6.0
87.5,45.1,54.9,44.9,48.3,5.7
88.0,45.8,54.3,45.2,48.4,5.1
88.5,45.0,53.3,45.3,47.9,4.7
89.0,45.6,53.5,44.3,47.8,5.0
89.5,44.6,52.8,45.0,47.5,4.6
90.0,44.3,51.7,43.7,46.6,4.5
90.5,44.9,50.3,43.8,46.3,3.4
91.0,44.0,50.4,43.7,46.0,3.8
91.5,43.7,49.8,44.1,45.9,3.4
92.0,44.4,48.9,43.1,45.5,3.1
92.5,44.1,48.3,43.3,45.3,2.7
93.0,44.3,47.6,42.1,44.7,2.8
93.5,42.9,47.4,42.1,44.1,2.8
94.0,42.7,46.6,42.0,43.8,2.5
94.5,42.2,46.3,41.3,43.3,2.7
95.0,42.4,45.1,41.1,42.8,2.0
95.5,42.5,45.5,40.8,42.9,2.4
96.0,42.0,44.7,40.7,42.5,2.0
96.5,41.8,43.4,40.4,41.9,1.5
97.0,41.5,43.7,39.8,41.7,2.0
97.5,41.2,43.1,39.8,41.4,1.7
98.0,41.6,42.4,39.0,41.0,1.8
98.5,40.6,41.9,38.8,40.4,1.6
99.0,40.0,42.0,38.3,40.1,1.9
99.5,39.5,41.0,37.6,39.4,1.7
100.0,39.2,40.4,38.3,39.3,1.0
100.5,39.1,41.1,37.5,39.2,1.8
101.0,39.0,39.5,37.1,38.5,1.3
101.5,38.2,39.5,36.4,38.0,1.6
102.0,38.3,38.8,36.1,37.7,1.4
102.5,37.5,38.7,35.8,37.3,1.5
103.0,36.8,38.9,35.7,37.1,1.6
103.5,36.3,38.3,35.4,36.7,1.5
104.0,36.2,38.6,34.1,36.3,2.3
104.5,35.4,38.1,34.6,36.0,1.8
105.0,35.6,38.2,34.4,36.0,1.9
105.5,35.4,37.9,33.5,35.6,2.2
106.0,34.9,37.5,34.0,35.5,1.8
106.5,34.4,36.7,33.3,34.8,1.7
107.0,33.9,36.0,33.3,34.4,1.4
107.5,33.8,35.3,32.7,33.9,1.3
108.0,33.9,35.1,32.6,33.9,1.2
108.5,32.8,35.1,32.2,33.4,1.5
109.0,32.7,34.4,31.9,33.0,1.3
109.5,32.5,34.1,31.4,32.7,1.4
110.0,32.0,33.7,31.0,32.3,1.4
110.5,31.9,33.2,30.3,31.8,1.4
111.0,31.5,32.4,30.5,31.4,0.9
111.5,31.5,32.0,30.4,31.3,0.8
112.0,31.2,31.5,29.9,30.9,0.9
112.5,30.7,30.2,29.5,30.2,0.6
113.0,30.8,30.5,29.8,30.4,0.5
113.5,30.7,30.0,29.7,30.1,0.5
114.0,30.7,29.7,29.6,30.0,0.6
114.5,30.5,28.5,29.7,29.6,1.0
115.0,30.1,28.5,29.4,29.3,0.8
115.5,29.7,28.4,28.6,28.9,0.7
116.0,29.7,28.7,28.7,29.0,0.6
116.5,28.9,28.2,,28.5,0.5
117.0,29.1,27.4,,28.3,1.2
117.5,28.5,27.7,,28.1,0.6
118.0,28.7,27.0,,27.9,1.2
118.5,27.7,27.0,,27.3,0.5
118.75,28.2,26.3,,27.2,1.3