Folder: fsri_materials_database/01_Data/Oak_Flooring/Cone

Note: README.md
# Materials and Products Database
### Repository of materials and products properties and fire test data to improve fire modeling and fire investigation.

This project was supported in part by Award No. 2019-DU-BX-0018, awarded by the National Institute of Justice, Office of Justice Programs, U.S. Department of Justice. The opinions, findings, and conclusions or recommendations expressed in this publication / program / exhibition are those of the author(s) and do not necessarily reflect those of the Department of Justice.

***
***

__Cite this database:__ "McKinnon, M., Weinschenk, C., Dow, N., DiDomizio, M., and Madrzykowski, D. Materials and Products Database (Version 1.0.0), Fire Safety Research Institute, UL Research Institutes. Columbia, MD 21045, 2023."

__Cite the Technical Reference Guide:__ "McKinnon, M., Weinschenk, C., and Madrzykowski, D. Materials and Products Database - Technical Reference Guide, Fire Safety Research Institute, UL Research Institutes. Columbia, MD 21045, 2023."

__Cite the User Guide:__ "McKinnon, M., and Weinschenk, C. Materials and Products Database - User Guide, Fire Safety Research Institute, UL Research Institutes. Columbia, MD 21045, 2023."

***
***

## Database Structure

## 01_Data/
Raw data generated from each apparatus are included here in plain-text format. The data is organized first by material, next by the short name of test apparatus used, and where applicable additional filtering by test settings.

### Test Apparatus and Data File Structure
- __Cone Calorimeter__ (Cone)
    + Data file structure includes the material, the short name for the apparatus, heat flux setting and scan/scalar, date of test, and replicate number. Scan is for the raw output data and scalar is for the initial conditions and high-level test parameters. 
        * Example: __MDF_Cone_HF25scalar_210323_R1__ stands for the first replicate of scalar data generated from a medium density fiber board test in cone calorimeter exposed to 25 kW/m<sup>2</sup> on March 23, 2021.
    + A _Cone_Notes.csv_ is generated for each material from the __plot_Cone_data.py__ script. For materials whose experiments deviated from typical behavior relevant pictures are included in the respective material directory.
- __Fourier Transform Infrared Spectrometer__ (FTIR)
    + The FTIR directory contains subdirectories for the Attenuated Total Reflectance method (ATR) and the Integrating Sphere (IS)
    + Data file structure for the ATR experiment files includes the material, the abbreviated name for the apparatus, date of test, and replicate number. 
        * Example: __MDF_ATR_210323_R5__ stands for the fifth replicate of data collected with the ATR accessory conducted on June 8, 2021.
    + Data file structure for the IS experiment files includes the material, the abbreviated name for the apparatus, the measurand, whether the test is a sample measurement or standard reference, date of test, and replicate number.
        * Example: __OSB_IS_REFLECT_MEAS_2

File: Oak_Flooring_HRRPUA_25.csv
Time after Ignition,Oak_Flooring_R1,Oak_Flooring_R2,Oak_Flooring_R3,Oak_Flooring_R4,Mean,Std. Dev.
0.0,6.2,9.6,20.4,12.9,12.3,6.1
5.0,166.5,120.1,123.8,110.6,130.2,24.8
10.0,272.3,211.4,210.9,218.0,228.1,29.6
15.0,299.0,232.7,248.0,258.3,259.5,28.4
20.0,299.0,229.3,260.8,260.8,262.5,28.5
25.0,276.8,223.9,253.4,247.7,250.4,21.7
30.0,249.2,210.0,247.0,227.2,233.4,18.5
35.0,219.7,199.9,235.0,211.1,216.4,14.8
40.0,197.6,189.2,228.7,200.3,204.0,17.2
45.0,180.1,180.0,212.0,193.4,191.4,15.1
50.0,158.5,173.8,197.6,182.4,178.1,16.3
55.0,151.6,163.6,191.1,173.7,170.0,16.7
60.0,142.9,156.9,178.4,166.9,161.3,15.1
65.0,132.9,149.2,173.9,157.6,153.4,17.1
70.0,128.2,141.5,169.2,151.6,147.6,17.3
75.0,120.6,136.4,163.9,146.1,141.7,18.1
80.0,120.0,130.2,155.8,138.5,136.1,15.1
85.0,115.6,126.1,151.4,136.3,132.3,15.3
90.0,114.0,123.2,149.7,128.1,128.8,15.1
95.0,111.0,120.2,144.1,124.7,125.0,14.0
100.0,110.4,117.1,141.6,124.0,123.3,13.4
105.0,108.6,114.9,138.1,123.4,121.2,12.8
110.0,109.7,110.0,133.2,118.5,117.9,11.0
115.0,107.5,108.1,131.2,114.8,115.4,11.0
120.0,107.9,106.1,126.3,116.1,114.1,9.2
125.0,106.5,103.5,124.2,113.1,111.8,9.2
130.0,104.0,103.2,122.0,110.4,109.9,8.7
135.0,104.2,100.2,121.4,107.3,108.3,9.2
140.0,101.0,97.7,120.0,103.3,105.5,9.9
145.0,100.0,96.3,120.8,102.4,104.9,10.9
150.0,100.3,93.7,117.9,100.8,103.2,10.3
155.0,97.1,92.2,116.8,99.0,101.3,10.7
160.0,94.2,91.5,116.4,97.9,100.0,11.3
165.0,92.5,89.1,115.4,95.2,98.1,11.8
170.0,90.4,86.3,113.0,94.3,96.0,11.8
175.0,89.5,86.7,110.6,98.9,96.4,10.8
180.0,89.4,84.4,107.9,100.3,95.5,10.6
185.0,91.1,82.5,105.0,100.4,94.7,10.0
190.0,90.2,79.9,102.9,99.9,93.2,10.4
195.0,89.6,77.0,101.1,97.4,91.3,10.7
200.0,86.1,75.7,99.0,98.1,89.7,11.0
205.0,86.7,75.3,99.9,96.9,89.7,11.2
210.0,85.7,75.4,100.4,96.7,89.6,11.3
215.0,82.1,74.2,97.3,95.1,87.1,11.0
220.0,80.9,72.9,98.9,92.5,86.3,11.6
225.0,82.6,71.5,96.2,92.3,85.6,11.0
230.0,82.6,68.3,94.4,90.8,84.0,11.6
235.0,81.1,69.5,93.3,90.6,83.6,10.8
240.0,80.4,68.7,92.0,89.7,82.7,10.6
245.0,80.0,67.6,89.1,87.8,81.1,9.9
250.0,79.6,66.0,88.0,88.4,80.5,10.5
255.0,78.7,65.5,86.8,87.1,79.5,10.1
260.0,79.1,63.9,88.5,86.7,79.5,11.2
265.0,78.0,63.6,84.6,85.5,77.9,10.1
270.0,78.0,63.8,83.6,84.6,77.5,9.6
275.0,78.2,63.0,82.6,85.7,77.3,10.1
280.0,78.9,62.7,82.7,84.2,77.1,9.9
285.0,77.9,63.9,82.1,83.6,76.9,9.0
290.0,78.5,64.2,84.1,83.1,77.5,9.2
295.0,78.2,63.7,84.8,83.8,77.6,9.7
300.0,77.2,61.9,82.6,80.0,75.4,9.3
305.0,76.5,61.1,82.2,82.3,75.5,10.0
310.0,79.0,61.0,84.0,81.3,76.3,10.4
315.0,77.5,61.9,85.2,78.9,75.9,9.9
320.0,75.9,60.7,84.4,80.6,75.4,10.4
325.0,76.3,61.5,84.4,79.8,75.5,9.9
330.0,75.1,61.8,83.9,79.4,75.0,9.5
335.0,73.6,61.4,84.1,80.6,74.9,10.0
340.0,73.9,62.1,83.7,80.2,75.0,9.5
345.0,74.3,61.8,83.2,79.7,74.7,9.4
350.0,75.3,60.8,83.3,79.1,74.6,9.8
355.0,75.1,61.0,83.5,80.0,74.9,9.9
360.0,75.5,61.2,82.3,78.6,74.4,9.3
365.0,76.5,60.6,83.4,78.8,74.8,9.9
370.0,74.7,60.6,83.6,79.0,74.5,9.9
375.0,74.7,61.9,82.7,79.8,74.8,9.2
380.0,76.4,61.5,83.7,77.9,74.9,9.5
385.0,75.9,60.7,84.4,79.3,75.1,10.2
390.0,76.7,62.0,82.9,80.9,75.7,9.5
395.0,76.8,60.6,84.2,81.0,75.6,10.5
400.0,76.9,60.2,84.3,80.9,75.6,10.7
405.0,76.8,60.8,84.3,80.9,75.7,10.4
410.0,77.1,61.5,83.9,81.9,76.1,10.1
415.0,75.1,61.9,85.2,79.4,75.4,9.9
420.0,78.8,62.9,85.3,79.9,76.7,9.7
425.0,77.5,62.4,83.4,80.0,75.8,9.3
430.0,76.8,62.8,84.6,81.3,76.4,9.6
435.0,77.5,62.5,86.1,80.9,76.7,10.1
440.0,79.1,62.2,86.7,79.9,77.0,10.4
445.0,77.3,63.9,86.0,78.7,76.5,9.2
450.0,77.8,63.2,85.9,78.8,76.4,9.5
455.0,79.7,65.5,86.5,80.9,78.2,9.0
460.0,80.2,65.3,87.8,80.1,78.4,9.4
465.0,79.1,63.0,88.1,81.2,77.8,10.6
470.0,78.4,64.8,88.9,81.3,78.3,10.0
475.0,78.5,64.2,87.8,80.3,77.7,9.9
480.0,78.6,65.2,89.6,82.1,78.9,10.2
485.0,78.4,65.7,89.5,82.1,78.9,9.9
490.0,78.1,65.9,89.0,83.1,79.0,9.8
495.0,79.1,65.2,89.9,84.5,79.7,10.6
500.0,78.3,65.8,90.5,81.7,79.1,10.2
505.0,80.3,65.5,92.2,82.1,80.0,11.0
510.0,78.7,65.3,92.9,81.7,79.6,11.4
515.0,77.6,65.9,93.8,82.2,79.9,11.6
520.0,78.4,66.2,93.1,82.2,80.0,11.1
525.0,78.9,67.6,93.5,82.7,80.7,10.7
530.0,78.8,68.9,96.4,81.6,81.4,11.4
535.0,81.0,68.8,97.4,80.7,82.0,11.8
540.0,81.2,68.4,96.3,82.3,82.1,11.4
545.0,83.6,68.3,96.9,82.8,82.9,11.7
550.0,83.2,67.6,97.3,83.0,82.8,12.1
555.0,81.6,66.7,99.5,83.3,82.8,13.4
560.0,83.2,66.9,100.4,83.7,83.6,13.7
565.0,82.0,65.7,101.9,84.2,83.5,14.8
570.0,84.3,66.4,102.9,85.0,84.6,14.9
575.0,84.8,67.8,104.7,84.1,85.3,15.1
580.0,83.5,67.3,108.5,84.7,86.0,17.0
585.0,84.7,68.2,108.9,84.0,86.4,16.8
590.0,88.6,67.7,110.2,85.4,88.0,17.4
595.0,86.5,66.7,112.0,85.6,87.7,18.6
600.0,89.6,66.7,113.5,86.8,89.2,19.2
605.0,87.3,67.0,115.9,85.6,89.0,20.2
610.0,89.8,68.3,117.5,85.9,90.4,20.3
615.0,93.5,69.2,121.9,85.3,92.5,22.1
620.0,93.1,69.5,124.2,87.1,93.5,22.8
625.0,95.8,71.3,127.5,88.1,95.7,23.6
630.0,96.7,72.8,130.3,90.4,97.5,24.0
635.0,98.4,73.8,133.1,89.3,98.7,25.1
640.0,100.5,74.4,140.4,91.0,101.6,28.1
645.0,104.5,73.2,143.9,92.3,103.5,29.9
650.0,104.1,74.4,145.9,92.3,104.2,30.4
655.0,106.1,76.4,153.4,94.8,107.7,32.9
660.0,108.7,77.7,156.5,93.8,109.2,34.0
665.0,111.9,77.7,164.1,96.3,112.5,37.1
670.0,114.7,76.8,169.5,96.1,114.3,40.0
675.0,118.4,78.7,176.2,97.6,117.7,42.2
680.0,121.4,79.6,180.1,100.7,120.4,43.3
685.0,124.3,82.5,186.1,101.7,123.7,45.0
690.0,126.7,82.6,197.0,102.0,127.1,50.0
695.0,129.8,82.3,199.0,102.6,128.4,50.9
700.0,130.9,81.4,201.3,106.0,129.9,51.7
705.0,130.9,83.2,210.8,107.1,133.0,55.4
710.0,133.2,84.2,221.8,105.5,136.2,60.5
715.0,135.3,87.4,228.1,108.4,139.8,62.0
720.0,134.3,86.9,235.1,111.0,141.8,65.1
725.0,134.2,86.9,245.1,111.8,144.5,69.8
730.0,133.8,89.7,249.5,114.1,146.8,70.8
735.0,131.5,92.8,254.5,116.2,148.7,72.3
740.0,130.4,93.2,263.0,118.9,151.4,76.0
745.0,130.8,95.5,264.7,119.0,152.5,76.2
750.0,133.0,94.5,262.9,125.9,154.1,74.5
755.0,131.2,95.8,258.0,123.2,152.1,72.2
760.0,133.5,98.5,248.6,125.6,151.5,66.4
765.0,132.6,101.4,245.6,127.4,151.7,64.0
770.0,131.7,102.1,247.8,131.5,153.3,64.5
775.0,133.0,105.5,240.7,134.5,153.4,59.7
780.0,132.2,106.4,235.6,135.0,152.3,57.0
785.0,139.1,106.6,236.5,137.2,154.9,56.4
790.0,138.5,108.1,236.6,141.9,156.3,55.7
795.0,139.8,109.8,233.2,145.1,157.0,53.2
800.0,142.4,113.0,235.6,145.6,159.1,53.1
805.0,142.7,113.8,234.8,145.9,159.3,52.3
810.0,141.6,117.3,239.2,150.3,162.1,53.3
815.0,145.3,119.4,229.2,153.5,161.8,47.2
820.0,148.4,120.6,234.1,155.6,164.7,48.7
825.0,149.6,124.0,230.7,156.4,165.2,45.9
830.0,151.6,124.4,229.9,163.4,167.3,44.8
835.0,154.8,128.5,229.3,164.6,169.3,42.8
840.0,156.8,130.3,228.0,167.4,170.6,41.3
845.0,156.2,131.5,218.4,169.6,168.9,36.6
850.0,158.2,133.7,211.6,173.0,169.1,32.6
855.0,164.8,137.2,201.7,180.7,171.1,27.2
860.0,166.4,139.2,198.8,183.3,171.9,25.5
865.0,167.9,144.0,193.6,188.8,173.6,22.7
870.0,167.3,149.2,189.1,193.3,174.7,20.5
875.0,171.0,150.5,185.3,194.4,175.3,19.1
880.0,168.6,148.5,179.3,198.2,173.6,20.8
885.0,175.0,156.6,176.2,204.1,178.0,19.6
890.0,172.0,157.8,168.3,206.3,176.1,21.0
895.0,171.6,164.4,164.6,207.4,177.0,20.6
900.0,175.9,165.7,156.5,215.5,178.4,26.0
905.0,171.0,165.4,150.3,217.1,176.0,28.8
910.0,170.7,170.7,146.2,218.2,176.4,30.1
915.0,169.8,169.2,139.8,219.0,174.5,32.8
920.0,165.6,177.7,134.4,218.0,173.9,34.6
925.0,162.6,179.1,128.9,221.1,172.9,38.3
930.0,158.6,183.4,118.9,223.9,171.2,44.0
935.0,154.9,192.2,113.6,228.0,172.1,49.2
940.0,150.4,187.4,107.4,219.3,166.1,48.2
945.0,145.8,196.6,98.7,216.1,164.3,52.8
950.0,147.5,200.6,91.1,214.3,163.4,56.2
955.0,149.3,207.3,85.7,207.8,162.6,58.1
960.0,148.7,212.7,78.3,200.9,160.2,61.3
965.0,150.0,217.4,71.9,197.9,159.3,64.8
970.0,149.1,224.2,64.4,193.4,157.8,69.5
975.0,148.3,221.0,59.7,181.6,152.6,68.7
980.0,150.1,227.2,56.5,171.3,151.2,71.1
985.0,150.1,227.2,50.2,163.7,147.8,73.2
990.0,147.2,226.7,46.9,157.0,144.4,74.0
995.0,149.3,221.8,43.4,154.2,142.2,73.7
1000.0,151.6,225.3,41.2,147.6,141.4,75.8
1005.0,147.0,223.3,38.6,144.1,138.3,75.9
1010.0,143.7,228.9,35.8,138.6,136.8,79.0
1015.0,148.9,220.1,33.1,133.7,134.0,77.1
1020.0,145.1,217.8,34.0,129.1,131.5,75.6
1025.0,138.6,217.0,33.2,128.1,129.2,75.3
1030.0,134.2,213.2,31.6,126.4,126.4,74.4
1035.0,130.7,209.1,30.5,124.3,123.7,73.1
1040.0,128.0,202.6,29.8,123.7,121.0,70.8
1045.0,119.7,197.1,,121.6,146.1,44.2
1050.0,115.7,189.9,,120.1,141.9,41.6
1055.0,110.6,181.1,,121.8,137.9,37.9
1060.0,104.4,177.1,,120.0,133.8,38.3
1065.0,100.2,172.5,,120.2,131.0,37.3
1070.0,96.9,163.2,,118.8,126.3,33.8
1075.0,92.8,156.9,,119.6,123.1,32.2
1080.0,92.3,146.8,,122.0,120.4,27.3
1085.0,86.9,139.6,,123.4,116.6,27.0
1090.0,84.2,135.7,,124.3,114.7,27.1
1095.0,82.1,128.9,,124.3,111.8,25.7
1100.0,79.1,123.3,,126.4,109.6,26.5
1105.0,76.8,118.0,,128.3,107.7,27.2
1110.0,74.7,117.1,,130.6,107.5,29.2
1115.0,72.6,115.3,,131.0,106.3,30.2
1120.0,70.8,112.5,,129.4,104.2,30.2
1125.0,68.8,113.1,,128.8,103.6,31.1
1130.0,67.5,113.9,,130.7,104.0,32.8
1135.0,65.3,113.6,,129.8,102.9,33.5
1140.0,62.8,113.0,,132.1,102.6,35.8
1145.0,60.7,114.2,,129.0,101.3,35.9
1150.0,57.8,118.0,,126.8,100.8,37.5
1155.0,57.0,115.4,,129.4,100.6,38.4
1160.0,58.1,116.8,,128.0,101.0,37.5
1165.0,57.3,117.7,,124.6,99.9,37.0
1170.0,57.1,117.0,,127.6,100.6,38.0
1175.0,56.8,116.4,,125.1,99.4,37.2
1180.0,54.7,119.0,,124.9,99.5,38.9
1185.0,52.4,119.6,,123.9,98.6,40.1
1190.0,52.7,122.7,,122.0,99.1,40.2
1195.0,53.1,119.0,,120.6,97.6,38.5
1200.0,52.8,120.9,,120.8,98.2,39.3
1205.0,51.6,120.6,,119.1,97.1,39.4
1210.0,51.8,122.2,,117.2,97.0,39.3
1215.0,51.6,124.0,,118.4,98.0,40.3
1220.0,52.8,123.9,,116.1,97.6,39.0
1225.0,53.8,122.8,,109.3,95.3,36.6
1230.0,53.1,126.3,,107.1,95.5,37.9
1235.0,51.2,125.7,,106.2,94.4,38.6
1240.0,49.9,122.4,,102.1,91.5,37.4
1245.0,50.4,124.9,,102.1,92.5,38.1
1250.0,50.1,124.7,,99.3,91.4,37.9
1255.0,49.6,124.6,,97.1,90.4,37.9
1260.0,48.8,122.1,,93.2,88.1,36.9
1265.0,48.3,123.6,,89.5,87.1,37.8
1270.0,48.1,119.2,,84.7,84.0,35.6
1275.0,48.9,120.6,,81.7,83.7,35.9
1279.0,48.7,118.8,,79.1,82.2,35.1

File: Oak_Flooring_HRRPUA_50.csv
Time after Ignition,Oak_Flooring_R1,Oak_Flooring_R2,Oak_Flooring_R3,Mean,Std. Dev.
0.0,8.8,29.8,2.6,13.8,14.3
4.25,95.1,136.4,114.0,115.2,20.7
8.5,191.5,262.2,230.3,228.0,35.4
12.75,242.8,310.7,284.0,279.2,34.2
17.0,263.5,322.0,308.0,297.8,30.5
21.25,292.2,312.6,318.5,307.8,13.8
25.5,296.4,309.4,303.1,303.0,6.5
29.75,279.4,286.5,291.6,285.8,6.1
34.0,263.9,273.1,277.5,271.5,7.0
38.25,252.7,253.8,258.0,254.8,2.8
42.5,240.7,239.4,249.2,243.1,5.3
46.75,232.7,229.0,243.6,235.1,7.6
51.0,221.7,224.4,226.3,224.1,2.3
55.25,220.2,213.9,217.4,217.2,3.2
59.5,209.8,208.1,210.1,209.3,1.1
63.75,205.9,203.3,203.4,204.2,1.4
68.0,197.0,195.9,197.2,196.7,0.7
72.25,195.1,192.5,187.4,191.7,3.9
76.5,186.2,190.9,183.6,186.9,3.7
80.75,182.9,185.6,178.2,182.2,3.7
85.0,177.7,180.8,175.4,178.0,2.7
89.25,175.9,176.4,174.2,175.5,1.2
93.5,177.5,175.4,172.2,175.0,2.7
97.75,168.9,174.8,163.3,169.0,5.8
102.0,163.2,173.2,162.7,166.4,5.9
106.25,166.1,173.6,161.1,166.9,6.3
110.5,161.3,170.9,163.0,165.1,5.1
114.75,159.0,169.9,160.7,163.2,5.8
119.0,155.9,166.5,157.6,160.0,5.7
123.25,157.2,169.6,154.0,160.3,8.2
127.5,152.0,165.5,155.5,157.7,7.0
131.75,147.7,162.3,153.8,154.6,7.3
136.0,146.5,160.9,152.1,153.2,7.2
140.25,145.3,159.4,151.8,152.2,7.1
144.5,142.8,157.0,148.1,149.3,7.2
148.75,145.1,155.7,149.7,150.2,5.3
153.0,141.4,153.4,147.2,147.3,6.0
157.25,139.6,150.8,147.6,146.0,5.8
161.5,140.4,149.5,144.3,144.8,4.6
165.75,137.8,149.5,145.7,144.3,5.9
170.0,137.3,147.5,142.2,142.3,5.1
174.25,135.5,145.7,145.1,142.1,5.7
178.5,132.0,145.1,140.3,139.1,6.7
182.75,131.0,141.3,140.7,137.7,5.8
187.0,130.5,141.0,142.2,137.9,6.4
191.25,128.7,142.5,138.0,136.4,7.0
195.5,127.9,141.7,140.7,136.8,7.7
199.75,128.6,137.8,140.0,135.5,6.1
204.0,126.2,134.1,137.9,132.7,6.0
208.25,126.8,135.0,136.7,132.8,5.3
212.5,125.8,133.5,135.9,131.7,5.3
216.75,122.9,130.1,135.6,129.6,6.4
221.0,125.3,132.5,136.4,131.4,5.6
225.25,123.9,128.6,134.6,129.0,5.4
229.5,122.9,129.2,134.9,129.0,6.0
233.75,121.3,129.4,135.0,128.6,6.9
238.0,120.2,126.1,133.9,126.7,6.9
242.25,117.2,126.9,133.2,125.8,8.1
246.5,118.5,125.0,131.5,125.0,6.5
250.75,118.4,125.2,131.5,125.0,6.5
255.0,116.5,122.5,128.6,122.5,6.0
259.25,117.8,123.6,128.0,123.1,5.1
263.5,116.0,123.5,125.1,121.5,4.9
267.75,117.5,125.6,124.8,122.6,4.4
272.0,115.5,125.0,124.2,121.6,5.3
276.25,114.1,126.3,123.5,121.3,6.4
280.5,114.3,126.4,124.0,121.6,6.4
284.75,112.4,124.8,123.2,120.1,6.8
289.0,112.3,125.1,121.1,119.5,6.5
293.25,112.0,125.0,119.0,118.6,6.5
297.5,111.2,124.5,119.9,118.5,6.8
301.75,110.7,122.2,120.5,117.8,6.2
306.0,110.0,122.0,119.2,117.1,6.3
310.25,110.2,122.5,120.2,117.6,6.6
314.5,109.7,121.0,117.9,116.2,5.9
318.75,109.9,120.1,117.0,115.6,5.2
323.0,109.7,121.0,113.6,114.8,5.7
327.25,109.7,121.1,113.7,114.8,5.8
331.5,111.9,124.1,113.5,116.5,6.7
335.75,110.0,123.8,115.2,116.3,7.0
340.0,111.0,122.5,113.9,115.8,6.0
344.25,110.0,122.2,113.8,115.3,6.3
348.5,110.3,123.6,114.9,116.2,6.7
352.75,109.4,120.6,112.0,114.0,5.9
357.0,112.0,123.0,112.4,115.8,6.2
361.25,109.6,121.8,110.1,113.8,6.9
365.5,109.0,123.9,109.3,114.1,8.5
369.75,107.3,123.2,111.4,114.0,8.3
374.0,106.9,123.9,111.5,114.1,8.8
378.25,108.0,127.4,111.5,115.6,10.3
382.5,109.0,127.0,110.3,115.5,10.0
386.75,107.7,128.1,110.2,115.3,11.1
391.0,107.1,130.6,111.1,116.3,12.6
395.25,107.4,129.6,109.1,115.3,12.4
399.5,107.1,126.2,106.9,113.4,11.1
403.75,106.9,129.0,108.4,114.7,12.4
408.0,106.2,131.6,109.0,115.6,14.0
412.25,106.3,132.5,105.9,114.9,15.3
416.5,106.7,132.7,108.2,115.9,14.6
420.75,105.3,132.4,105.7,114.4,15.6
425.0,109.3,131.4,106.5,115.7,13.7
429.25,108.4,133.5,107.7,116.5,14.7
433.5,107.6,131.3,106.3,115.1,14.1
437.75,107.3,135.0,108.4,116.9,15.7
442.0,107.7,138.2,106.5,117.5,18.0
446.25,107.3,137.2,108.0,117.5,17.1
450.5,107.7,136.3,107.8,117.2,16.5
454.75,107.7,139.7,109.0,118.8,18.1
459.0,108.7,141.1,108.4,119.4,18.8
463.25,109.2,141.9,109.6,120.2,18.7
467.5,107.8,144.6,109.3,120.6,20.8
471.75,109.5,143.5,108.8,120.6,19.8
476.0,108.3,146.9,108.1,121.1,22.4
480.25,108.3,148.2,106.7,121.1,23.5
484.5,108.1,149.3,108.2,121.9,23.7
488.75,110.3,149.8,108.5,122.8,23.3
493.0,108.9,153.1,110.6,124.2,25.1
497.25,110.6,152.9,110.8,124.7,24.4
501.5,107.3,152.4,111.3,123.7,25.0
505.75,108.3,154.4,112.3,125.0,25.5
510.0,109.0,159.5,113.0,127.2,28.1
514.25,106.9,160.0,115.6,127.5,28.5
518.5,110.6,161.4,116.2,129.4,27.8
522.75,110.1,163.0,116.5,129.8,28.9
527.0,109.2,166.0,116.9,130.7,30.8
531.25,108.6,166.8,116.9,130.8,31.5
535.5,111.9,165.4,118.4,131.9,29.2
539.75,110.0,166.9,116.5,131.1,31.1
544.0,109.9,173.3,119.8,134.3,34.1
548.25,110.3,176.2,118.9,135.1,35.9
552.5,114.1,174.7,121.3,136.7,33.1
556.75,112.2,177.7,124.4,138.1,34.8
561.0,112.5,180.7,123.4,138.8,36.6
565.25,111.1,180.9,122.3,138.1,37.5
569.5,111.4,181.9,122.0,138.4,38.0
573.75,110.8,184.4,123.5,139.6,39.4
578.0,112.3,186.7,126.0,141.7,39.6
582.25,114.5,191.5,126.4,144.1,41.5
586.5,113.1,192.6,127.9,144.5,42.3
590.75,113.8,193.0,127.5,144.8,42.3
595.0,115.3,194.3,131.2,147.0,41.8
599.25,115.3,198.0,130.6,148.0,44.0
603.5,117.4,198.4,132.1,149.3,43.1
607.75,115.2,199.4,131.6,148.8,44.6
612.0,115.9,205.1,133.6,151.6,47.2
616.25,119.0,204.4,132.7,152.0,45.9
620.5,119.7,213.0,133.5,155.4,50.4
624.75,119.7,216.7,138.3,158.2,51.5
629.0,120.5,217.4,139.2,159.0,51.4
633.25,120.6,215.8,138.5,158.3,50.6
637.5,122.9,220.2,141.8,161.6,51.6
641.75,122.7,223.3,143.6,163.2,53.0
646.0,122.9,224.4,145.4,164.2,53.3
650.25,123.4,229.1,147.7,166.7,55.4
654.5,124.1,230.0,151.3,168.5,55.0
658.75,128.1,228.0,150.5,168.9,52.4
663.0,130.4,233.8,152.9,172.4,54.4
667.25,129.4,233.2,157.1,173.2,53.8
671.5,133.6,237.3,156.7,175.9,54.5
675.75,135.4,239.9,160.0,178.4,54.6
680.0,136.0,244.6,160.1,180.3,57.0
684.25,135.4,250.8,164.7,183.7,60.0
688.5,137.6,250.5,164.3,184.2,59.0
692.75,142.9,251.2,167.0,187.1,56.9
697.0,144.4,246.8,166.3,185.8,53.9
701.25,143.9,248.4,169.7,187.3,54.5
705.5,147.1,251.6,171.6,190.1,54.6
709.75,150.5,249.4,175.1,191.7,51.5
714.0,152.3,254.1,175.9,194.1,53.3
718.25,152.9,252.5,181.1,195.5,51.3
722.5,156.6,248.2,179.2,194.6,47.7
726.75,160.6,253.5,182.4,198.8,48.6
731.0,162.9,253.6,188.1,201.5,46.8
735.25,163.8,252.5,188.4,201.6,45.8
739.5,170.2,252.2,195.4,205.9,42.0
743.75,169.2,248.1,194.5,203.9,40.3
748.0,172.8,248.7,195.6,205.7,39.0
752.25,179.6,243.0,192.4,205.0,33.5
756.5,176.8,240.0,202.5,206.5,31.8
760.75,179.5,241.2,195.3,205.3,32.0
765.0,183.8,243.6,199.6,209.0,31.0
769.25,184.4,236.1,202.3,207.6,26.2
773.5,187.6,229.7,199.7,205.7,21.7
777.75,191.4,223.0,204.6,206.3,15.8
782.0,190.8,217.0,199.8,202.5,13.3
786.25,198.9,219.5,197.9,205.5,12.2
790.5,200.2,212.7,197.7,203.5,8.0
794.75,199.3,198.7,199.4,199.1,0.4
799.0,203.9,191.8,200.6,198.8,6.3
803.25,201.6,188.5,203.8,198.0,8.2
807.5,208.9,180.5,199.3,196.3,14.4
811.75,206.2,176.6,199.9,194.2,15.6
816.0,209.1,167.6,198.2,191.6,21.5
820.25,210.5,163.9,199.6,191.3,24.4
824.5,211.3,150.7,203.4,188.5,32.9
828.75,219.1,142.3,201.7,187.7,40.3
833.0,217.5,137.1,201.4,185.3,42.5
837.25,219.6,133.3,198.6,183.8,45.0
841.5,223.6,126.4,202.0,184.0,51.1
845.75,225.6,121.7,202.3,183.2,54.5
850.0,225.9,117.6,197.5,180.4,56.2
854.25,224.2,112.6,201.2,179.3,58.9
858.5,225.6,111.3,198.4,178.5,59.7
862.75,222.7,107.6,197.2,175.8,60.5
867.0,223.3,102.6,192.0,172.7,62.6
871.25,223.1,99.9,193.4,172.1,64.3
875.5,225.5,96.4,191.0,171.0,66.9
879.75,223.1,91.8,189.9,168.3,68.3
884.0,221.0,88.4,186.0,165.2,68.7
888.25,217.0,84.8,184.9,162.3,69.0
892.5,218.7,82.0,176.9,159.2,70.1
896.75,217.8,79.9,173.0,156.9,70.4
901.0,214.4,77.6,170.6,154.2,69.9
905.25,213.7,74.2,165.0,151.0,70.8
909.5,207.5,71.6,162.3,147.1,69.2
913.75,203.9,68.5,156.6,143.0,68.7
918.0,201.6,64.9,154.3,140.3,69.4
922.25,196.0,61.2,149.0,135.4,68.4
926.5,192.0,57.8,144.7,131.5,68.1
930.75,186.2,57.3,138.4,127.3,65.1
935.0,177.9,54.8,133.9,122.2,62.4
939.25,174.9,52.0,133.0,120.0,62.5
943.5,174.1,50.1,129.9,118.0,62.9
947.75,166.8,48.4,123.4,112.9,59.9
952.0,163.7,47.1,119.2,110.0,58.8
956.25,159.6,48.0,113.4,107.0,56.1
960.5,150.8,47.0,108.7,102.2,52.2
964.75,147.6,46.4,103.2,99.1,50.7
969.0,143.5,46.6,99.8,96.6,48.5
973.25,140.4,47.0,93.4,93.6,46.7
977.5,133.2,46.5,86.2,88.7,43.4
981.75,126.5,45.5,82.3,84.8,40.6
986.0,122.6,45.1,76.8,81.5,39.0
990.25,116.4,45.2,73.8,78.5,35.9
994.5,107.8,45.5,68.1,73.8,31.5
998.75,102.8,44.6,64.7,70.7,29.6
1003.0,97.9,44.9,61.2,68.0,27.2
1007.25,92.4,42.3,57.0,63.9,25.8
1011.5,87.4,41.9,55.0,61.5,23.4
1015.75,84.8,43.8,52.1,60.2,21.6
1020.0,79.4,43.2,50.7,57.8,19.1
1024.25,77.5,43.9,49.5,56.9,18.0
1028.5,72.1,43.5,49.5,55.0,15.1
1032.75,67.6,42.5,48.9,53.0,13.0
1037.0,64.7,42.4,47.4,51.5,11.7
1041.25,59.3,41.7,46.3,49.1,9.2
1045.5,55.0,42.0,45.4,47.5,6.7
1049.75,52.3,42.7,45.8,46.9,4.9
1054.0,52.2,42.0,44.8,46.3,5.3
1058.25,51.8,42.3,44.6,46.2,5.0
1062.5,50.6,42.3,45.2,46.0,4.2
1066.75,50.8,43.5,44.9,46.4,3.9
1071.0,49.0,42.4,45.6,45.7,3.3
1075.25,47.9,41.7,44.7,44.8,3.1
1079.5,48.4,41.5,44.7,44.9,3.5
1083.75,49.0,41.8,44.8,45.2,3.6
1088.0,47.5,42.3,43.9,44.5,2.7
1092.25,48.0,,43.3,45.7,3.3
1096.5,48.7,,,48.7,
1100.75,51.3,,,51.3,
1105.0,52.7,,,52.7,
1109.25,52.8,,,52.8,
1113.5,51.9,,,51.9,
1117.75,48.4,,,48.4,
1122.0,46.6,,,46.6,
1126.25,46.8,,,46.8,
1130.5,46.1,,,46.1,
1134.75,44.0,,,44.0,
1139.0,42.4,,,42.4,
1143.25,44.1,,,44.1,
1147.5,41.9,,,41.9,
1151.75,42.0,,,42.0,
1156.0,42.7,,,42.7,
1160.25,42.8,,,42.8,
1164.5,42.3,,,42.3,
1168.75,40.8,,,40.8,
1173.0,40.7,,,40.7,
1177.25,40.4,,,40.4,
1181.5,39.6,,,39.6,
1185.75,39.9,,,39.9,
1190.0,39.7,,,39.7,
1194.25,39.8,,,39.8,
1198.5,39.1,,,39.1,
1202.75,38.6,,,38.6,
1207.0,38.7,,,38.7,
1211.0,39.0,,,39.0,