Folder: fsri_materials_database/01_Data/Oak_Flooring/Cone (part 2)

File: Oak_Flooring_HRRPUA_75.csv
Time after Ignition,Oak_Flooring_R1,Oak_Flooring_R2,Oak_Flooring_R3,Mean,Std. Dev.
0.0,10.0,13.3,3.0,8.8,5.3
3.25,122.8,131.1,41.9,98.6,49.3
6.5,254.1,288.1,199.7,247.3,44.6
9.75,350.9,394.1,316.1,353.7,39.1
13.0,405.7,418.0,389.0,404.2,14.5
16.25,412.3,426.6,403.4,414.1,11.7
19.5,412.9,406.3,413.3,410.8,3.9
22.75,394.3,392.1,411.7,399.4,10.7
26.0,376.2,378.5,400.2,385.0,13.3
29.25,365.0,351.6,377.7,364.7,13.1
32.5,357.3,347.6,365.3,356.8,8.9
35.75,339.8,334.4,341.3,338.5,3.6
39.0,329.3,325.3,322.4,325.7,3.5
42.25,311.9,308.0,308.0,309.3,2.2
45.5,301.1,301.4,296.3,299.6,2.9
48.75,296.0,287.4,290.9,291.4,4.3
52.0,282.4,284.3,284.4,283.7,1.1
55.25,277.0,272.0,276.7,275.2,2.8
58.5,270.9,270.6,266.8,269.4,2.3
61.75,271.0,258.9,265.6,265.2,6.1
65.0,255.5,255.0,257.2,255.9,1.1
68.25,252.9,251.2,260.8,255.0,5.1
71.5,252.6,241.6,255.6,250.0,7.4
74.75,239.8,240.6,252.9,244.4,7.3
78.0,245.2,241.6,255.0,247.3,7.0
81.25,238.2,232.6,248.9,239.9,8.3
84.5,234.3,228.2,245.9,236.1,9.0
87.75,230.4,226.2,247.8,234.8,11.4
91.0,229.7,226.3,244.0,233.3,9.4
94.25,231.7,223.0,233.8,229.5,5.7
97.5,233.1,219.5,229.3,227.3,7.1
100.75,230.8,220.3,230.0,227.0,5.9
104.0,226.1,217.4,224.3,222.6,4.6
107.25,229.5,211.3,218.5,219.8,9.2
110.5,228.0,211.1,217.6,218.9,8.5
113.75,230.5,212.4,214.6,219.2,9.9
117.0,229.1,212.5,214.2,218.6,9.1
120.25,225.5,209.9,207.9,214.4,9.7
123.5,220.5,206.6,203.9,210.3,8.9
126.75,218.9,208.4,201.2,209.5,8.9
130.0,221.0,206.1,199.3,208.8,11.1
133.25,216.7,206.7,199.9,207.8,8.4
136.5,215.8,208.9,195.6,206.7,10.3
139.75,214.9,206.2,196.2,205.8,9.4
143.0,210.5,200.8,196.4,202.5,7.2
146.25,211.0,205.2,201.2,205.8,4.9
149.5,206.1,202.0,196.1,201.4,5.0
152.75,202.4,203.5,192.9,199.6,5.8
156.0,207.3,199.7,197.4,201.5,5.2
159.25,202.8,202.4,193.2,199.4,5.4
162.5,203.5,197.2,193.6,198.1,5.0
165.75,201.3,196.7,198.8,198.9,2.3
169.0,198.0,196.9,198.8,197.9,1.0
172.25,202.0,197.8,199.5,199.8,2.1
175.5,196.7,192.3,196.6,195.2,2.5
178.75,196.8,190.8,194.6,194.0,3.0
182.0,196.9,193.7,195.0,195.2,1.6
185.25,195.8,192.9,195.7,194.8,1.7
188.5,196.2,190.3,197.2,194.6,3.7
191.75,197.6,188.5,197.0,194.4,5.1
195.0,192.6,191.1,192.7,192.1,0.9
198.25,193.2,195.2,191.8,193.4,1.7
201.5,197.0,188.4,190.8,192.0,4.4
204.75,194.2,190.1,190.4,191.6,2.3
208.0,195.6,192.3,188.3,192.1,3.7
211.25,190.7,187.5,191.2,189.8,2.0
214.5,192.9,190.5,186.3,189.9,3.4
217.75,189.9,194.7,187.5,190.7,3.7
221.0,191.6,188.8,187.5,189.3,2.1
224.25,192.8,185.8,186.6,188.4,3.8
227.5,190.0,188.0,183.9,187.3,3.1
230.75,192.8,191.6,183.7,189.3,4.9
234.0,189.4,191.2,183.2,187.9,4.2
237.25,188.4,186.8,184.1,186.4,2.2
240.5,193.5,187.2,182.3,187.7,5.6
243.75,187.6,191.0,184.4,187.7,3.3
247.0,188.2,185.9,180.6,184.9,3.9
250.25,190.9,185.5,175.4,183.9,7.8
253.5,186.6,184.6,175.6,182.3,5.8
256.75,186.4,185.0,179.4,183.6,3.7
260.0,188.1,185.8,177.6,183.8,5.5
263.25,188.4,183.5,173.8,181.9,7.4
266.5,191.0,183.8,178.4,184.4,6.3
269.75,186.8,180.9,173.7,180.5,6.6
273.0,188.1,182.4,173.5,181.4,7.4
276.25,185.0,183.7,178.2,182.3,3.6
279.5,190.4,181.8,173.0,181.7,8.7
282.75,187.0,180.4,172.0,179.8,7.5
286.0,187.6,177.3,174.2,179.7,7.0
289.25,191.4,177.2,174.7,181.1,9.0
292.5,192.5,177.8,177.2,182.5,8.7
295.75,189.3,180.3,174.8,181.5,7.3
299.0,187.7,179.6,173.7,180.3,7.0
302.25,188.6,178.6,176.8,181.3,6.4
305.5,187.8,182.9,177.3,182.6,5.3
308.75,187.0,174.6,174.1,178.6,7.3
312.0,189.8,176.9,175.9,180.9,7.7
315.25,190.8,177.0,171.5,179.8,9.9
318.5,188.2,179.4,171.7,179.8,8.3
321.75,189.9,181.0,177.6,182.8,6.4
325.0,194.9,182.5,175.8,184.4,9.7
328.25,190.4,180.9,176.1,182.5,7.3
331.5,190.9,177.3,173.2,180.4,9.3
334.75,189.4,179.1,174.4,181.0,7.7
338.0,190.0,179.2,173.4,180.9,8.4
341.25,192.0,182.3,172.4,182.2,9.8
344.5,193.6,181.5,173.9,183.0,9.9
347.75,191.9,182.4,173.0,182.4,9.5
351.0,194.7,181.0,172.8,182.8,11.1
354.25,197.5,188.5,172.3,186.1,12.8
357.5,195.8,185.4,173.0,184.7,11.4
360.75,196.6,180.8,171.1,182.8,12.9
364.0,200.2,186.6,174.3,187.0,12.9
367.25,197.0,185.4,174.5,185.6,11.3
370.5,200.4,187.6,175.7,187.9,12.4
373.75,197.9,187.4,179.6,188.3,9.2
377.0,201.8,188.1,178.7,189.5,11.6
380.25,207.1,185.9,174.3,189.1,16.7
383.5,206.7,183.9,180.0,190.2,14.4
386.75,207.2,188.7,176.5,190.8,15.5
390.0,207.5,194.2,178.0,193.2,14.8
393.25,210.3,192.0,173.7,192.0,18.3
396.5,210.1,194.4,179.6,194.7,15.2
399.75,215.6,197.8,180.3,197.9,17.7
403.0,214.2,194.5,182.7,197.1,15.9
406.25,215.4,195.5,183.5,198.1,16.1
409.5,217.6,193.6,183.2,198.1,17.7
412.75,217.6,192.0,185.7,198.5,16.9
416.0,218.9,197.1,184.7,200.2,17.3
419.25,219.4,197.2,184.8,200.4,17.6
422.5,224.0,195.8,184.0,201.3,20.5
425.75,222.8,194.5,187.4,201.6,18.7
429.0,224.0,198.1,189.9,204.0,17.8
432.25,226.6,198.3,188.4,204.4,19.8
435.5,227.4,200.1,191.5,206.3,18.7
438.75,231.0,204.2,190.2,208.5,20.7
442.0,230.2,207.3,193.2,210.2,18.7
445.25,234.4,204.6,193.0,210.7,21.4
448.5,224.9,207.7,195.6,209.4,14.8
451.75,231.8,208.4,195.3,211.9,18.5
455.0,240.1,209.6,197.2,215.6,22.0
458.25,235.4,210.6,195.7,213.9,20.0
461.5,236.3,214.0,198.2,216.2,19.2
464.75,234.3,211.7,198.9,214.9,17.9
468.0,238.3,217.8,194.4,216.8,22.0
471.25,238.1,216.4,194.6,216.4,21.7
474.5,232.4,219.4,198.7,216.8,17.0
477.75,236.6,223.0,200.5,220.0,18.2
481.0,237.8,221.8,198.9,219.5,19.5
484.25,236.8,223.9,198.7,219.8,19.3
487.5,241.8,226.2,196.9,221.7,22.8
490.75,241.2,229.6,202.5,224.5,19.9
494.0,240.8,233.6,199.0,224.5,22.4
497.25,246.9,239.5,202.4,229.6,23.8
500.5,244.1,235.9,199.9,226.6,23.5
503.75,248.2,237.8,199.2,228.4,25.8
507.0,253.4,246.9,198.8,233.0,29.8
510.25,247.7,247.3,194.3,229.8,30.7
513.5,255.2,247.3,201.9,234.8,28.8
516.75,257.4,250.1,201.9,236.4,30.2
520.0,256.0,253.8,198.1,236.0,32.8
523.25,264.2,260.4,202.6,242.4,34.5
526.5,257.0,263.0,202.7,240.9,33.2
529.75,258.4,264.5,198.4,240.5,36.6
533.0,264.6,266.9,199.6,243.7,38.2
536.25,261.3,267.2,201.5,243.4,36.3
539.5,265.1,276.8,205.7,249.2,38.1
542.75,260.3,278.6,204.2,247.7,38.7
546.0,256.6,286.4,203.9,249.0,41.8
549.25,242.5,284.3,209.4,245.4,37.5
552.5,225.5,289.9,207.7,241.0,43.3
555.75,207.0,301.7,212.4,240.4,53.2
559.0,193.7,296.0,213.3,234.3,54.3
562.25,180.2,306.2,212.9,233.1,65.4
565.5,168.7,305.3,215.0,229.7,69.4
568.75,155.9,313.3,218.7,229.3,79.2
572.0,147.5,312.4,225.1,228.4,82.5
575.25,145.1,310.1,224.5,226.6,82.5
578.5,143.1,312.2,223.7,226.3,84.6
581.75,143.4,315.6,228.9,229.3,86.1
585.0,143.0,322.8,231.4,232.4,89.9
588.25,139.6,319.6,232.2,230.4,90.0
591.5,140.0,319.8,235.4,231.7,90.0
594.75,140.1,314.9,240.3,231.7,87.7
598.0,141.4,318.1,240.4,233.3,88.6
601.25,140.1,319.0,243.4,234.1,89.8
604.5,140.4,310.1,243.7,231.4,85.5
607.75,140.2,300.5,249.1,229.9,81.8
611.0,141.5,282.3,249.2,224.4,73.6
614.25,140.6,271.3,250.9,220.9,70.3
617.5,141.6,252.3,251.3,215.1,63.6
620.75,141.1,227.0,259.6,209.2,61.2
624.0,143.4,213.9,258.7,205.4,58.1
627.25,143.7,198.8,267.5,203.3,62.0
630.5,143.9,179.9,271.1,198.3,65.6
633.75,143.8,166.0,265.0,191.6,64.5
637.0,145.9,149.4,270.2,188.5,70.8
640.25,144.3,140.5,266.4,183.7,71.6
643.5,144.1,126.1,263.9,178.0,74.9
646.75,145.4,113.2,268.2,175.6,81.8
650.0,146.1,101.9,262.7,170.2,83.1
653.25,143.7,92.4,265.6,167.3,89.0
656.5,148.1,82.8,268.6,166.5,94.2
659.75,150.1,75.3,262.9,162.8,94.4
663.0,146.6,70.7,258.0,158.4,94.2
666.25,148.5,66.4,257.9,157.6,96.1
669.5,147.2,63.0,254.7,155.0,96.1
672.75,144.2,59.1,249.4,150.9,95.3
676.0,146.4,57.1,245.1,149.5,94.0
679.25,145.2,55.7,234.2,145.0,89.3
682.5,144.1,55.5,222.5,140.7,83.5
685.75,143.3,55.1,211.3,136.6,78.3
689.0,143.2,53.6,206.5,134.4,76.8
692.25,137.7,52.9,200.6,130.4,74.1
695.5,138.0,53.3,188.7,126.7,68.4
698.75,138.8,53.8,182.9,125.2,65.6
702.0,135.6,52.7,175.1,121.2,62.5
705.25,132.6,51.4,171.7,118.6,61.4
708.5,129.5,51.2,165.8,115.5,58.5
711.75,129.5,52.5,164.9,115.6,57.4
715.0,128.0,53.4,162.0,114.5,55.6
718.25,123.9,51.6,162.7,112.7,56.4
721.5,119.1,51.3,158.7,109.7,54.3
724.75,119.9,50.2,157.3,109.1,54.4
728.0,114.9,50.1,152.7,105.9,51.9
731.25,110.3,50.4,150.9,103.9,50.6
734.5,108.5,49.6,152.1,103.4,51.4
737.75,104.5,48.6,150.1,101.1,50.9
741.0,100.6,49.1,143.8,97.8,47.4
744.25,95.7,49.0,141.4,95.4,46.2
747.5,91.9,48.3,136.2,92.1,44.0
750.75,86.4,48.5,133.9,89.6,42.8
754.0,82.2,48.7,132.3,87.7,42.1
757.25,78.9,48.3,127.5,84.9,39.9
760.5,73.5,47.7,121.9,81.0,37.7
763.75,69.3,47.1,119.0,78.5,36.8
767.0,64.1,47.5,114.5,75.4,34.9
770.25,60.9,46.3,110.0,72.4,33.3
773.5,56.5,47.4,105.8,69.9,31.4
776.75,53.7,46.7,99.3,66.6,28.6
780.0,50.2,46.9,94.2,63.7,26.4
783.25,48.9,48.4,88.4,61.9,22.9
786.5,47.0,48.1,82.8,59.3,20.3
789.75,47.0,47.0,79.0,57.7,18.5
793.0,45.9,46.8,74.4,55.7,16.2
796.25,45.3,46.0,66.5,52.6,12.1
799.5,45.4,46.3,61.3,51.0,9.0
802.75,46.5,47.5,58.3,50.8,6.5
806.0,47.0,46.5,55.3,49.6,4.9
809.25,46.3,45.7,54.3,48.8,4.8
812.5,47.6,46.5,53.5,49.2,3.8
815.75,47.2,47.6,53.0,49.3,3.2
819.0,46.5,47.7,53.0,49.0,3.5
822.25,44.9,48.2,51.2,48.1,3.2
825.5,43.9,,51.3,47.6,5.2
828.75,43.5,,51.1,47.3,5.4
832.0,44.5,,50.6,47.5,4.4
835.25,43.8,,49.6,46.7,4.1
838.5,44.2,,49.2,46.7,3.6
841.75,43.6,,50.0,46.8,4.5
845.0,44.8,,50.9,47.8,4.3
848.25,44.5,,48.8,46.6,3.1
851.5,43.6,,48.5,46.1,3.4
854.75,43.2,,49.2,46.2,4.2
858.0,42.7,,49.7,46.2,4.9
861.25,42.4,,47.7,45.0,3.7
864.5,42.4,,47.8,45.1,3.8
867.75,42.3,,46.7,44.5,3.2
871.0,42.4,,46.7,44.6,3.0
874.25,42.4,,46.6,44.5,3.0
877.5,41.3,,47.3,44.3,4.3
880.75,41.8,,47.9,44.8,4.3
884.0,42.6,,46.9,44.7,3.0
887.25,42.3,,48.2,45.3,4.2
890.5,43.1,,,43.1,
893.75,43.3,,,43.3,
897.0,42.9,,,42.9,
900.25,43.2,,,43.2,
903.5,42.7,,,42.7,
906.75,42.3,,,42.3,
910.0,41.2,,,41.2,
913.25,39.7,,,39.7,
916.5,39.5,,,39.5,
919.75,39.3,,,39.3,
920.25,39.6,,,39.6,