Folder: fsri_materials_database/01_Data/Rubber_Foam_Pipe_Insulation/Cone

Note: README.md
# Materials and Products Database
### Repository of materials and products properties and fire test data to improve fire modeling and fire investigation.

This project was supported in part by Award No. 2019-DU-BX-0018, awarded by the National Institute of Justice, Office of Justice Programs, U.S. Department of Justice. The opinions, findings, and conclusions or recommendations expressed in this publication / program / exhibition are those of the author(s) and do not necessarily reflect those of the Department of Justice.

***
***

__Cite this database:__ "McKinnon, M., Weinschenk, C., Dow, N., DiDomizio, M., and Madrzykowski, D. Materials and Products Database (Version 1.0.0), Fire Safety Research Institute, UL Research Institutes. Columbia, MD 21045, 2023."

__Cite the Technical Reference Guide:__ "McKinnon, M., Weinschenk, C., and Madrzykowski, D. Materials and Products Database - Technical Reference Guide, Fire Safety Research Institute, UL Research Institutes. Columbia, MD 21045, 2023."

__Cite the User Guide:__ "McKinnon, M., and Weinschenk, C. Materials and Products Database - User Guide, Fire Safety Research Institute, UL Research Institutes. Columbia, MD 21045, 2023."

***
***

## Database Structure

## 01_Data/
Raw data generated from each apparatus are included here in plain-text format. The data is organized first by material, next by the short name of test apparatus used, and where applicable additional filtering by test settings.

### Test Apparatus and Data File Structure
- __Cone Calorimeter__ (Cone)
    + Data file structure includes the material, the short name for the apparatus, heat flux setting and scan/scalar, date of test, and replicate number. Scan is for the raw output data and scalar is for the initial conditions and high-level test parameters. 
        * Example: __MDF_Cone_HF25scalar_210323_R1__ stands for the first replicate of scalar data generated from a medium density fiber board test in cone calorimeter exposed to 25 kW/m<sup>2</sup> on March 23, 2021.
    + A _Cone_Notes.csv_ is generated for each material from the __plot_Cone_data.py__ script. For materials whose experiments deviated from typical behavior relevant pictures are included in the respective material directory.
- __Fourier Transform Infrared Spectrometer__ (FTIR)
    + The FTIR directory contains subdirectories for the Attenuated Total Reflectance method (ATR) and the Integrating Sphere (IS)
    + Data file structure for the ATR experiment files includes the material, the abbreviated name for the apparatus, date of test, and replicate number. 
        * Example: __MDF_ATR_210323_R5__ stands for the fifth replicate of data collected with the ATR accessory conducted on June 8, 2021.
    + Data file structure for the IS experiment files includes the material, the abbreviated name for the apparatus, the measurand, whether the test is a sample measurement or standard reference, date of test, and replicate number.
        * Example: __OSB_IS_REFLECT_MEAS_2

File: Rubber_Foam_Pipe_Insulation_HRRPUA_25.csv
Time after Ignition,Rubber_Foam_Pipe_Insulation_R1,Rubber_Foam_Pipe_Insulation_R2,Rubber_Foam_Pipe_Insulation_R3,Mean,Std. Dev.
0.0,13.8,13.5,19.6,15.6,3.5
0.25,16.3,18.4,25.2,20.0,4.7
0.5,21.1,22.6,29.2,24.3,4.3
0.75,25.1,27.1,33.2,28.4,4.2
1.0,28.2,34.2,37.3,33.2,4.6
1.25,32.3,40.7,44.1,39.1,6.1
1.5,35.0,46.8,49.9,43.9,7.9
1.75,38.0,51.7,55.8,48.5,9.3
2.0,42.0,57.0,63.9,54.3,11.2
2.25,45.2,63.4,71.1,59.9,13.3
2.5,49.7,69.4,76.8,65.3,14.0
2.75,52.4,74.8,82.3,69.8,15.5
3.0,55.7,78.6,88.1,74.1,16.7
3.25,60.7,83.9,94.1,79.6,17.1
3.5,64.2,90.3,98.9,84.4,18.1
3.75,68.6,93.9,105.1,89.2,18.7
4.0,71.8,98.4,110.6,93.6,19.8
4.25,75.5,102.3,114.5,97.4,19.9
4.5,80.2,108.1,119.8,102.7,20.3
4.75,82.5,111.3,121.2,105.0,20.1
5.0,85.6,118.3,125.8,109.9,21.4
5.25,91.1,118.5,129.4,113.0,19.8
5.5,93.6,124.6,136.7,118.3,22.2
5.75,98.0,128.8,140.1,122.3,21.8
6.0,99.6,130.5,141.5,123.9,21.7
6.25,103.9,133.7,141.4,126.3,19.8
6.5,106.8,136.4,146.9,130.1,20.8
6.75,110.9,135.4,147.8,131.4,18.8
7.0,112.8,142.4,151.7,135.6,20.3
7.25,117.7,145.1,150.5,137.8,17.6
7.5,120.4,148.3,156.9,141.9,19.1
7.75,122.2,151.4,158.7,144.1,19.3
8.0,125.8,152.7,159.9,146.2,18.0
8.25,129.1,154.2,162.4,148.6,17.4
8.5,128.6,158.8,165.1,150.9,19.5
8.75,134.9,150.9,163.9,149.9,14.5
9.0,135.7,157.9,165.6,153.1,15.5
9.25,139.1,159.6,168.5,155.7,15.1
9.5,140.9,160.5,166.6,156.0,13.4
9.75,143.4,163.7,170.9,159.3,14.3
10.0,147.4,168.2,170.0,161.8,12.6
10.25,149.4,165.2,170.0,161.5,10.8
10.5,150.1,163.6,170.8,161.5,10.5
10.75,151.2,167.6,170.4,163.1,10.4
11.0,153.0,167.5,174.8,165.1,11.1
11.25,157.9,164.7,173.7,165.4,7.9
11.5,157.7,167.2,172.5,165.8,7.5
11.75,162.2,168.2,174.8,168.4,6.3
12.0,158.6,169.7,175.1,167.8,8.4
12.25,164.9,172.3,176.9,171.4,6.1
12.5,163.0,170.0,176.7,169.9,6.8
12.75,169.7,170.3,176.4,172.2,3.7
13.0,168.1,167.3,175.7,170.4,4.6
13.25,169.7,171.1,178.1,172.9,4.5
13.5,173.2,166.4,176.4,172.0,5.1
13.75,173.3,167.4,177.4,172.7,5.0
14.0,173.1,168.3,177.7,173.0,4.7
14.25,176.3,163.2,176.4,172.0,7.6
14.5,176.8,164.7,176.9,172.8,7.0
14.75,177.6,169.0,181.4,176.0,6.4
15.0,177.6,170.0,181.5,176.4,5.8
15.25,178.2,170.4,180.9,176.5,5.4
15.5,180.0,170.7,180.6,177.1,5.5
15.75,179.4,168.8,178.5,175.5,5.9
16.0,182.6,169.9,179.2,177.2,6.5
16.25,183.6,169.6,177.6,176.9,7.0
16.5,183.4,168.7,180.9,177.7,7.9
16.75,182.0,168.2,180.2,176.8,7.5
17.0,183.0,168.1,180.0,177.1,7.9
17.25,182.7,168.1,185.7,178.9,9.4
17.5,185.0,167.7,182.8,178.5,9.4
17.75,187.3,170.9,183.1,180.4,8.5
18.0,185.0,168.5,182.4,178.6,8.9
18.25,186.7,166.5,183.0,178.7,10.8
18.5,186.5,166.5,183.7,178.9,10.9
18.75,185.1,168.0,184.2,179.1,9.6
19.0,185.8,170.1,181.6,179.2,8.1
19.25,185.1,177.1,186.0,182.8,4.9
19.5,189.2,170.6,181.9,180.6,9.4
19.75,189.7,169.9,183.1,180.9,10.1
20.0,187.2,173.4,180.1,180.2,6.9
20.25,189.5,176.5,184.2,183.4,6.5
20.5,189.9,175.5,180.7,182.0,7.3
20.75,195.3,176.8,186.8,186.3,9.3
21.0,192.9,181.7,182.5,185.7,6.3
21.25,192.2,180.8,185.9,186.3,5.7
21.5,196.1,182.4,182.5,187.0,7.9
21.75,192.5,182.5,185.1,186.7,5.2
22.0,195.5,183.2,181.7,186.8,7.6
22.25,195.4,188.4,184.2,189.3,5.7
22.5,199.9,189.3,181.8,190.3,9.1
22.75,197.4,188.6,183.6,189.9,7.0
23.0,196.6,190.2,181.5,189.4,7.5
23.25,199.2,190.0,177.4,188.9,11.0
23.5,198.3,196.3,180.5,191.7,9.8
23.75,197.4,195.5,178.2,190.4,10.6
24.0,201.2,195.4,179.3,192.0,11.4
24.25,202.1,198.8,177.7,192.9,13.2
24.5,198.3,202.2,178.3,193.0,12.8
24.75,199.9,201.6,175.6,192.4,14.6
25.0,199.7,202.6,176.2,192.9,14.5
25.25,201.1,202.5,171.8,191.8,17.4
25.5,200.5,201.4,174.0,192.0,15.5
25.75,203.3,206.0,176.1,195.2,16.5
26.0,202.2,208.6,173.2,194.7,18.8
26.25,202.8,207.6,176.9,195.8,16.5
26.5,203.2,211.8,174.2,196.4,19.7
26.75,201.9,204.6,174.5,193.7,16.7
27.0,201.6,209.7,176.9,196.1,17.1
27.25,200.0,213.5,178.6,197.4,17.6
27.5,203.0,206.7,174.9,194.9,17.4
27.75,198.6,209.7,176.2,194.8,17.1
28.0,196.1,211.6,176.8,194.8,17.4
28.25,200.3,205.8,174.6,193.6,16.6
28.5,200.3,209.0,177.5,195.6,16.3
28.75,201.4,213.8,173.8,196.3,20.5
29.0,196.7,212.8,173.9,194.5,19.5
29.25,199.8,215.1,174.2,196.3,20.7
29.5,197.1,215.7,171.8,194.9,22.0
29.75,194.1,212.8,172.2,193.0,20.3
30.0,194.3,218.3,173.2,195.3,22.5
30.25,191.6,211.6,170.5,191.2,20.6
30.5,191.1,215.9,174.5,193.8,20.8
30.75,189.6,215.2,171.2,192.0,22.1
31.0,189.2,214.8,173.8,192.6,20.7
31.25,186.3,215.8,172.6,191.6,22.1
31.5,188.4,213.0,170.1,190.5,21.5
31.75,182.6,213.1,169.5,188.4,22.4
32.0,180.5,211.6,165.5,185.8,23.5
32.25,182.8,215.8,169.0,189.2,24.0
32.5,181.3,211.1,168.4,186.9,21.9
32.75,173.6,212.8,168.0,184.8,24.4
33.0,177.7,214.8,167.3,186.6,24.9
33.25,178.3,207.8,163.1,183.1,22.7
33.5,175.1,210.9,165.0,183.7,24.2
33.75,175.8,209.2,164.5,183.2,23.2
34.0,175.3,208.2,162.7,182.1,23.4
34.25,177.8,206.1,166.1,183.3,20.6
34.5,173.4,208.5,163.8,181.9,23.6
34.75,171.5,208.1,164.1,181.2,23.6
35.0,171.4,204.9,159.1,178.5,23.7
35.25,169.2,202.7,159.9,177.2,22.5
35.5,171.4,202.8,159.0,177.7,22.6
35.75,168.8,199.9,159.7,176.1,21.1
36.0,168.1,199.4,157.5,175.0,21.8
36.25,168.1,197.3,156.6,174.0,21.0
36.5,165.5,197.1,155.8,172.8,21.6
36.75,167.6,197.3,156.1,173.7,21.2
37.0,167.2,197.2,154.8,173.1,21.8
37.25,166.9,196.1,153.3,172.1,21.9
37.5,166.2,196.7,154.6,172.5,21.7
37.75,165.0,193.8,150.0,169.6,22.3
38.0,163.6,189.8,147.5,167.0,21.4
38.25,165.7,189.0,150.2,168.3,19.5
38.5,165.1,190.7,152.4,169.4,19.5
38.75,162.4,191.6,149.2,167.7,21.7
39.0,164.1,189.6,147.9,167.2,21.0
39.25,162.7,189.2,147.6,166.5,21.1
39.5,159.5,188.5,145.6,164.5,21.9
39.75,159.3,187.4,145.7,164.1,21.3
40.0,159.1,186.9,142.8,162.9,22.3
40.25,158.0,186.9,138.1,161.0,24.5
40.5,154.8,182.2,139.1,158.7,21.8
40.75,159.4,181.1,141.4,160.6,19.9
41.0,157.5,180.6,139.4,159.2,20.7
41.25,155.7,179.8,139.3,158.3,20.4
41.5,153.5,176.3,137.0,155.6,19.7
41.75,152.3,170.8,133.9,152.4,18.4
42.0,152.0,169.0,133.3,151.4,17.8
42.25,153.5,170.1,132.1,151.9,19.1
42.5,151.8,167.6,131.0,150.2,18.4
42.75,151.3,160.0,128.8,146.7,16.1
43.0,151.8,158.8,123.8,144.8,18.5
43.25,148.9,154.1,124.1,142.3,16.0
43.5,147.4,150.3,122.6,140.1,15.2
43.75,144.7,147.5,119.8,137.3,15.2
44.0,144.6,147.2,119.8,137.2,15.1
44.25,141.1,143.8,116.9,133.9,14.8
44.5,139.2,139.9,116.7,132.0,13.2
44.75,137.8,135.5,113.0,128.8,13.7
45.0,135.4,132.7,112.2,126.7,12.7
45.25,133.5,130.8,109.6,124.6,13.1
45.5,133.2,126.8,107.5,122.5,13.4
45.75,129.5,123.5,106.9,120.0,11.7
46.0,127.8,121.4,104.7,118.0,11.9
46.25,126.4,117.2,103.0,115.5,11.8
46.5,125.5,115.4,101.4,114.1,12.1
46.75,122.4,114.2,100.8,112.5,10.9
47.0,117.2,110.2,99.2,108.9,9.0
47.25,118.0,107.2,98.7,107.9,9.7
47.5,116.0,104.0,97.0,105.7,9.6
47.75,114.1,103.5,95.4,104.3,9.4
48.0,112.4,99.2,92.8,101.5,10.0
48.25,110.2,96.9,92.4,99.9,9.2
48.5,109.7,92.3,90.6,97.5,10.6
48.75,106.9,89.6,90.1,95.5,9.8
49.0,105.5,86.6,88.0,93.4,10.6
49.25,101.3,82.6,87.6,90.5,9.7
49.5,101.2,80.9,86.2,89.4,10.6
49.75,98.4,78.9,84.8,87.4,10.0
50.0,96.9,76.7,81.9,85.1,10.5
50.25,95.7,72.2,80.7,82.9,11.9
50.5,93.9,72.2,79.8,82.0,11.0
50.75,92.8,71.0,76.4,80.1,11.4
51.0,90.5,67.6,75.9,78.0,11.6
51.25,89.4,,74.3,81.9,10.7
51.5,86.4,,72.4,79.4,9.9
51.75,85.3,,71.3,78.3,9.9
52.0,82.9,,69.8,76.4,9.2
52.25,81.1,,68.8,74.9,8.6
52.5,78.0,,67.8,72.9,7.2
52.75,76.6,,66.6,71.6,7.1
53.0,74.9,,65.1,70.0,6.9
53.25,72.4,,63.5,67.9,6.3
53.5,71.2,,62.5,66.9,6.2
53.75,69.3,,61.6,65.5,5.4
54.0,67.5,,61.3,64.4,4.4
54.25,66.0,,59.7,62.9,4.5
54.5,64.3,,58.8,61.6,3.9
54.75,62.6,,57.5,60.0,3.7

File: Rubber_Foam_Pipe_Insulation_HRRPUA_50.csv
Time after Ignition,Rubber_Foam_Pipe_Insulation_R1,Rubber_Foam_Pipe_Insulation_R2,Rubber_Foam_Pipe_Insulation_R3,Mean,Std. Dev.
0.0,60.3,60.9,69.4,63.5,5.1
0.25,70.9,68.7,79.9,73.2,5.9
0.5,80.6,77.9,89.3,82.6,6.0
0.75,89.0,83.5,96.9,89.8,6.7
1.0,96.1,91.4,106.2,97.9,7.6
1.25,103.3,102.2,118.0,107.8,8.8
1.5,112.7,111.2,125.4,116.4,7.8
1.75,121.8,120.6,133.6,125.4,7.2
2.0,130.6,126.4,142.8,133.3,8.5
2.25,134.9,136.5,152.1,141.2,9.5
2.5,140.4,142.8,154.8,146.0,7.7
2.75,147.8,155.2,162.2,155.0,7.2
3.0,155.8,158.9,167.5,160.7,6.0
3.25,159.6,162.2,172.7,164.8,6.9
3.5,169.7,168.2,177.3,171.8,4.9
3.75,170.2,175.5,181.7,175.8,5.8
4.0,174.2,175.3,183.7,177.7,5.2
4.25,177.8,180.4,185.4,181.2,3.9
4.5,178.5,183.9,193.5,185.3,7.6
4.75,185.5,185.1,193.7,188.1,4.9
5.0,189.0,187.8,195.6,190.8,4.2
5.25,187.6,191.4,200.2,193.1,6.5
5.5,190.7,192.5,201.2,194.8,5.6
5.75,194.9,189.6,196.1,193.5,3.5
6.0,196.9,197.1,195.0,196.3,1.2
6.25,195.7,196.4,202.7,198.3,3.8
6.5,197.2,195.4,203.9,198.8,4.5
6.75,201.0,198.5,203.2,200.9,2.3
7.0,200.7,198.9,205.4,201.6,3.4
7.25,196.6,196.4,205.6,199.5,5.3
7.5,198.5,197.6,204.9,200.3,4.0
7.75,201.0,197.1,203.1,200.4,3.1
8.0,204.5,195.6,200.1,200.1,4.5
8.25,201.2,195.9,202.4,199.8,3.4
8.5,199.9,191.3,202.3,197.9,5.8
8.75,198.1,193.6,200.4,197.4,3.5
9.0,204.9,192.0,195.5,197.5,6.7
9.25,203.6,193.9,200.4,199.3,4.9
9.5,202.3,195.0,196.9,198.1,3.8
9.75,205.5,193.2,194.3,197.7,6.8
10.0,204.0,188.0,196.7,196.3,8.0
10.25,205.0,190.5,197.7,197.8,7.3
10.5,205.8,192.3,199.4,199.2,6.8
10.75,203.6,191.5,202.0,199.0,6.6
11.0,206.2,193.1,197.7,199.0,6.7
11.25,209.1,192.0,198.1,199.7,8.7
11.5,208.1,192.0,198.1,199.4,8.1
11.75,208.0,195.4,199.2,200.9,6.4
12.0,206.7,191.3,199.5,199.2,7.7
12.25,205.0,194.3,199.2,199.5,5.4
12.5,207.2,192.0,201.1,200.1,7.7
12.75,209.1,193.4,199.5,200.7,7.9
13.0,212.2,190.7,200.4,201.1,10.8
13.25,210.0,192.8,207.4,203.4,9.3
13.5,213.6,192.6,199.6,201.9,10.7
13.75,208.1,196.2,200.2,201.5,6.0
14.0,213.6,197.5,200.5,203.9,8.5
14.25,218.9,192.0,204.9,205.3,13.4
14.5,218.5,193.0,204.5,205.3,12.8
14.75,219.1,195.1,207.6,207.3,12.0
15.0,212.2,197.0,210.1,206.5,8.3
15.25,215.8,191.7,210.0,205.8,12.6
15.5,219.8,194.7,208.3,207.6,12.6
15.75,221.6,196.5,206.3,208.1,12.7
16.0,222.5,194.8,212.7,210.0,14.1
16.25,222.6,194.8,211.2,209.5,14.0
16.5,222.1,193.7,214.4,210.1,14.7
16.75,225.7,195.9,212.6,211.4,15.0
17.0,228.4,195.3,217.2,213.6,16.8
17.25,228.7,197.5,220.6,215.6,16.2
17.5,229.9,199.1,218.2,215.7,15.6
17.75,230.7,197.8,218.8,215.8,16.7
18.0,233.3,196.9,220.8,217.0,18.5
18.25,227.7,199.2,223.7,216.9,15.4
18.5,228.2,197.3,214.2,213.2,15.5
18.75,226.9,199.9,221.7,216.2,14.3
19.0,231.4,200.5,222.3,218.0,15.9
19.25,231.2,201.6,222.3,218.4,15.2
19.5,230.6,204.2,221.1,218.6,13.4
19.75,236.7,201.9,217.7,218.8,17.4
20.0,229.8,204.4,220.3,218.2,12.8
20.25,225.7,201.6,223.6,217.0,13.4
20.5,227.4,200.6,221.7,216.6,14.1
20.75,231.0,201.2,221.7,217.9,15.3
21.0,234.2,198.3,222.1,218.2,18.3
21.25,234.8,206.1,219.3,220.0,14.4
21.5,232.3,205.1,221.8,219.7,13.7
21.75,233.7,203.3,219.6,218.8,15.2
22.0,232.7,206.5,217.7,218.9,13.1
22.25,229.2,206.1,219.9,218.4,11.6
22.5,231.8,206.5,213.3,217.2,13.1
22.75,232.1,206.1,214.4,217.6,13.3
23.0,230.9,202.8,213.9,215.9,14.1
23.25,232.5,204.2,214.9,217.2,14.3
23.5,230.0,202.9,212.5,215.1,13.8
23.75,227.0,201.7,211.8,213.5,12.8
24.0,226.7,202.2,208.1,212.3,12.8
24.25,225.3,199.0,204.8,209.7,13.8
24.5,220.4,197.6,209.7,209.2,11.4
24.75,218.9,197.7,205.1,207.2,10.8
25.0,216.1,195.0,204.0,205.1,10.6
25.25,214.8,197.0,204.5,205.4,8.9
25.5,207.1,193.9,200.1,200.3,6.6
25.75,209.1,193.2,204.0,202.1,8.1
26.0,203.9,192.8,196.9,197.9,5.6
26.25,200.4,190.3,196.7,195.8,5.1
26.5,205.3,188.5,194.8,196.2,8.5
26.75,198.9,189.1,194.3,194.1,4.9
27.0,195.9,188.5,193.4,192.6,3.8
27.25,186.4,185.0,190.3,187.2,2.8
27.5,191.4,186.4,188.2,188.7,2.5
27.75,188.3,185.5,185.6,186.5,1.6
28.0,190.6,185.1,186.4,187.3,2.9
28.25,189.1,183.9,188.3,187.1,2.8
28.5,183.7,184.6,181.3,183.2,1.7
28.75,182.2,178.6,183.6,181.5,2.6
29.0,178.2,178.4,181.6,179.4,1.9
29.25,179.0,179.0,181.0,179.7,1.2
29.5,181.3,175.1,177.7,178.0,3.1
29.75,178.2,175.3,180.1,177.9,2.4
30.0,178.9,174.9,179.6,177.8,2.5
30.25,174.4,173.8,177.4,175.2,1.9
30.5,171.4,171.4,174.4,172.4,1.7
30.75,172.0,167.9,177.9,172.6,5.0
31.0,169.6,167.2,170.1,169.0,1.5
31.25,167.4,167.4,171.0,168.6,2.1
31.5,168.3,166.1,168.7,167.7,1.4
31.75,164.7,163.3,168.8,165.6,2.9
32.0,160.8,160.8,166.9,162.8,3.5
32.25,163.5,160.2,160.1,161.3,1.9
32.5,158.7,157.1,162.9,159.6,3.0
32.75,156.5,159.6,161.8,159.3,2.7
33.0,154.1,155.2,158.1,155.8,2.0
33.25,152.4,156.1,158.1,155.5,2.9
33.5,150.6,152.9,153.4,152.3,1.5
33.75,148.5,151.7,152.8,151.0,2.2
34.0,148.8,149.8,150.3,149.6,0.8
34.25,147.9,149.6,146.1,147.9,1.7
34.5,143.4,148.5,144.9,145.6,2.6
34.75,141.9,145.6,145.0,144.2,2.0
35.0,141.7,144.0,142.7,142.8,1.2
35.25,142.4,141.7,137.9,140.6,2.4
35.5,140.6,140.8,137.9,139.8,1.6
35.75,138.5,139.3,134.4,137.4,2.6
36.0,137.2,138.6,131.2,135.7,4.0
36.25,134.3,136.2,130.4,133.6,2.9
36.5,134.4,134.5,130.9,133.3,2.1
36.75,132.4,135.4,128.5,132.1,3.4
37.0,130.1,130.9,127.6,129.5,1.7
37.25,128.0,127.5,124.1,126.5,2.1
37.5,124.7,126.6,122.8,124.7,1.9
37.75,124.1,123.2,123.2,123.5,0.5
38.0,124.7,121.9,121.4,122.6,1.8
38.25,122.2,120.1,118.4,120.2,1.9
38.5,121.1,117.8,117.0,118.7,2.2
38.75,114.8,115.5,115.6,115.3,0.4
39.0,112.5,112.0,114.0,112.8,1.1
39.25,112.1,112.5,112.4,112.3,0.2
39.5,109.6,110.9,110.9,110.4,0.7
39.75,108.2,106.5,108.6,107.7,1.1
40.0,104.6,104.2,107.1,105.3,1.5
40.25,104.5,103.5,104.3,104.1,0.6
40.5,100.7,101.2,100.5,100.8,0.4
40.75,99.7,99.4,100.2,99.8,0.4
41.0,96.7,97.9,98.3,97.6,0.8
41.25,95.9,95.7,94.0,95.2,1.0
41.5,95.0,93.0,91.8,93.3,1.6
41.75,91.0,92.4,89.1,90.8,1.7
42.0,88.7,89.1,87.1,88.3,1.1
42.25,86.0,87.5,84.3,85.9,1.6
42.5,84.7,85.4,82.8,84.3,1.3
42.75,83.6,83.5,81.7,82.9,1.1
43.0,81.2,81.3,78.3,80.3,1.7
43.25,80.6,79.7,76.8,79.0,2.0
43.5,78.6,77.7,76.0,77.4,1.3
43.75,76.8,76.8,73.8,75.8,1.7
44.0,76.3,74.2,73.0,74.5,1.7
44.25,74.5,72.0,69.1,71.8,2.7
44.5,71.9,70.5,68.8,70.4,1.5
44.75,71.6,69.1,66.4,69.0,2.6
45.0,70.2,66.1,65.7,67.3,2.5
45.25,67.9,65.0,63.8,65.6,2.2
45.5,67.3,63.4,62.3,64.3,2.7
45.75,64.3,61.0,62.1,62.5,1.7
46.0,62.6,59.0,59.5,60.4,1.9
46.25,61.6,57.5,58.7,59.3,2.1
46.5,60.6,56.9,58.0,58.5,1.9
46.75,59.2,54.5,57.9,57.2,2.4
47.0,58.1,53.9,54.2,55.4,2.3
47.25,56.4,53.0,53.5,54.3,1.9
47.5,55.4,51.3,52.7,53.1,2.1
47.75,54.2,50.7,50.8,51.9,2.0
48.0,52.4,50.4,49.2,50.7,1.6
48.25,53.2,50.2,48.5,50.6,2.4
48.5,52.3,48.9,46.7,49.3,2.8
48.75,50.9,48.5,,49.7,1.7
49.0,49.5,46.4,,48.0,2.2
49.25,49.7,46.8,,48.3,2.0

File: Rubber_Foam_Pipe_Insulation_HRRPUA_75.csv
Time after Ignition,Rubber_Foam_Pipe_Insulation_R1,Rubber_Foam_Pipe_Insulation_R2,Rubber_Foam_Pipe_Insulation_R3,Mean,Std. Dev.
0.0,79.1,77.8,79.1,78.7,0.8
0.25,92.6,90.1,97.3,93.3,3.7
0.5,105.3,99.4,115.7,106.8,8.2
0.75,120.7,117.9,132.6,123.7,7.8
1.0,134.4,133.5,127.7,131.9,3.7
1.25,148.5,143.4,139.3,143.8,4.6
1.5,164.4,159.8,152.8,159.0,5.8
1.75,172.1,170.6,164.8,169.2,3.9
2.0,183.6,173.6,176.6,177.9,5.1
2.25,199.7,190.3,183.2,191.1,8.3
2.5,197.6,192.8,199.0,196.5,3.2
2.75,207.7,203.4,208.3,206.5,2.7
3.0,213.3,209.8,208.3,210.5,2.6
3.25,219.4,216.1,216.0,217.2,1.9
3.5,223.1,221.1,220.9,221.7,1.2
3.75,229.7,226.2,227.0,227.6,1.9
4.0,235.4,229.1,232.2,232.2,3.1
4.25,241.6,232.2,235.9,236.6,4.8
4.5,242.5,233.2,245.6,240.5,6.5
4.75,242.6,244.8,245.6,244.3,1.6
5.0,253.9,242.7,245.8,247.4,5.8
5.25,246.8,244.2,245.4,245.5,1.3
5.5,255.0,247.1,247.5,249.9,4.4
5.75,255.2,245.6,248.3,249.7,4.9
6.0,260.5,247.6,251.1,253.1,6.7
6.25,260.7,248.4,255.9,255.0,6.2
6.5,261.7,244.0,253.4,253.0,8.8
6.75,266.2,244.3,250.8,253.8,11.3
7.0,265.6,243.8,255.3,254.9,10.9
7.25,271.3,244.1,256.6,257.3,13.6
7.5,272.0,243.8,258.5,258.1,14.1
7.75,267.9,244.0,253.3,255.0,12.1
8.0,273.7,241.8,259.4,258.3,16.0
8.25,273.1,241.5,260.9,258.5,15.9
8.5,273.2,239.7,254.1,255.7,16.8
8.75,272.4,236.6,257.7,255.5,18.0
9.0,263.5,235.7,256.2,251.8,14.4
9.25,272.6,232.4,254.4,253.1,20.1
9.5,268.1,236.9,255.7,253.6,15.7
9.75,277.5,237.1,258.4,257.7,20.3
10.0,273.7,235.6,253.1,254.1,19.1
10.25,270.6,236.8,253.8,253.7,16.9
10.5,273.1,236.6,259.2,256.3,18.4
10.75,270.6,237.4,257.6,255.2,16.7
11.0,269.5,229.9,263.4,254.3,21.3
11.25,276.7,233.6,266.8,259.0,22.5
11.5,277.2,230.2,262.7,256.7,24.1
11.75,276.5,232.1,268.0,258.9,23.6
12.0,277.8,227.6,266.3,257.2,26.3
12.25,282.2,230.1,267.6,260.0,26.9
12.5,283.8,231.7,268.5,261.3,26.8
12.75,291.1,229.7,272.2,264.3,31.4
13.0,290.6,231.5,273.8,265.3,30.4
13.25,287.3,227.7,276.4,263.8,31.7
13.5,286.4,225.4,276.4,262.7,32.7
13.75,290.3,225.2,280.0,265.2,35.0
14.0,293.7,227.5,279.0,266.7,34.8
14.25,296.0,226.6,283.6,268.7,37.0
14.5,291.7,224.2,283.9,266.6,36.9
14.75,299.7,225.5,283.0,269.4,39.0
15.0,294.0,224.5,282.3,266.9,37.2
15.25,295.9,225.4,280.0,267.1,37.0
15.5,297.1,218.8,278.9,264.9,41.0
15.75,295.3,221.5,268.9,261.9,37.4
16.0,299.9,214.2,270.6,261.6,43.6
16.25,298.7,216.6,276.2,263.8,42.4
16.5,295.5,219.2,277.5,264.1,39.9
16.75,295.5,214.0,282.5,264.0,43.8
17.0,291.1,216.7,280.5,262.8,40.2
17.25,293.8,217.1,280.2,263.7,40.9
17.5,289.2,220.4,277.5,262.3,36.8
17.75,287.1,216.5,276.4,260.0,38.1
18.0,287.3,215.0,275.8,259.3,38.8
18.25,281.2,214.4,272.6,256.0,36.3
18.5,280.0,217.0,270.5,255.8,34.0
18.75,275.5,218.3,269.3,254.4,31.4
19.0,272.7,217.4,265.9,252.0,30.2
19.25,272.9,217.1,264.1,251.4,30.0
19.5,269.1,212.5,266.0,249.2,31.8
19.75,267.2,215.6,262.4,248.4,28.5
20.0,261.1,213.7,255.5,243.4,25.9
20.25,257.2,208.3,255.5,240.3,27.7
20.5,256.8,215.2,251.6,241.2,22.7
20.75,254.9,212.9,248.0,238.6,22.5
21.0,247.2,208.2,247.6,234.3,22.6
21.25,244.8,211.9,241.5,232.7,18.1
21.5,242.3,207.4,241.8,230.5,20.0
21.75,239.6,207.5,243.2,230.1,19.6
22.0,234.2,207.6,239.5,227.1,17.1
22.25,230.8,202.7,232.8,222.1,16.9
22.5,227.6,204.1,232.3,221.3,15.1
22.75,224.5,200.2,229.2,217.9,15.5
23.0,219.0,199.5,226.9,215.2,14.1
23.25,217.4,202.0,222.5,214.0,10.7
23.5,211.3,199.1,216.4,208.9,8.9
23.75,207.4,199.4,218.4,208.4,9.5
24.0,207.1,194.4,210.7,204.1,8.6
24.25,201.2,193.3,207.4,200.6,7.1
24.5,196.9,194.9,205.7,199.2,5.7
24.75,191.2,191.8,202.1,195.0,6.1
25.0,184.4,193.2,202.1,193.2,8.9
25.25,179.2,192.5,198.6,190.1,9.9
25.5,176.5,189.5,195.4,187.1,9.6
25.75,171.3,186.2,192.1,183.2,10.7
26.0,163.6,189.6,194.9,182.7,16.7
26.25,162.6,185.2,187.7,178.5,13.8
26.5,157.1,185.8,185.2,176.0,16.4
26.75,154.7,180.4,178.4,171.2,14.3
27.0,149.5,182.3,176.4,169.4,17.5
27.25,145.7,177.4,173.1,165.4,17.2
27.5,142.7,171.6,170.3,161.6,16.3
27.75,140.8,172.1,166.5,159.8,16.7
28.0,138.9,168.8,162.7,156.8,15.8
28.25,135.8,167.7,158.6,154.0,16.4
28.5,130.9,165.5,154.0,150.2,17.6
28.75,128.5,165.3,152.8,148.9,18.7
29.0,124.8,166.3,147.8,146.3,20.8
29.25,119.3,161.5,146.7,142.5,21.4
29.5,115.3,160.2,140.6,138.7,22.5
29.75,113.3,157.7,139.5,136.8,22.3
30.0,109.9,154.1,137.1,133.7,22.3
30.25,105.6,151.4,136.3,131.1,23.3
30.5,104.1,147.3,131.7,127.7,21.9
30.75,100.8,145.5,129.1,125.1,22.7
31.0,97.8,141.7,125.3,121.6,22.2
31.25,94.5,144.0,124.5,121.0,24.9
31.5,90.9,136.9,121.3,116.4,23.4
31.75,88.9,134.0,120.8,114.6,23.2
32.0,86.5,132.9,117.3,112.2,23.6
32.25,84.3,129.1,113.7,109.0,22.7
32.5,81.0,126.8,112.4,106.7,23.4
32.75,79.3,123.9,108.2,103.8,22.6
33.0,77.4,123.8,106.9,102.7,23.5
33.25,74.5,121.6,102.7,99.6,23.7
33.5,71.2,120.1,103.3,98.2,24.8
33.75,71.3,119.5,100.9,97.2,24.3