Folder: fsri_materials_database/01_Data/PLA_3D_Printer_Filament/FTIR/IS (part 2)

File: PLA_3D_Printer_Filament_IS_S_221108_R6.dpt
7497.03,0.04504
7473.89,0.05518
7450.74,0.05265
7427.6,0.05106
7404.45,0.05161
7381.31,0.04663
7358.16,0.05521
7335.02,0.05050
7311.87,0.05990
7288.73,0.04758
7265.58,0.05584
7242.44,0.05737
7219.29,0.04893
7196.15,0.05480
7173,0.05730
7149.86,0.04495
7126.71,0.05063
7103.57,0.05545
7080.42,0.04952
7057.28,0.04611
7034.13,0.04980
7010.99,0.04605
6987.84,0.04549
6964.7,0.05263
6941.55,0.05051
6918.41,0.04814
6895.26,0.05090
6872.12,0.05212
6848.97,0.04668
6825.83,0.05809
6802.68,0.04590
6779.54,0.04775
6756.39,0.04857
6733.25,0.04489
6710.1,0.04877
6686.96,0.05321
6663.82,0.05148
6640.67,0.05210
6617.53,0.05019
6594.38,0.04751
6571.24,0.04860
6548.09,0.05122
6524.95,0.05014
6501.8,0.05031
6478.66,0.04952
6455.51,0.04964
6432.37,0.05073
6409.22,0.04293
6386.08,0.05107
6362.93,0.04915
6339.79,0.04985
6316.64,0.05002
6293.5,0.04784
6270.35,0.05011
6247.21,0.05030
6224.06,0.04548
6200.92,0.04704
6177.77,0.04812
6154.63,0.04758
6131.48,0.04961
6108.34,0.04868
6085.19,0.04824
6062.05,0.05177
6038.9,0.05377
6015.76,0.04942
5992.61,0.05039
5969.47,0.05217
5946.32,0.04815
5923.18,0.04559
5900.03,0.04744
5876.89,0.04916
5853.74,0.04913
5830.6,0.04739
5807.45,0.04811
5784.31,0.04855
5761.16,0.04746
5738.02,0.04876
5714.87,0.04776
5691.73,0.04927
5668.58,0.04880
5645.44,0.04863
5622.29,0.04942
5599.15,0.04945
5576,0.04903
5552.86,0.04849
5529.71,0.04897
5506.57,0.04820
5483.42,0.05161
5460.28,0.05005
5437.13,0.04670
5413.99,0.05016
5390.84,0.04865
5367.7,0.04903
5344.55,0.04940
5321.41,0.04988
5298.26,0.04891
5275.12,0.04744
5251.97,0.04788
5228.83,0.04582
5205.68,0.04813
5182.54,0.04810
5159.39,0.04763
5136.25,0.04960
5113.1,0.04873
5089.96,0.04828
5066.81,0.04779
5043.67,0.04999
5020.52,0.04864
4997.38,0.05000
4974.23,0.04878
4951.09,0.04900
4927.94,0.04774
4904.8,0.04858
4881.65,0.04967
4858.51,0.04723
4835.36,0.04738
4812.22,0.04737
4789.07,0.04682
4765.93,0.04768
4742.78,0.04686
4719.64,0.04710
4696.49,0.04641
4673.35,0.04800
4650.2,0.04762
4627.06,0.04741
4603.92,0.04776
4580.77,0.04748
4557.63,0.04832
4534.48,0.04814
4511.34,0.04799
4488.19,0.04778
4465.05,0.04688
4441.9,0.04600
4418.76,0.04671
4395.61,0.04593
4372.47,0.04516
4349.32,0.04559
4326.18,0.04540
4303.03,0.04426
4279.89,0.04562
4256.74,0.04564
4233.6,0.04633
4210.45,0.04604
4187.31,0.04664
4164.16,0.04640
4141.02,0.04568
4117.87,0.04565
4094.73,0.04512
4071.58,0.04485
4048.44,0.04476
4025.29,0.04396
4002.15,0.04499
3979,0.04505
3955.86,0.04536
3932.71,0.04528
3909.57,0.04534
3886.42,0.04665
3863.28,0.04608
3840.13,0.04665
3816.99,0.04708
3793.84,0.04671
3770.7,0.04659
3747.55,0.04594
3724.41,0.04557
3701.26,0.04443
3678.12,0.04400
3654.97,0.04244
3631.83,0.04156
3608.68,0.04194
3585.54,0.04048
3562.39,0.04005
3539.25,0.03951
3516.1,0.03924
3492.96,0.03907
3469.81,0.03918
3446.67,0.04027
3423.52,0.03982
3400.38,0.03921
3377.23,0.04027
3354.09,0.03939
3330.94,0.03946
3307.8,0.03886
3284.65,0.03872
3261.51,0.03989
3238.36,0.03917
3215.22,0.03921
3192.07,0.03928
3168.93,0.03964
3145.78,0.03994
3122.64,0.03978
3099.49,0.03976
3076.35,0.03911
3053.2,0.03937
3030.06,0.03910
3006.91,0.03739
2983.77,0.03819
2960.62,0.03817
2937.48,0.03953
2914.33,0.04159
2891.19,0.04025
2868.04,0.03970
2844.9,0.04131
2821.75,0.04080
2798.61,0.04127
2775.46,0.04121
2752.32,0.04078
2729.17,0.04112
2706.03,0.04086
2682.88,0.04101
2659.74,0.04097
2636.59,0.04043
2613.45,0.04095
2590.3,0.04098
2567.16,0.04098
2544.02,0.04095
2520.87,0.04050
2497.73,0.04070
2474.58,0.04124
2451.44,0.04141
2428.29,0.04103
2405.15,0.04136
2382,0.04085
2358.86,0.04150
2335.71,0.04125
2312.57,0.04126
2289.42,0.04111
2266.28,0.04120
2243.13,0.04088
2219.99,0.04107
2196.84,0.04077
2173.7,0.04027
2150.55,0.03985
2127.41,0.03975
2104.26,0.03922
2081.12,0.03915
2057.97,0.03945
2034.83,0.03944
2011.68,0.03932
1988.54,0.03931
1965.39,0.03926
1942.25,0.03887
1919.1,0.03831
1895.96,0.03755
1872.81,0.03686
1849.67,0.03503
1826.52,0.03294
1803.38,0.02869
1780.23,0.02325
1757.09,0.07415
1733.94,0.06061
1710.8,0.04928
1687.65,0.04381
1664.51,0.04138
1641.36,0.04113
1618.22,0.04041
1595.07,0.03928
1571.93,0.03863
1548.78,0.03764
1525.64,0.03723
1502.49,0.03551
1479.35,0.03314
1456.2,0.03395
1433.06,0.03749
1409.91,0.03338
1386.77,0.03059
1363.62,0.03436
1340.48,0.03500
1317.33,0.03241
1294.19,0.03078
1271.04,0.02911
1247.9,0.02911
1224.75,0.02642
1201.61,0.03870
1178.46,0.07007
1155.32,0.03702
1132.17,0.04398
1109.03,0.04145
1085.88,0.09220
1062.74,0.06739
1039.59,0.06705
1016.45,0.06966
993.304,0.06247
970.159,0.05603
947.014,0.05356
923.869,0.05093
900.724,0.04838
877.579,0.04671
854.434,0.04995
831.289,0.04804
808.144,0.04696
784.999,0.04383
761.854,0.04367
738.709,0.04704
715.565,0.04471
692.42,0.04554
669.275,0.04741
646.13,0.04398
622.985,0.04345
599.84,0.04280

File: PLA_3D_Printer_Filament_IS_S_221108_R7.dpt
7497.03,0.04998
7473.89,0.05160
7450.74,0.05934
7427.6,0.05054
7404.45,0.04785
7381.31,0.04968
7358.16,0.05370
7335.02,0.05189
7311.87,0.05233
7288.73,0.04967
7265.58,0.05703
7242.44,0.05518
7219.29,0.05240
7196.15,0.05240
7173,0.05391
7149.86,0.04754
7126.71,0.05858
7103.57,0.05279
7080.42,0.05297
7057.28,0.05423
7034.13,0.04585
7010.99,0.05540
6987.84,0.05003
6964.7,0.04959
6941.55,0.04753
6918.41,0.04937
6895.26,0.04695
6872.12,0.05040
6848.97,0.05324
6825.83,0.05275
6802.68,0.05005
6779.54,0.05082
6756.39,0.05091
6733.25,0.05204
6710.1,0.04845
6686.96,0.04947
6663.82,0.04468
6640.67,0.05254
6617.53,0.04617
6594.38,0.05202
6571.24,0.04724
6548.09,0.04859
6524.95,0.04917
6501.8,0.04796
6478.66,0.04673
6455.51,0.04608
6432.37,0.04868
6409.22,0.05076
6386.08,0.04849
6362.93,0.04864
6339.79,0.04850
6316.64,0.05008
6293.5,0.05054
6270.35,0.04779
6247.21,0.04837
6224.06,0.04730
6200.92,0.04947
6177.77,0.04534
6154.63,0.04987
6131.48,0.04978
6108.34,0.04964
6085.19,0.04861
6062.05,0.05088
6038.9,0.04684
6015.76,0.04883
5992.61,0.05219
5969.47,0.04784
5946.32,0.04949
5923.18,0.05006
5900.03,0.05017
5876.89,0.04937
5853.74,0.05007
5830.6,0.04836
5807.45,0.04803
5784.31,0.04786
5761.16,0.04821
5738.02,0.05030
5714.87,0.04911
5691.73,0.05029
5668.58,0.05035
5645.44,0.05014
5622.29,0.04858
5599.15,0.04815
5576,0.04798
5552.86,0.05039
5529.71,0.04888
5506.57,0.04983
5483.42,0.04924
5460.28,0.04914
5437.13,0.05020
5413.99,0.04983
5390.84,0.05031
5367.7,0.05069
5344.55,0.04961
5321.41,0.04953
5298.26,0.04797
5275.12,0.04931
5251.97,0.04976
5228.83,0.04863
5205.68,0.04935
5182.54,0.04692
5159.39,0.04971
5136.25,0.04811
5113.1,0.04898
5089.96,0.04827
5066.81,0.04919
5043.67,0.04941
5020.52,0.04961
4997.38,0.04860
4974.23,0.05005
4951.09,0.04890
4927.94,0.04966
4904.8,0.04927
4881.65,0.04827
4858.51,0.04875
4835.36,0.04860
4812.22,0.04752
4789.07,0.04723
4765.93,0.04695
4742.78,0.04776
4719.64,0.04686
4696.49,0.04749
4673.35,0.04769
4650.2,0.04852
4627.06,0.04865
4603.92,0.04835
4580.77,0.04846
4557.63,0.04821
4534.48,0.04755
4511.34,0.04882
4488.19,0.04847
4465.05,0.04861
4441.9,0.04579
4418.76,0.04754
4395.61,0.04662
4372.47,0.04620
4349.32,0.04542
4326.18,0.04707
4303.03,0.04600
4279.89,0.04583
4256.74,0.04677
4233.6,0.04595
4210.45,0.04587
4187.31,0.04619
4164.16,0.04642
4141.02,0.04569
4117.87,0.04565
4094.73,0.04617
4071.58,0.04484
4048.44,0.04501
4025.29,0.04562
4002.15,0.04501
3979,0.04523
3955.86,0.04538
3932.71,0.04636
3909.57,0.04591
3886.42,0.04630
3863.28,0.04637
3840.13,0.04738
3816.99,0.04693
3793.84,0.04707
3770.7,0.04674
3747.55,0.04677
3724.41,0.04607
3701.26,0.04531
3678.12,0.04460
3654.97,0.04345
3631.83,0.04249
3608.68,0.04182
3585.54,0.04100
3562.39,0.04066
3539.25,0.04055
3516.1,0.03945
3492.96,0.03855
3469.81,0.03964
3446.67,0.04063
3423.52,0.04039
3400.38,0.04021
3377.23,0.03988
3354.09,0.03998
3330.94,0.03960
3307.8,0.03930
3284.65,0.03958
3261.51,0.03974
3238.36,0.04035
3215.22,0.03952
3192.07,0.04033
3168.93,0.04016
3145.78,0.04005
3122.64,0.04008
3099.49,0.04029
3076.35,0.04018
3053.2,0.03979
3030.06,0.03900
3006.91,0.03770
2983.77,0.03856
2960.62,0.03842
2937.48,0.04071
2914.33,0.04208
2891.19,0.04091
2868.04,0.03993
2844.9,0.04198
2821.75,0.04124
2798.61,0.04184
2775.46,0.04178
2752.32,0.04187
2729.17,0.04186
2706.03,0.04207
2682.88,0.04170
2659.74,0.04157
2636.59,0.04168
2613.45,0.04175
2590.3,0.04142
2567.16,0.04176
2544.02,0.04150
2520.87,0.04133
2497.73,0.04120
2474.58,0.04157
2451.44,0.04158
2428.29,0.04151
2405.15,0.04168
2382,0.04141
2358.86,0.04195
2335.71,0.04209
2312.57,0.04192
2289.42,0.04170
2266.28,0.04159
2243.13,0.04132
2219.99,0.04133
2196.84,0.04154
2173.7,0.04109
2150.55,0.04046
2127.41,0.04012
2104.26,0.04021
2081.12,0.03991
2057.97,0.04007
2034.83,0.04019
2011.68,0.03997
1988.54,0.03952
1965.39,0.03951
1942.25,0.03935
1919.1,0.03879
1895.96,0.03802
1872.81,0.03714
1849.67,0.03593
1826.52,0.03333
1803.38,0.02893
1780.23,0.02308
1757.09,0.07485
1733.94,0.06127
1710.8,0.04964
1687.65,0.04437
1664.51,0.04201
1641.36,0.04176
1618.22,0.04071
1595.07,0.04029
1571.93,0.03910
1548.78,0.03824
1525.64,0.03769
1502.49,0.03604
1479.35,0.03322
1456.2,0.03425
1433.06,0.03770
1409.91,0.03385
1386.77,0.03046
1363.62,0.03477
1340.48,0.03598
1317.33,0.03308
1294.19,0.03097
1271.04,0.02963
1247.9,0.02898
1224.75,0.02671
1201.61,0.03896
1178.46,0.07110
1155.32,0.03741
1132.17,0.04473
1109.03,0.04258
1085.88,0.09392
1062.74,0.06818
1039.59,0.06751
1016.45,0.07047
993.304,0.06415
970.159,0.05656
947.014,0.05464
923.869,0.05197
900.724,0.04933
877.579,0.04654
854.434,0.04997
831.289,0.04929
808.144,0.04751
784.999,0.04486
761.854,0.04410
738.709,0.04619
715.565,0.04503
692.42,0.04613
669.275,0.04700
646.13,0.04351
622.985,0.04444
599.84,0.04286

File: PLA_3D_Printer_Filament_IS_T_221108_R6.dpt
7497.03,0.02944
7473.89,0.01964
7450.74,0.02115
7427.6,0.01876
7404.45,0.02741
7381.31,0.03238
7358.16,0.02168
7335.02,0.02486
7311.87,0.01398
7288.73,0.02451
7265.58,0.01679
7242.44,0.02730
7219.29,0.02571
7196.15,0.02615
7173,0.02544
7149.86,0.02239
7126.71,0.02193
7103.57,0.02278
7080.42,0.02693
7057.28,0.02090
7034.13,0.02917
7010.99,0.02498
6987.84,0.02163
6964.7,0.02803
6941.55,0.02723
6918.41,0.01874
6895.26,0.01845
6872.12,0.02315
6848.97,0.02880
6825.83,0.02270
6802.68,0.01908
6779.54,0.01953
6756.39,0.02171
6733.25,0.02302
6710.1,0.02717
6686.96,0.02081
6663.82,0.02275
6640.67,0.02269
6617.53,0.02335
6594.38,0.02010
6571.24,0.02363
6548.09,0.02247
6524.95,0.01992
6501.8,0.02199
6478.66,0.02006
6455.51,0.02064
6432.37,0.02005
6409.22,0.02156
6386.08,0.02013
6362.93,0.01884
6339.79,0.02017
6316.64,0.02065
6293.5,0.02429
6270.35,0.02215
6247.21,0.01994
6224.06,0.01951
6200.92,0.02053
6177.77,0.02334
6154.63,0.02446
6131.48,0.02500
6108.34,0.02142
6085.19,0.02255
6062.05,0.02011
6038.9,0.02094
6015.76,0.02013
5992.61,0.02511
5969.47,0.02265
5946.32,0.02127
5923.18,0.01853
5900.03,0.02002
5876.89,0.01894
5853.74,0.01992
5830.6,0.02237
5807.45,0.02214
5784.31,0.02123
5761.16,0.02050
5738.02,0.02355
5714.87,0.02240
5691.73,0.02288
5668.58,0.02056
5645.44,0.02167
5622.29,0.02296
5599.15,0.02321
5576,0.02106
5552.86,0.02018
5529.71,0.01924
5506.57,0.02140
5483.42,0.02052
5460.28,0.02107
5437.13,0.02310
5413.99,0.02227
5390.84,0.01955
5367.7,0.02260
5344.55,0.02254
5321.41,0.02252
5298.26,0.02141
5275.12,0.02105
5251.97,0.02135
5228.83,0.02266
5205.68,0.02120
5182.54,0.02118
5159.39,0.02196
5136.25,0.02204
5113.1,0.02254
5089.96,0.02177
5066.81,0.02155
5043.67,0.02232
5020.52,0.02211
4997.38,0.02137
4974.23,0.02231
4951.09,0.02045
4927.94,0.02192
4904.8,0.02141
4881.65,0.02157
4858.51,0.02248
4835.36,0.02168
4812.22,0.02338
4789.07,0.02298
4765.93,0.02152
4742.78,0.02233
4719.64,0.02314
4696.49,0.02197
4673.35,0.02229
4650.2,0.02137
4627.06,0.02171
4603.92,0.02173
4580.77,0.02194
4557.63,0.02276
4534.48,0.02210
4511.34,0.02177
4488.19,0.02241
4465.05,0.02263
4441.9,0.02327
4418.76,0.02224
4395.61,0.02202
4372.47,0.02217
4349.32,0.02210
4326.18,0.02274
4303.03,0.02207
4279.89,0.02251
4256.74,0.02155
4233.6,0.02196
4210.45,0.02273
4187.31,0.02185
4164.16,0.02253
4141.02,0.02235
4117.87,0.02214
4094.73,0.02316
4071.58,0.02256
4048.44,0.02239
4025.29,0.02219
4002.15,0.02235
3979,0.02258
3955.86,0.02275
3932.71,0.02291
3909.57,0.02275
3886.42,0.02340
3863.28,0.02323
3840.13,0.02280
3816.99,0.02233
3793.84,0.02311
3770.7,0.02268
3747.55,0.02222
3724.41,0.02270
3701.26,0.02207
3678.12,0.02203
3654.97,0.02256
3631.83,0.02283
3608.68,0.02237
3585.54,0.02180
3562.39,0.02159
3539.25,0.02160
3516.1,0.02126
3492.96,0.02043
3469.81,0.02018
3446.67,0.02073
3423.52,0.02058
3400.38,0.02014
3377.23,0.01964
3354.09,0.02130
3330.94,0.02019
3307.8,0.01991
3284.65,0.02071
3261.51,0.01993
3238.36,0.02046
3215.22,0.02093
3192.07,0.02094
3168.93,0.02076
3145.78,0.02081
3122.64,0.02082
3099.49,0.02090
3076.35,0.02079
3053.2,0.02070
3030.06,0.02087
3006.91,0.02038
2983.77,0.01973
2960.62,0.01968
2937.48,0.01969
2914.33,0.02031
2891.19,0.02079
2868.04,0.02030
2844.9,0.02103
2821.75,0.02146
2798.61,0.02151
2775.46,0.02137
2752.32,0.02138
2729.17,0.02171
2706.03,0.02147
2682.88,0.02148
2659.74,0.02180
2636.59,0.02147
2613.45,0.02159
2590.3,0.02160
2567.16,0.02137
2544.02,0.02158
2520.87,0.02150
2497.73,0.02169
2474.58,0.02158
2451.44,0.02186
2428.29,0.02142
2405.15,0.02192
2382,0.02152
2358.86,0.02171
2335.71,0.02191
2312.57,0.02153
2289.42,0.02154
2266.28,0.02124
2243.13,0.02130
2219.99,0.02127
2196.84,0.02124
2173.7,0.02150
2150.55,0.02127
2127.41,0.02093
2104.26,0.02134
2081.12,0.02129
2057.97,0.02094
2034.83,0.02106
2011.68,0.02149
1988.54,0.02165
1965.39,0.02091
1942.25,0.02129
1919.1,0.02134
1895.96,0.02068
1872.81,0.02076
1849.67,0.02088
1826.52,0.02022
1803.38,0.01995
1780.23,0.01936
1757.09,0.01794
1733.94,0.02021
1710.8,0.02115
1687.65,0.01968
1664.51,0.01891
1641.36,0.01886
1618.22,0.01893
1595.07,0.01932
1571.93,0.01888
1548.78,0.01830
1525.64,0.01907
1502.49,0.01937
1479.35,0.01870
1456.2,0.01880
1433.06,0.01910
1409.91,0.01903
1386.77,0.01823
1363.62,0.01847
1340.48,0.01836
1317.33,0.01740
1294.19,0.01861
1271.04,0.01961
1247.9,0.02082
1224.75,0.01959
1201.61,0.01931
1178.46,0.01842
1155.32,0.01788
1132.17,0.01764
1109.03,0.01868
1085.88,0.01863
1062.74,0.02025
1039.59,0.02089
1016.45,0.01971
993.304,0.02179
970.159,0.02063
947.014,0.02013
923.869,0.01919
900.724,0.01974
877.579,0.01928
854.434,0.01923
831.289,0.01955
808.144,0.01903
784.999,0.01874
761.854,0.01796
738.709,0.01837
715.565,0.01853
692.42,0.01788
669.275,0.01681
646.13,0.01645
622.985,0.01713
599.84,0.01449