Folder: fsri_materials_database/01_Data/PLA_3D_Printer_Filament/FTIR/IS

Note: README.md
# Materials and Products Database
### Repository of materials and products properties and fire test data to improve fire modeling and fire investigation.

This project was supported in part by Award No. 2019-DU-BX-0018, awarded by the National Institute of Justice, Office of Justice Programs, U.S. Department of Justice. The opinions, findings, and conclusions or recommendations expressed in this publication / program / exhibition are those of the author(s) and do not necessarily reflect those of the Department of Justice.

***
***

__Cite this database:__ "McKinnon, M., Weinschenk, C., Dow, N., DiDomizio, M., and Madrzykowski, D. Materials and Products Database (Version 1.0.0), Fire Safety Research Institute, UL Research Institutes. Columbia, MD 21045, 2023."

__Cite the Technical Reference Guide:__ "McKinnon, M., Weinschenk, C., and Madrzykowski, D. Materials and Products Database - Technical Reference Guide, Fire Safety Research Institute, UL Research Institutes. Columbia, MD 21045, 2023."

__Cite the User Guide:__ "McKinnon, M., and Weinschenk, C. Materials and Products Database - User Guide, Fire Safety Research Institute, UL Research Institutes. Columbia, MD 21045, 2023."

***
***

## Database Structure

## 01_Data/
Raw data generated from each apparatus are included here in plain-text format. The data is organized first by material, next by the short name of test apparatus used, and where applicable additional filtering by test settings.

### Test Apparatus and Data File Structure
- __Cone Calorimeter__ (Cone)
    + Data file structure includes the material, the short name for the apparatus, heat flux setting and scan/scalar, date of test, and replicate number. Scan is for the raw output data and scalar is for the initial conditions and high-level test parameters. 
        * Example: __MDF_Cone_HF25scalar_210323_R1__ stands for the first replicate of scalar data generated from a medium density fiber board test in cone calorimeter exposed to 25 kW/m<sup>2</sup> on March 23, 2021.
    + A _Cone_Notes.csv_ is generated for each material from the __plot_Cone_data.py__ script. For materials whose experiments deviated from typical behavior relevant pictures are included in the respective material directory.
- __Fourier Transform Infrared Spectrometer__ (FTIR)
    + The FTIR directory contains subdirectories for the Attenuated Total Reflectance method (ATR) and the Integrating Sphere (IS)
    + Data file structure for the ATR experiment files includes the material, the abbreviated name for the apparatus, date of test, and replicate number. 
        * Example: __MDF_ATR_210323_R5__ stands for the fifth replicate of data collected with the ATR accessory conducted on June 8, 2021.
    + Data file structure for the IS experiment files includes the material, the abbreviated name for the apparatus, the measurand, whether the test is a sample measurement or standard reference, date of test, and replicate number.
        * Example: __OSB_IS_REFLECT_MEAS_2

File: PLA_3D_Printer_Filament_IS_S_221108_R1.dpt
7497.03,0.04882
7473.89,0.04384
7450.74,0.05769
7427.6,0.05412
7404.45,0.05807
7381.31,0.04800
7358.16,0.06136
7335.02,0.05230
7311.87,0.04509
7288.73,0.04093
7265.58,0.05043
7242.44,0.05962
7219.29,0.04475
7196.15,0.04875
7173,0.05349
7149.86,0.04912
7126.71,0.04696
7103.57,0.05062
7080.42,0.04984
7057.28,0.04925
7034.13,0.04565
7010.99,0.04830
6987.84,0.04895
6964.7,0.05131
6941.55,0.04575
6918.41,0.04939
6895.26,0.04985
6872.12,0.05127
6848.97,0.04477
6825.83,0.05204
6802.68,0.05189
6779.54,0.05181
6756.39,0.04472
6733.25,0.04909
6710.1,0.05254
6686.96,0.04911
6663.82,0.04876
6640.67,0.04930
6617.53,0.04791
6594.38,0.04778
6571.24,0.04602
6548.09,0.04984
6524.95,0.04845
6501.8,0.04897
6478.66,0.04438
6455.51,0.04755
6432.37,0.05271
6409.22,0.05067
6386.08,0.04799
6362.93,0.05129
6339.79,0.04963
6316.64,0.04737
6293.5,0.04856
6270.35,0.04507
6247.21,0.04563
6224.06,0.04670
6200.92,0.04629
6177.77,0.04888
6154.63,0.04572
6131.48,0.05272
6108.34,0.05059
6085.19,0.04900
6062.05,0.04828
6038.9,0.04842
6015.76,0.04774
5992.61,0.04699
5969.47,0.04976
5946.32,0.04703
5923.18,0.04972
5900.03,0.04765
5876.89,0.04861
5853.74,0.04964
5830.6,0.04780
5807.45,0.04916
5784.31,0.04925
5761.16,0.04859
5738.02,0.04917
5714.87,0.04758
5691.73,0.04869
5668.58,0.04961
5645.44,0.04930
5622.29,0.05064
5599.15,0.04709
5576,0.04758
5552.86,0.04903
5529.71,0.04903
5506.57,0.04982
5483.42,0.04969
5460.28,0.04990
5437.13,0.04858
5413.99,0.04923
5390.84,0.04945
5367.7,0.04868
5344.55,0.04785
5321.41,0.04918
5298.26,0.04980
5275.12,0.05018
5251.97,0.04807
5228.83,0.04771
5205.68,0.04717
5182.54,0.04841
5159.39,0.04846
5136.25,0.04810
5113.1,0.04659
5089.96,0.04849
5066.81,0.04820
5043.67,0.04698
5020.52,0.04838
4997.38,0.05024
4974.23,0.04940
4951.09,0.04946
4927.94,0.04773
4904.8,0.04856
4881.65,0.04724
4858.51,0.04767
4835.36,0.04728
4812.22,0.04773
4789.07,0.04751
4765.93,0.04737
4742.78,0.04633
4719.64,0.04742
4696.49,0.04753
4673.35,0.04711
4650.2,0.04757
4627.06,0.04778
4603.92,0.04770
4580.77,0.04675
4557.63,0.04765
4534.48,0.04733
4511.34,0.04747
4488.19,0.04796
4465.05,0.04696
4441.9,0.04556
4418.76,0.04580
4395.61,0.04577
4372.47,0.04422
4349.32,0.04481
4326.18,0.04511
4303.03,0.04459
4279.89,0.04510
4256.74,0.04582
4233.6,0.04513
4210.45,0.04586
4187.31,0.04568
4164.16,0.04559
4141.02,0.04501
4117.87,0.04465
4094.73,0.04531
4071.58,0.04497
4048.44,0.04378
4025.29,0.04409
4002.15,0.04485
3979,0.04487
3955.86,0.04499
3932.71,0.04550
3909.57,0.04538
3886.42,0.04594
3863.28,0.04621
3840.13,0.04678
3816.99,0.04556
3793.84,0.04587
3770.7,0.04611
3747.55,0.04582
3724.41,0.04484
3701.26,0.04460
3678.12,0.04263
3654.97,0.04198
3631.83,0.04082
3608.68,0.04122
3585.54,0.04070
3562.39,0.03987
3539.25,0.03911
3516.1,0.03884
3492.96,0.03913
3469.81,0.03939
3446.67,0.03924
3423.52,0.03975
3400.38,0.03974
3377.23,0.03950
3354.09,0.03985
3330.94,0.03979
3307.8,0.03910
3284.65,0.03945
3261.51,0.03985
3238.36,0.04009
3215.22,0.03972
3192.07,0.04028
3168.93,0.03996
3145.78,0.03919
3122.64,0.03988
3099.49,0.03968
3076.35,0.03930
3053.2,0.03933
3030.06,0.03843
3006.91,0.03722
2983.77,0.03882
2960.62,0.03856
2937.48,0.03960
2914.33,0.04227
2891.19,0.04010
2868.04,0.04021
2844.9,0.04146
2821.75,0.04112
2798.61,0.04112
2775.46,0.04153
2752.32,0.04096
2729.17,0.04146
2706.03,0.04089
2682.88,0.04089
2659.74,0.04082
2636.59,0.04101
2613.45,0.04104
2590.3,0.04077
2567.16,0.04125
2544.02,0.04120
2520.87,0.04116
2497.73,0.04065
2474.58,0.04141
2451.44,0.04071
2428.29,0.04111
2405.15,0.04084
2382,0.04084
2358.86,0.04138
2335.71,0.04118
2312.57,0.04104
2289.42,0.04077
2266.28,0.04116
2243.13,0.04051
2219.99,0.04053
2196.84,0.04069
2173.7,0.04057
2150.55,0.03988
2127.41,0.03954
2104.26,0.03940
2081.12,0.03953
2057.97,0.03935
2034.83,0.03977
2011.68,0.03958
1988.54,0.03939
1965.39,0.03867
1942.25,0.03883
1919.1,0.03812
1895.96,0.03757
1872.81,0.03651
1849.67,0.03527
1826.52,0.03291
1803.38,0.02872
1780.23,0.02263
1757.09,0.07442
1733.94,0.06072
1710.8,0.04930
1687.65,0.04379
1664.51,0.04153
1641.36,0.04116
1618.22,0.04063
1595.07,0.03956
1571.93,0.03876
1548.78,0.03753
1525.64,0.03702
1502.49,0.03549
1479.35,0.03317
1456.2,0.03426
1433.06,0.03709
1409.91,0.03327
1386.77,0.03082
1363.62,0.03451
1340.48,0.03536
1317.33,0.03276
1294.19,0.03100
1271.04,0.02955
1247.9,0.02908
1224.75,0.02652
1201.61,0.03884
1178.46,0.07113
1155.32,0.03740
1132.17,0.04483
1109.03,0.04257
1085.88,0.09361
1062.74,0.06817
1039.59,0.06741
1016.45,0.07053
993.304,0.06409
970.159,0.05723
947.014,0.05429
923.869,0.05161
900.724,0.04870
877.579,0.04707
854.434,0.05132
831.289,0.04884
808.144,0.04653
784.999,0.04525
761.854,0.04309
738.709,0.04769
715.565,0.04563
692.42,0.04560
669.275,0.04598
646.13,0.04684
622.985,0.04293
599.84,0.04463

File: PLA_3D_Printer_Filament_IS_S_221108_R2.dpt
7497.03,0.05932
7473.89,0.04900
7450.74,0.05824
7427.6,0.05015
7404.45,0.04105
7381.31,0.05637
7358.16,0.04889
7335.02,0.05402
7311.87,0.05307
7288.73,0.04619
7265.58,0.05560
7242.44,0.04678
7219.29,0.04987
7196.15,0.04703
7173,0.04708
7149.86,0.05089
7126.71,0.04790
7103.57,0.04459
7080.42,0.05413
7057.28,0.05230
7034.13,0.05061
7010.99,0.05291
6987.84,0.05207
6964.7,0.05294
6941.55,0.04703
6918.41,0.05192
6895.26,0.04927
6872.12,0.04901
6848.97,0.04537
6825.83,0.05336
6802.68,0.05033
6779.54,0.04906
6756.39,0.04943
6733.25,0.04697
6710.1,0.04961
6686.96,0.04702
6663.82,0.04601
6640.67,0.04751
6617.53,0.04973
6594.38,0.04845
6571.24,0.05282
6548.09,0.04822
6524.95,0.04712
6501.8,0.04713
6478.66,0.05213
6455.51,0.04994
6432.37,0.04538
6409.22,0.04872
6386.08,0.04823
6362.93,0.04650
6339.79,0.04857
6316.64,0.04441
6293.5,0.05102
6270.35,0.04795
6247.21,0.04794
6224.06,0.04978
6200.92,0.04716
6177.77,0.04833
6154.63,0.04696
6131.48,0.04449
6108.34,0.05313
6085.19,0.04642
6062.05,0.04676
6038.9,0.04722
6015.76,0.04676
5992.61,0.04578
5969.47,0.04851
5946.32,0.04966
5923.18,0.04726
5900.03,0.04998
5876.89,0.04882
5853.74,0.04871
5830.6,0.04770
5807.45,0.04950
5784.31,0.04689
5761.16,0.04847
5738.02,0.05306
5714.87,0.05017
5691.73,0.04867
5668.58,0.04820
5645.44,0.04908
5622.29,0.04932
5599.15,0.04964
5576,0.04877
5552.86,0.05092
5529.71,0.04783
5506.57,0.04893
5483.42,0.04981
5460.28,0.04949
5437.13,0.04950
5413.99,0.04933
5390.84,0.04958
5367.7,0.04912
5344.55,0.05041
5321.41,0.04907
5298.26,0.04726
5275.12,0.04964
5251.97,0.04798
5228.83,0.04866
5205.68,0.04837
5182.54,0.04754
5159.39,0.04750
5136.25,0.04901
5113.1,0.04846
5089.96,0.04777
5066.81,0.04860
5043.67,0.04805
5020.52,0.04833
4997.38,0.04797
4974.23,0.04841
4951.09,0.04756
4927.94,0.04906
4904.8,0.04734
4881.65,0.04861
4858.51,0.04739
4835.36,0.04823
4812.22,0.04779
4789.07,0.04643
4765.93,0.04676
4742.78,0.04598
4719.64,0.04675
4696.49,0.04667
4673.35,0.04755
4650.2,0.04769
4627.06,0.04794
4603.92,0.04873
4580.77,0.04763
4557.63,0.04797
4534.48,0.04832
4511.34,0.04767
4488.19,0.04765
4465.05,0.04627
4441.9,0.04568
4418.76,0.04562
4395.61,0.04558
4372.47,0.04522
4349.32,0.04483
4326.18,0.04460
4303.03,0.04556
4279.89,0.04568
4256.74,0.04514
4233.6,0.04564
4210.45,0.04598
4187.31,0.04599
4164.16,0.04550
4141.02,0.04546
4117.87,0.04520
4094.73,0.04495
4071.58,0.04491
4048.44,0.04476
4025.29,0.04438
4002.15,0.04518
3979,0.04478
3955.86,0.04563
3932.71,0.04576
3909.57,0.04575
3886.42,0.04604
3863.28,0.04664
3840.13,0.04609
3816.99,0.04589
3793.84,0.04627
3770.7,0.04618
3747.55,0.04550
3724.41,0.04517
3701.26,0.04467
3678.12,0.04381
3654.97,0.04239
3631.83,0.04138
3608.68,0.04132
3585.54,0.04111
3562.39,0.04014
3539.25,0.03921
3516.1,0.03897
3492.96,0.03893
3469.81,0.04069
3446.67,0.04030
3423.52,0.04031
3400.38,0.03964
3377.23,0.03903
3354.09,0.04027
3330.94,0.03897
3307.8,0.04008
3284.65,0.03961
3261.51,0.03968
3238.36,0.04000
3215.22,0.03990
3192.07,0.04082
3168.93,0.03973
3145.78,0.03979
3122.64,0.04071
3099.49,0.03967
3076.35,0.03947
3053.2,0.03924
3030.06,0.03827
3006.91,0.03799
2983.77,0.03883
2960.62,0.03859
2937.48,0.03967
2914.33,0.04222
2891.19,0.04007
2868.04,0.03997
2844.9,0.04184
2821.75,0.04111
2798.61,0.04058
2775.46,0.04173
2752.32,0.04124
2729.17,0.04071
2706.03,0.04111
2682.88,0.04100
2659.74,0.04077
2636.59,0.04104
2613.45,0.04118
2590.3,0.04115
2567.16,0.04074
2544.02,0.04098
2520.87,0.04100
2497.73,0.04124
2474.58,0.04102
2451.44,0.04114
2428.29,0.04080
2405.15,0.04087
2382,0.04133
2358.86,0.04193
2335.71,0.04179
2312.57,0.04092
2289.42,0.04120
2266.28,0.04142
2243.13,0.04115
2219.99,0.04097
2196.84,0.04115
2173.7,0.04047
2150.55,0.03979
2127.41,0.03972
2104.26,0.03994
2081.12,0.03932
2057.97,0.04002
2034.83,0.03958
2011.68,0.03942
1988.54,0.03931
1965.39,0.03897
1942.25,0.03894
1919.1,0.03842
1895.96,0.03784
1872.81,0.03702
1849.67,0.03548
1826.52,0.03296
1803.38,0.02903
1780.23,0.02302
1757.09,0.07449
1733.94,0.06028
1710.8,0.04954
1687.65,0.04404
1664.51,0.04203
1641.36,0.04103
1618.22,0.04050
1595.07,0.03963
1571.93,0.03902
1548.78,0.03805
1525.64,0.03712
1502.49,0.03564
1479.35,0.03299
1456.2,0.03424
1433.06,0.03734
1409.91,0.03357
1386.77,0.03068
1363.62,0.03447
1340.48,0.03547
1317.33,0.03279
1294.19,0.03124
1271.04,0.03007
1247.9,0.02946
1224.75,0.02667
1201.61,0.03904
1178.46,0.07043
1155.32,0.03724
1132.17,0.04497
1109.03,0.04290
1085.88,0.09407
1062.74,0.06814
1039.59,0.06806
1016.45,0.07073
993.304,0.06370
970.159,0.05715
947.014,0.05412
923.869,0.05157
900.724,0.04963
877.579,0.04757
854.434,0.05040
831.289,0.04962
808.144,0.04749
784.999,0.04578
761.854,0.04435
738.709,0.04768
715.565,0.04564
692.42,0.04683
669.275,0.04827
646.13,0.04713
622.985,0.04530
599.84,0.04478

File: PLA_3D_Printer_Filament_IS_S_221108_R3.dpt
7497.03,0.04822
7473.89,0.05309
7450.74,0.06142
7427.6,0.05287
7404.45,0.05960
7381.31,0.04693
7358.16,0.04787
7335.02,0.05104
7311.87,0.05667
7288.73,0.04971
7265.58,0.05382
7242.44,0.03849
7219.29,0.05265
7196.15,0.04573
7173,0.05408
7149.86,0.05526
7126.71,0.04836
7103.57,0.05371
7080.42,0.05288
7057.28,0.04825
7034.13,0.04414
7010.99,0.04072
6987.84,0.04193
6964.7,0.04834
6941.55,0.04365
6918.41,0.04496
6895.26,0.05201
6872.12,0.04594
6848.97,0.04451
6825.83,0.05381
6802.68,0.05046
6779.54,0.04593
6756.39,0.04794
6733.25,0.05139
6710.1,0.04838
6686.96,0.05009
6663.82,0.04827
6640.67,0.05212
6617.53,0.04720
6594.38,0.04554
6571.24,0.04717
6548.09,0.04833
6524.95,0.04983
6501.8,0.04578
6478.66,0.04921
6455.51,0.04982
6432.37,0.04937
6409.22,0.04800
6386.08,0.04564
6362.93,0.04719
6339.79,0.04762
6316.64,0.04994
6293.5,0.05044
6270.35,0.04559
6247.21,0.04967
6224.06,0.04694
6200.92,0.05011
6177.77,0.05059
6154.63,0.05048
6131.48,0.04915
6108.34,0.04784
6085.19,0.04972
6062.05,0.04844
6038.9,0.04823
6015.76,0.04633
5992.61,0.05046
5969.47,0.04912
5946.32,0.04820
5923.18,0.04972
5900.03,0.04710
5876.89,0.05014
5853.74,0.04958
5830.6,0.04678
5807.45,0.04843
5784.31,0.04685
5761.16,0.04616
5738.02,0.04683
5714.87,0.04827
5691.73,0.04645
5668.58,0.04986
5645.44,0.05090
5622.29,0.05052
5599.15,0.04944
5576,0.04891
5552.86,0.04925
5529.71,0.04866
5506.57,0.05128
5483.42,0.04763
5460.28,0.04664
5437.13,0.04962
5413.99,0.04861
5390.84,0.04902
5367.7,0.04938
5344.55,0.04936
5321.41,0.04993
5298.26,0.04924
5275.12,0.04928
5251.97,0.04769
5228.83,0.04747
5205.68,0.04802
5182.54,0.04796
5159.39,0.04936
5136.25,0.04873
5113.1,0.04862
5089.96,0.04881
5066.81,0.04948
5043.67,0.04872
5020.52,0.04931
4997.38,0.04825
4974.23,0.04945
4951.09,0.04928
4927.94,0.04842
4904.8,0.04831
4881.65,0.04731
4858.51,0.04766
4835.36,0.04806
4812.22,0.04744
4789.07,0.04734
4765.93,0.04638
4742.78,0.04676
4719.64,0.04680
4696.49,0.04719
4673.35,0.04763
4650.2,0.04739
4627.06,0.04690
4603.92,0.04720
4580.77,0.04819
4557.63,0.04752
4534.48,0.04757
4511.34,0.04857
4488.19,0.04699
4465.05,0.04759
4441.9,0.04563
4418.76,0.04744
4395.61,0.04589
4372.47,0.04532
4349.32,0.04557
4326.18,0.04578
4303.03,0.04617
4279.89,0.04536
4256.74,0.04521
4233.6,0.04571
4210.45,0.04558
4187.31,0.04706
4164.16,0.04622
4141.02,0.04503
4117.87,0.04602
4094.73,0.04590
4071.58,0.04510
4048.44,0.04398
4025.29,0.04508
4002.15,0.04559
3979,0.04511
3955.86,0.04593
3932.71,0.04558
3909.57,0.04584
3886.42,0.04679
3863.28,0.04580
3840.13,0.04718
3816.99,0.04570
3793.84,0.04650
3770.7,0.04612
3747.55,0.04690
3724.41,0.04612
3701.26,0.04584
3678.12,0.04385
3654.97,0.04244
3631.83,0.04205
3608.68,0.04170
3585.54,0.04060
3562.39,0.04008
3539.25,0.03982
3516.1,0.03995
3492.96,0.03878
3469.81,0.03995
3446.67,0.04008
3423.52,0.04071
3400.38,0.03945
3377.23,0.04018
3354.09,0.04000
3330.94,0.03985
3307.8,0.03920
3284.65,0.03977
3261.51,0.03989
3238.36,0.04042
3215.22,0.03925
3192.07,0.04032
3168.93,0.04037
3145.78,0.03974
3122.64,0.04019
3099.49,0.04034
3076.35,0.04010
3053.2,0.03930
3030.06,0.03874
3006.91,0.03785
2983.77,0.03911
2960.62,0.03802
2937.48,0.03967
2914.33,0.04209
2891.19,0.04114
2868.04,0.04008
2844.9,0.04213
2821.75,0.04154
2798.61,0.04163
2775.46,0.04177
2752.32,0.04122
2729.17,0.04145
2706.03,0.04150
2682.88,0.04108
2659.74,0.04126
2636.59,0.04108
2613.45,0.04131
2590.3,0.04152
2567.16,0.04138
2544.02,0.04157
2520.87,0.04109
2497.73,0.04165
2474.58,0.04119
2451.44,0.04156
2428.29,0.04144
2405.15,0.04140
2382,0.04141
2358.86,0.04152
2335.71,0.04200
2312.57,0.04152
2289.42,0.04140
2266.28,0.04123
2243.13,0.04114
2219.99,0.04126
2196.84,0.04130
2173.7,0.04114
2150.55,0.04054
2127.41,0.03980
2104.26,0.04006
2081.12,0.03982
2057.97,0.03996
2034.83,0.03984
2011.68,0.03981
1988.54,0.03931
1965.39,0.03931
1942.25,0.03910
1919.1,0.03869
1895.96,0.03781
1872.81,0.03679
1849.67,0.03531
1826.52,0.03292
1803.38,0.02917
1780.23,0.02329
1757.09,0.07519
1733.94,0.06140
1710.8,0.04956
1687.65,0.04431
1664.51,0.04231
1641.36,0.04137
1618.22,0.04105
1595.07,0.03964
1571.93,0.03891
1548.78,0.03831
1525.64,0.03717
1502.49,0.03572
1479.35,0.03362
1456.2,0.03475
1433.06,0.03752
1409.91,0.03376
1386.77,0.03091
1363.62,0.03454
1340.48,0.03600
1317.33,0.03298
1294.19,0.03109
1271.04,0.02986
1247.9,0.02968
1224.75,0.02648
1201.61,0.03925
1178.46,0.07161
1155.32,0.03742
1132.17,0.04530
1109.03,0.04268
1085.88,0.09458
1062.74,0.06852
1039.59,0.06844
1016.45,0.07100
993.304,0.06408
970.159,0.05734
947.014,0.05479
923.869,0.05203
900.724,0.05021
877.579,0.04725
854.434,0.05127
831.289,0.04892
808.144,0.04732
784.999,0.04493
761.854,0.04405
738.709,0.04747
715.565,0.04614
692.42,0.04637
669.275,0.04821
646.13,0.04599
622.985,0.04517
599.84,0.04471

File: PLA_3D_Printer_Filament_IS_S_221108_R4.dpt
7497.03,0.05201
7473.89,0.04566
7450.74,0.04753
7427.6,0.04768
7404.45,0.04522
7381.31,0.05371
7358.16,0.05213
7335.02,0.05555
7311.87,0.05622
7288.73,0.04818
7265.58,0.05065
7242.44,0.04972
7219.29,0.03683
7196.15,0.05276
7173,0.05532
7149.86,0.05960
7126.71,0.04658
7103.57,0.04772
7080.42,0.04584
7057.28,0.04704
7034.13,0.04591
7010.99,0.05094
6987.84,0.04971
6964.7,0.04949
6941.55,0.05224
6918.41,0.05631
6895.26,0.04706
6872.12,0.05037
6848.97,0.04841
6825.83,0.05249
6802.68,0.04982
6779.54,0.05107
6756.39,0.05309
6733.25,0.04940
6710.1,0.05015
6686.96,0.04920
6663.82,0.04800
6640.67,0.04884
6617.53,0.04511
6594.38,0.04851
6571.24,0.04798
6548.09,0.05169
6524.95,0.04707
6501.8,0.04320
6478.66,0.04735
6455.51,0.04820
6432.37,0.04885
6409.22,0.05306
6386.08,0.05167
6362.93,0.05114
6339.79,0.04884
6316.64,0.04843
6293.5,0.04955
6270.35,0.04814
6247.21,0.05049
6224.06,0.04926
6200.92,0.04776
6177.77,0.04829
6154.63,0.05210
6131.48,0.04993
6108.34,0.04734
6085.19,0.05044
6062.05,0.04752
6038.9,0.04873
6015.76,0.04917
5992.61,0.04738
5969.47,0.04875
5946.32,0.04823
5923.18,0.04814
5900.03,0.05019
5876.89,0.05109
5853.74,0.04876
5830.6,0.04724
5807.45,0.04845
5784.31,0.04499
5761.16,0.04871
5738.02,0.04729
5714.87,0.04847
5691.73,0.04817
5668.58,0.04897
5645.44,0.05003
5622.29,0.04886
5599.15,0.04651
5576,0.04890
5552.86,0.05063
5529.71,0.04809
5506.57,0.04856
5483.42,0.04983
5460.28,0.05102
5437.13,0.04815
5413.99,0.04903
5390.84,0.04928
5367.7,0.04980
5344.55,0.05142
5321.41,0.04930
5298.26,0.04887
5275.12,0.04837
5251.97,0.04845
5228.83,0.04885
5205.68,0.04874
5182.54,0.04875
5159.39,0.04851
5136.25,0.04857
5113.1,0.04730
5089.96,0.04811
5066.81,0.04904
5043.67,0.04769
5020.52,0.04883
4997.38,0.04950
4974.23,0.04782
4951.09,0.04952
4927.94,0.04895
4904.8,0.04807
4881.65,0.04756
4858.51,0.04762
4835.36,0.04799
4812.22,0.04600
4789.07,0.04778
4765.93,0.04682
4742.78,0.04726
4719.64,0.04685
4696.49,0.04654
4673.35,0.04702
4650.2,0.04740
4627.06,0.04760
4603.92,0.04722
4580.77,0.04697
4557.63,0.04777
4534.48,0.04763
4511.34,0.04799
4488.19,0.04767
4465.05,0.04649
4441.9,0.04563
4418.76,0.04490
4395.61,0.04624
4372.47,0.04503
4349.32,0.04522
4326.18,0.04580
4303.03,0.04480
4279.89,0.04503
4256.74,0.04523
4233.6,0.04558
4210.45,0.04561
4187.31,0.04509
4164.16,0.04518
4141.02,0.04557
4117.87,0.04495
4094.73,0.04476
4071.58,0.04465
4048.44,0.04430
4025.29,0.04470
4002.15,0.04432
3979,0.04500
3955.86,0.04479
3932.71,0.04589
3909.57,0.04529
3886.42,0.04573
3863.28,0.04604
3840.13,0.04641
3816.99,0.04618
3793.84,0.04574
3770.7,0.04643
3747.55,0.04592
3724.41,0.04524
3701.26,0.04501
3678.12,0.04416
3654.97,0.04155
3631.83,0.04117
3608.68,0.04163
3585.54,0.04055
3562.39,0.03985
3539.25,0.03976
3516.1,0.03893
3492.96,0.03878
3469.81,0.03914
3446.67,0.04000
3423.52,0.03932
3400.38,0.03940
3377.23,0.03931
3354.09,0.03948
3330.94,0.03959
3307.8,0.03859
3284.65,0.03879
3261.51,0.03912
3238.36,0.03963
3215.22,0.03924
3192.07,0.03981
3168.93,0.03925
3145.78,0.03934
3122.64,0.03901
3099.49,0.04002
3076.35,0.03949
3053.2,0.03918
3030.06,0.03857
3006.91,0.03740
2983.77,0.03872
2960.62,0.03776
2937.48,0.04024
2914.33,0.04184
2891.19,0.03955
2868.04,0.03988
2844.9,0.04151
2821.75,0.04054
2798.61,0.04052
2775.46,0.04101
2752.32,0.04108
2729.17,0.04108
2706.03,0.04055
2682.88,0.04070
2659.74,0.04075
2636.59,0.04070
2613.45,0.04075
2590.3,0.04101
2567.16,0.04089
2544.02,0.04041
2520.87,0.04045
2497.73,0.04071
2474.58,0.04098
2451.44,0.04150
2428.29,0.04086
2405.15,0.04046
2382,0.04051
2358.86,0.04124
2335.71,0.04133
2312.57,0.04089
2289.42,0.04083
2266.28,0.04070
2243.13,0.04079
2219.99,0.04090
2196.84,0.04081
2173.7,0.04009
2150.55,0.03975
2127.41,0.03935
2104.26,0.03905
2081.12,0.03896
2057.97,0.03892
2034.83,0.03960
2011.68,0.03927
1988.54,0.03876
1965.39,0.03819
1942.25,0.03842
1919.1,0.03795
1895.96,0.03737
1872.81,0.03654
1849.67,0.03504
1826.52,0.03272
1803.38,0.02891
1780.23,0.02289
1757.09,0.07396
1733.94,0.06043
1710.8,0.04916
1687.65,0.04366
1664.51,0.04128
1641.36,0.04115
1618.22,0.04047
1595.07,0.03901
1571.93,0.03818
1548.78,0.03826
1525.64,0.03690
1502.49,0.03535
1479.35,0.03301
1456.2,0.03424
1433.06,0.03681
1409.91,0.03322
1386.77,0.03031
1363.62,0.03406
1340.48,0.03480
1317.33,0.03240
1294.19,0.03073
1271.04,0.02933
1247.9,0.02933
1224.75,0.02624
1201.61,0.03873
1178.46,0.07013
1155.32,0.03747
1132.17,0.04425
1109.03,0.04206
1085.88,0.09317
1062.74,0.06794
1039.59,0.06712
1016.45,0.06999
993.304,0.06398
970.159,0.05665
947.014,0.05370
923.869,0.05192
900.724,0.04919
877.579,0.04683
854.434,0.05027
831.289,0.04876
808.144,0.04731
784.999,0.04488
761.854,0.04432
738.709,0.04642
715.565,0.04447
692.42,0.04675
669.275,0.04923
646.13,0.04494
622.985,0.04335
599.84,0.04237