Folder: fsri_materials_database/01_Data/Overstuffed_Chair_Polyester_Batting/Cone

Note: README.md
# Materials and Products Database
### Repository of materials and products properties and fire test data to improve fire modeling and fire investigation.

This project was supported in part by Award No. 2019-DU-BX-0018, awarded by the National Institute of Justice, Office of Justice Programs, U.S. Department of Justice. The opinions, findings, and conclusions or recommendations expressed in this publication / program / exhibition are those of the author(s) and do not necessarily reflect those of the Department of Justice.

***
***

__Cite this database:__ "McKinnon, M., Weinschenk, C., Dow, N., DiDomizio, M., and Madrzykowski, D. Materials and Products Database (Version 1.0.0), Fire Safety Research Institute, UL Research Institutes. Columbia, MD 21045, 2023."

__Cite the Technical Reference Guide:__ "McKinnon, M., Weinschenk, C., and Madrzykowski, D. Materials and Products Database - Technical Reference Guide, Fire Safety Research Institute, UL Research Institutes. Columbia, MD 21045, 2023."

__Cite the User Guide:__ "McKinnon, M., and Weinschenk, C. Materials and Products Database - User Guide, Fire Safety Research Institute, UL Research Institutes. Columbia, MD 21045, 2023."

***
***

## Database Structure

## 01_Data/
Raw data generated from each apparatus are included here in plain-text format. The data is organized first by material, next by the short name of test apparatus used, and where applicable additional filtering by test settings.

### Test Apparatus and Data File Structure
- __Cone Calorimeter__ (Cone)
    + Data file structure includes the material, the short name for the apparatus, heat flux setting and scan/scalar, date of test, and replicate number. Scan is for the raw output data and scalar is for the initial conditions and high-level test parameters. 
        * Example: __MDF_Cone_HF25scalar_210323_R1__ stands for the first replicate of scalar data generated from a medium density fiber board test in cone calorimeter exposed to 25 kW/m<sup>2</sup> on March 23, 2021.
    + A _Cone_Notes.csv_ is generated for each material from the __plot_Cone_data.py__ script. For materials whose experiments deviated from typical behavior relevant pictures are included in the respective material directory.
- __Fourier Transform Infrared Spectrometer__ (FTIR)
    + The FTIR directory contains subdirectories for the Attenuated Total Reflectance method (ATR) and the Integrating Sphere (IS)
    + Data file structure for the ATR experiment files includes the material, the abbreviated name for the apparatus, date of test, and replicate number. 
        * Example: __MDF_ATR_210323_R5__ stands for the fifth replicate of data collected with the ATR accessory conducted on June 8, 2021.
    + Data file structure for the IS experiment files includes the material, the abbreviated name for the apparatus, the measurand, whether the test is a sample measurement or standard reference, date of test, and replicate number.
        * Example: __OSB_IS_REFLECT_MEAS_2

File: Overstuffed_Chair_Polyester_Batting_HRRPUA_25.csv
Time after Ignition,Overstuffed_Chair_Polyester_Batting_R1,Overstuffed_Chair_Polyester_Batting_R2,Overstuffed_Chair_Polyester_Batting_R3,Mean,Std. Dev.
0.0,20.2,47.6,7.5,25.1,20.5
0.25,26.4,48.8,9.2,28.1,19.9
0.5,31.8,49.1,11.0,30.6,19.1
0.75,36.5,52.1,16.1,34.9,18.1
1.0,41.2,55.2,20.0,38.8,17.7
1.25,48.7,55.5,24.1,42.8,16.5
1.5,56.6,59.2,27.9,47.9,17.4
1.75,63.0,63.5,31.5,52.7,18.3
2.0,70.5,67.8,38.1,58.8,18.0
2.25,74.3,71.2,45.0,63.5,16.1
2.5,83.5,74.7,51.9,70.0,16.3
2.75,89.5,82.2,56.8,76.2,17.1
3.0,97.1,85.4,66.9,83.1,15.2
3.25,103.1,90.8,75.7,89.9,13.7
3.5,107.9,94.5,75.8,92.7,16.1
3.75,116.4,102.8,83.5,100.9,16.5
4.0,121.6,108.2,91.8,107.2,14.9
4.25,124.9,113.2,103.2,113.8,10.8
4.5,131.3,120.6,115.0,122.3,8.3
4.75,138.1,123.2,124.0,128.4,8.4
5.0,142.4,125.0,131.7,133.0,8.8
5.25,150.0,135.8,139.6,141.8,7.3
5.5,151.6,140.9,149.3,147.3,5.6
5.75,159.9,146.8,158.5,155.1,7.2
6.0,160.4,153.0,168.5,160.6,7.8
6.25,162.6,163.2,172.9,166.2,5.8
6.5,174.3,173.0,180.2,175.8,3.9
6.75,174.3,183.1,184.3,180.6,5.4
7.0,179.4,189.9,192.6,187.3,7.0
7.25,186.9,187.8,199.1,191.3,6.8
7.5,193.5,204.5,206.5,201.5,7.0
7.75,195.4,215.4,202.2,204.3,10.2
8.0,201.4,214.3,209.6,208.4,6.6
8.25,206.6,224.5,215.7,215.6,8.9
8.5,207.3,237.3,222.7,222.4,15.0
8.75,208.8,247.6,223.4,226.6,19.6
9.0,213.7,260.8,227.9,234.1,24.1
9.25,216.2,263.0,227.0,235.4,24.5
9.5,217.7,270.5,233.5,240.6,27.1
9.75,218.0,278.1,236.2,244.1,30.9
10.0,223.1,282.0,237.5,247.6,30.7
10.25,223.1,292.0,239.6,251.6,35.9
10.5,228.3,289.2,241.6,253.0,32.0
10.75,230.7,294.4,248.7,258.0,32.9
11.0,227.9,306.8,245.0,259.9,41.5
11.25,233.4,303.9,250.4,262.6,36.8
11.5,233.7,311.4,256.6,267.2,39.9
11.75,235.6,313.6,256.4,268.5,40.4
12.0,233.6,319.0,251.3,267.9,45.1
12.25,239.2,308.7,258.0,268.6,36.0
12.5,240.8,317.3,258.0,272.0,40.1
12.75,249.3,326.8,264.6,280.2,41.1
13.0,248.0,321.8,261.0,276.9,39.4
13.25,245.9,332.0,262.7,280.2,45.6
13.5,254.6,332.4,268.4,285.1,41.5
13.75,256.7,325.5,279.6,287.3,35.1
14.0,254.6,327.0,270.8,284.1,38.0
14.25,265.2,331.5,275.0,290.6,35.8
14.5,267.3,328.2,278.7,291.4,32.4
14.75,263.2,330.0,285.9,293.0,34.0
15.0,268.2,320.3,287.3,291.9,26.4
15.25,275.3,335.8,287.6,299.6,32.0
15.5,278.5,337.8,294.0,303.4,30.7
15.75,272.7,332.8,289.6,298.3,31.0
16.0,276.9,330.9,301.3,303.1,27.0
16.25,278.9,330.2,300.3,303.1,25.8
16.5,281.0,327.1,293.5,300.5,23.8
16.75,288.1,322.1,305.8,305.3,17.0
17.0,289.9,326.6,313.1,309.9,18.5
17.25,284.8,317.1,304.6,302.1,16.3
17.5,279.5,314.6,319.8,304.6,21.9
17.75,284.4,315.9,317.8,306.0,18.7
18.0,289.6,312.2,313.3,305.0,13.4
18.25,288.8,314.4,320.0,307.7,16.6
18.5,282.8,303.0,318.4,301.4,17.9
18.75,281.1,306.3,328.1,305.1,23.5
19.0,283.9,299.0,332.5,305.1,24.9
19.25,278.3,294.9,330.6,301.3,26.8
19.5,277.2,292.4,338.9,302.8,32.2
19.75,276.2,289.2,332.4,299.3,29.4
20.0,278.5,282.2,332.5,297.7,30.2
20.25,274.3,283.2,330.0,295.8,29.9
20.5,269.2,288.0,335.7,297.7,34.3
20.75,267.1,275.8,330.9,291.3,34.6
21.0,264.3,275.6,343.6,294.5,42.9
21.25,259.3,272.7,341.3,291.1,44.0
21.5,257.4,266.3,342.9,288.9,47.0
21.75,254.1,262.7,338.3,285.0,46.3
22.0,247.3,254.4,336.0,279.2,49.3
22.25,242.4,258.7,348.4,283.2,57.1
22.5,237.5,252.6,336.6,275.6,53.4
22.75,232.2,250.8,344.6,275.9,60.3
23.0,226.3,246.3,345.8,272.8,64.0
23.25,221.8,242.8,343.7,269.4,65.2
23.5,218.6,240.6,342.6,267.3,66.2
23.75,213.9,237.9,355.5,269.1,75.8
24.0,215.3,229.2,345.9,263.5,71.8
24.25,206.6,231.3,350.0,262.6,76.7
24.5,202.3,222.7,351.2,258.7,80.8
24.75,200.8,225.8,339.5,255.4,73.9
25.0,202.1,223.1,347.6,257.6,78.7
25.25,196.5,221.5,341.8,253.3,77.7
25.5,190.3,213.6,341.2,248.4,81.2
25.75,192.5,207.8,334.3,244.9,77.8
26.0,187.2,207.3,328.8,241.1,76.6
26.25,184.5,208.4,328.2,240.4,77.0
26.5,182.1,203.4,326.2,237.2,77.8
26.75,182.7,201.4,326.3,236.8,78.1
27.0,177.6,201.1,329.4,236.0,81.7
27.25,178.0,195.3,319.5,230.9,77.2
27.5,173.5,197.4,313.5,228.1,74.9
27.75,170.4,192.4,306.3,223.0,72.9
28.0,166.7,193.1,302.7,220.8,72.1
28.25,167.4,192.0,297.8,219.1,69.3
28.5,162.5,190.6,284.7,212.6,64.0
28.75,161.4,188.5,286.3,212.1,65.7
29.0,160.3,188.7,285.2,211.4,65.4
29.25,156.7,185.8,279.3,207.3,64.1
29.5,157.4,181.4,272.5,203.7,60.7
29.75,153.5,180.4,262.8,198.9,56.9
30.0,154.2,179.1,255.0,196.1,52.5
30.25,153.8,177.0,246.5,192.4,48.2
30.5,150.9,173.0,242.3,188.7,47.7
30.75,148.1,171.4,243.5,187.7,49.7
31.0,149.6,169.7,230.5,183.3,42.2
31.25,146.9,168.5,227.1,180.8,41.5
31.5,144.0,163.7,215.8,174.5,37.1
31.75,144.4,164.9,213.5,174.2,35.5
32.0,140.7,162.3,201.6,168.2,30.9
32.25,140.0,160.9,196.5,165.8,28.6
32.5,140.6,156.6,191.1,162.8,25.8
32.75,137.5,155.9,181.7,158.3,22.2
33.0,138.1,151.9,175.8,155.3,19.1
33.25,135.6,152.2,168.2,152.0,16.3
33.5,133.5,149.3,159.7,147.5,13.2
33.75,134.2,147.7,155.4,145.8,10.8
34.0,133.1,143.2,148.8,141.7,8.0
34.25,132.3,142.4,140.1,138.3,5.3
34.5,130.3,141.2,133.8,135.1,5.5
34.75,127.4,141.4,127.1,132.0,8.2
35.0,127.5,135.6,122.4,128.5,6.6
35.25,126.0,135.0,118.0,126.3,8.5
35.5,124.5,132.6,109.0,122.1,12.0
35.75,122.9,129.8,104.8,119.2,12.9
36.0,122.1,128.4,98.2,116.2,15.9
36.25,116.4,127.3,93.3,112.4,17.4
36.5,117.2,126.8,89.3,111.1,19.5
36.75,113.8,123.6,84.5,107.3,20.4
37.0,108.7,121.6,80.9,103.7,20.8
37.25,107.4,118.8,75.1,100.4,22.7
37.5,106.3,117.9,72.7,99.0,23.5
37.75,104.1,113.2,68.3,95.2,23.7
38.0,101.5,111.8,68.7,94.0,22.5
38.25,98.4,111.5,64.6,91.5,24.2
38.5,97.4,109.8,60.6,89.3,25.6
38.75,94.2,106.8,57.2,86.1,25.8
39.0,93.8,103.9,,98.9,7.2
39.25,91.1,101.4,,96.2,7.3
39.5,90.2,100.4,,95.3,7.2
39.75,88.6,100.2,,94.4,8.2
40.0,85.6,96.2,,90.9,7.5
40.25,83.4,95.2,,89.3,8.3
40.5,81.5,92.7,,87.1,7.9
40.75,79.8,92.8,,86.3,9.2
41.0,78.1,91.2,,84.6,9.3
41.25,77.7,89.7,,83.7,8.5
41.5,75.9,86.3,,81.1,7.3
41.75,74.4,83.7,,79.0,6.5
42.0,73.7,82.4,,78.0,6.1
42.25,71.9,83.1,,77.5,7.9
42.5,70.0,81.7,,75.9,8.2
42.75,68.9,78.9,,73.9,7.1
43.0,67.8,77.4,,72.6,6.8
43.25,66.7,77.4,,72.1,7.5
43.5,64.7,75.3,,70.0,7.4
43.75,63.4,74.4,,68.9,7.8
44.0,62.0,73.8,,67.9,8.4
44.25,60.6,71.5,,66.1,7.7
44.5,60.3,71.7,,66.0,8.0
44.75,57.9,69.1,,63.5,7.9
45.0,57.6,68.2,,62.9,7.5
45.25,55.9,67.8,,61.9,8.4
45.5,55.3,66.7,,61.0,8.1
45.75,53.9,65.8,,59.9,8.4
46.0,52.0,64.4,,58.2,8.8
46.25,51.9,63.4,,57.6,8.1
46.5,52.2,63.7,,57.9,8.1
46.75,50.7,61.8,,56.3,7.9
47.0,49.3,61.5,,55.4,8.6
47.25,48.5,59.9,,54.2,8.0
47.5,47.3,59.8,,53.5,8.9
47.75,46.3,59.4,,52.9,9.3
48.0,45.3,58.1,,51.7,9.0
48.25,45.0,57.2,,51.1,8.6
48.5,44.6,58.1,,51.3,9.5
48.75,43.4,57.2,,50.3,9.7
49.0,42.1,56.2,,49.1,9.9
49.25,41.7,55.8,,48.7,10.0
49.5,40.7,55.9,,48.3,10.7
49.75,39.8,55.9,,47.8,11.3
50.0,39.2,54.8,,47.0,11.1
50.25,38.2,54.3,,46.2,11.4
50.5,37.9,54.3,,46.1,11.6
50.75,36.9,53.6,,45.3,11.8
51.0,35.9,52.9,,44.4,12.0
51.25,35.7,52.4,,44.0,11.8
51.5,34.6,52.3,,43.5,12.5
51.75,34.5,52.3,,43.4,12.6
52.0,33.6,51.6,,42.6,12.7
52.25,32.7,51.1,,41.9,13.0
52.5,32.0,51.1,,41.5,13.5
52.75,31.6,50.3,,40.9,13.2
53.0,30.9,50.1,,40.5,13.6
53.25,30.5,50.1,,40.3,13.9
53.5,29.9,50.0,,39.9,14.2
53.75,29.3,,,29.3,
54.0,29.1,,,29.1,
54.25,28.6,,,28.6,
54.5,28.2,,,28.2,
54.75,27.6,,,27.6,
55.0,27.2,,,27.2,
55.25,27.1,,,27.1,
55.5,27.0,,,27.0,
55.75,26.9,,,26.9,
56.0,26.3,,,26.3,
56.25,26.2,,,26.2,
56.5,25.6,,,25.6,
56.75,25.5,,,25.5,
57.0,25.3,,,25.3,
57.25,25.1,,,25.1,
57.5,24.7,,,24.7,
57.75,24.0,,,24.0,

File: Overstuffed_Chair_Polyester_Batting_HRRPUA_50.csv
Time after Ignition,Overstuffed_Chair_Polyester_Batting_R1,Overstuffed_Chair_Polyester_Batting_R2,Overstuffed_Chair_Polyester_Batting_R3,Mean,Std. Dev.
0.0,18.1,20.8,18.3,19.1,1.5
0.25,18.0,23.1,19.7,20.3,2.6
0.5,21.2,25.2,27.3,24.5,3.1
0.75,23.3,32.1,33.6,29.7,5.6
1.0,25.3,39.4,40.6,35.1,8.5
1.25,27.4,44.8,44.1,38.8,9.9
1.5,37.7,49.8,55.8,47.7,9.2
1.75,47.7,54.8,64.5,55.7,8.4
2.0,56.4,63.0,73.2,64.2,8.5
2.25,63.9,72.0,79.8,71.9,8.0
2.5,70.0,80.6,87.0,79.2,8.6
2.75,85.0,87.7,98.6,90.4,7.2
3.0,97.2,97.1,107.3,100.5,5.9
3.25,107.6,104.4,113.9,108.6,4.9
3.5,117.9,112.6,128.6,119.7,8.2
3.75,126.4,114.9,138.0,126.5,11.6
4.0,140.4,119.0,144.8,134.7,13.8
4.25,152.5,129.2,151.4,144.4,13.2
4.5,157.2,135.7,161.9,151.6,14.0
4.75,163.6,143.2,171.5,159.5,14.6
5.0,173.3,150.9,176.0,166.7,13.8
5.25,185.7,152.8,183.6,174.0,18.4
5.5,187.6,158.9,196.1,180.9,19.5
5.75,196.7,167.8,193.1,185.9,15.7
6.0,200.1,176.4,205.0,193.8,15.3
6.25,207.4,183.7,217.6,202.9,17.4
6.5,213.8,187.1,229.0,210.0,21.2
6.75,220.5,198.0,236.3,218.3,19.2
7.0,221.8,206.2,236.4,221.4,15.1
7.25,229.6,214.7,241.9,228.7,13.6
7.5,234.4,214.4,255.5,234.7,20.5
7.75,243.6,237.4,259.7,246.9,11.5
8.0,251.3,243.6,267.3,254.1,12.1
8.25,251.7,258.6,279.9,263.4,14.7
8.5,253.2,255.3,286.8,265.1,18.8
8.75,269.5,267.6,303.6,280.2,20.3
9.0,275.3,286.7,307.1,289.7,16.1
9.25,278.2,291.5,313.3,294.3,17.7
9.5,291.8,303.9,334.0,309.9,21.8
9.75,298.8,319.7,331.7,316.7,16.6
10.0,303.7,327.7,348.9,326.8,22.6
10.25,303.2,331.8,351.4,328.8,24.2
10.5,314.8,338.7,367.7,340.4,26.5
10.75,313.3,351.8,366.5,343.9,27.5
11.0,317.7,359.4,384.0,353.7,33.5
11.25,322.8,365.7,381.2,356.6,30.2
11.5,325.5,367.5,393.1,362.0,34.1
11.75,339.5,376.4,403.7,373.2,32.2
12.0,332.1,363.5,402.1,365.9,35.0
12.25,345.4,384.6,419.6,383.2,37.1
12.5,347.6,384.3,419.2,383.7,35.8
12.75,343.8,383.7,424.0,383.8,40.1
13.0,363.9,385.5,425.1,391.5,31.0
13.25,355.3,393.2,424.7,391.1,34.7
13.5,349.9,401.0,430.6,393.8,40.8
13.75,358.3,380.5,435.5,391.4,39.7
14.0,367.7,394.0,437.5,399.7,35.3
14.25,369.6,401.1,452.4,407.7,41.7
14.5,366.5,392.0,429.5,396.0,31.7
14.75,375.8,402.3,428.9,402.3,26.6
15.0,370.1,402.6,442.9,405.2,36.4
15.25,374.8,397.1,450.2,407.4,38.7
15.5,384.0,387.0,441.2,404.1,32.2
15.75,386.8,400.0,452.3,413.0,34.6
16.0,395.5,405.7,465.7,422.3,37.9
16.25,390.0,396.8,447.3,411.4,31.3
16.5,404.1,402.5,436.7,414.4,19.3
16.75,394.6,393.2,453.4,413.7,34.3
17.0,397.7,389.7,457.1,414.8,36.8
17.25,413.4,404.7,457.0,425.1,28.0
17.5,420.0,386.8,460.9,422.6,37.2
17.75,408.9,386.2,455.9,417.0,35.5
18.0,408.6,391.2,457.1,419.0,34.2
18.25,431.6,397.6,448.2,425.8,25.8
18.5,432.2,402.6,429.2,421.3,16.3
18.75,422.8,395.7,425.3,414.6,16.4
19.0,424.5,387.0,440.8,417.4,27.6
19.25,445.6,384.8,436.5,422.3,32.8
19.5,434.4,397.8,439.1,423.8,22.6
19.75,420.5,394.2,441.0,418.6,23.5
20.0,431.2,386.2,443.6,420.3,30.2
20.25,438.8,398.2,443.6,426.9,25.0
20.5,458.1,381.1,443.1,427.4,40.8
20.75,445.9,373.0,451.3,423.4,43.7
21.0,432.5,389.8,443.8,422.0,28.5
21.25,434.4,393.9,454.4,427.5,30.8
21.5,448.8,374.7,447.4,423.6,42.4
21.75,456.1,376.8,431.6,421.5,40.6
22.0,463.4,387.4,422.9,424.6,38.0
22.25,459.3,389.3,425.8,424.8,35.0
22.5,443.6,386.8,419.2,416.5,28.5
22.75,457.1,401.0,418.6,425.6,28.7
23.0,461.6,390.4,399.1,417.0,38.8
23.25,469.5,392.3,406.9,422.9,41.1
23.5,458.3,379.2,392.8,410.1,42.3
23.75,461.6,379.9,388.9,410.1,44.8
24.0,452.6,378.9,378.2,403.3,42.8
24.25,452.1,371.8,367.8,397.3,47.6
24.5,448.1,371.7,365.0,394.9,46.2
24.75,436.2,364.1,350.6,383.6,46.0
25.0,430.4,353.6,344.8,376.3,47.1
25.25,425.1,344.2,335.8,368.3,49.3
25.5,422.9,332.3,323.0,359.4,55.2
25.75,414.3,324.7,319.9,352.9,53.2
26.0,396.9,318.9,300.9,338.9,51.1
26.25,395.4,313.3,297.5,335.4,52.5
26.5,380.0,307.1,290.6,325.9,47.6
26.75,369.6,301.6,279.5,316.9,46.9
27.0,358.1,291.2,271.6,307.0,45.4
27.25,344.2,283.1,269.3,298.9,39.9
27.5,335.3,278.5,258.3,290.7,39.9
27.75,320.0,271.9,254.4,282.1,34.0
28.0,306.4,265.2,248.1,273.2,29.9
28.25,293.4,260.6,240.0,264.7,26.9
28.5,283.2,255.3,236.9,258.5,23.4
28.75,268.7,246.1,224.7,246.5,22.0
29.0,255.0,236.5,215.3,235.6,19.8
29.25,243.4,227.9,213.4,228.3,15.0
29.5,234.3,224.7,206.6,221.9,14.0
29.75,222.7,212.0,198.9,211.2,11.9
30.0,222.8,205.8,194.4,207.7,14.3
30.25,210.0,198.4,188.2,198.9,10.9
30.5,198.6,196.3,181.0,192.0,9.5
30.75,191.5,185.0,178.6,185.0,6.5
31.0,181.1,180.1,170.3,177.2,6.0
31.25,173.7,173.8,163.8,170.4,5.7
31.5,164.8,168.3,159.3,164.1,4.6
31.75,153.5,158.1,155.4,155.7,2.3
32.0,149.9,154.2,149.0,151.1,2.7
32.25,144.3,149.7,141.8,145.3,4.0
32.5,133.4,143.0,135.7,137.4,5.0
32.75,130.6,137.7,131.0,133.1,4.0

File: Overstuffed_Chair_Polyester_Batting_HRRPUA_75.csv
Time after Ignition,Overstuffed_Chair_Polyester_Batting_R1,Overstuffed_Chair_Polyester_Batting_R2,Overstuffed_Chair_Polyester_Batting_R3,Mean,Std. Dev.
0.0,7.2,12.9,23.9,14.7,8.5
0.25,8.9,15.7,23.7,16.1,7.4
0.5,10.5,18.3,27.9,18.9,8.7
0.75,12.0,26.1,38.5,25.5,13.2
1.0,16.5,32.8,48.7,32.6,16.1
1.25,19.8,39.0,56.7,38.5,18.4
1.5,23.4,45.8,65.8,45.0,21.2
1.75,27.1,50.9,72.0,50.0,22.5
2.0,33.8,54.8,80.5,56.4,23.3
2.25,39.8,63.0,90.6,64.5,25.4
2.5,45.6,73.9,100.7,73.4,27.6
2.75,51.3,81.8,106.5,79.8,27.7
3.0,58.6,90.8,115.6,88.4,28.6
3.25,66.3,100.8,125.7,97.6,29.8
3.5,71.8,109.6,130.9,104.1,29.9
3.75,79.0,119.0,138.8,112.3,30.5
4.0,83.2,128.9,149.0,120.4,33.7
4.25,88.9,135.2,152.6,125.5,32.9
4.5,94.0,147.7,165.7,135.8,37.3
4.75,99.3,157.6,171.4,142.8,38.3
5.0,106.1,161.9,174.5,147.5,36.4
5.25,111.4,169.8,185.8,155.7,39.2
5.5,117.1,178.2,193.5,162.9,40.4
5.75,119.1,193.0,206.2,172.8,46.9
6.0,128.5,199.9,215.8,181.4,46.5
6.25,131.7,210.9,220.7,187.7,48.8
6.5,137.1,215.1,235.2,195.8,51.8
6.75,141.8,221.2,246.1,203.0,54.5
7.0,150.8,229.3,251.8,210.6,53.0
7.25,154.5,236.8,262.0,217.7,56.2
7.5,164.7,244.3,271.9,227.0,55.7
7.75,166.2,255.8,276.6,232.8,58.7
8.0,175.4,263.0,287.0,241.8,58.7
8.25,182.8,271.5,294.5,249.6,59.0
8.5,185.8,280.0,309.0,258.3,64.4
8.75,200.6,286.7,309.5,265.6,57.4
9.0,208.4,301.7,308.3,272.8,55.9
9.25,213.2,308.0,324.5,281.9,60.0
9.5,227.0,314.5,328.7,290.1,55.1
9.75,232.0,319.7,330.9,294.2,54.2
10.0,250.5,331.0,342.4,308.0,50.1
10.25,261.2,342.8,343.2,315.7,47.2
10.5,264.3,334.7,343.1,314.0,43.3
10.75,288.4,354.6,362.9,335.3,40.8
11.0,283.1,364.1,371.1,339.4,48.9
11.25,298.4,366.7,377.4,347.5,42.9
11.5,313.3,378.0,380.7,357.3,38.2
11.75,320.3,390.8,400.5,370.5,43.8
12.0,322.9,390.5,386.7,366.7,38.0
12.25,340.1,401.2,402.5,381.3,35.7
12.5,333.3,421.2,397.5,384.0,45.5
12.75,332.7,412.3,425.6,390.2,50.3
13.0,345.2,417.4,439.9,400.8,49.5
13.25,360.5,439.3,426.2,408.7,42.2
13.5,364.0,428.0,419.8,403.9,34.8
13.75,366.3,444.7,444.1,418.4,45.1
14.0,375.7,433.4,442.7,417.3,36.3
14.25,371.8,445.3,434.6,417.2,39.7
14.5,365.8,443.9,451.4,420.4,47.4
14.75,387.4,452.3,448.4,429.4,36.4
15.0,395.8,457.4,449.5,434.2,33.5
15.25,393.9,456.9,471.3,440.7,41.1
15.5,393.2,466.0,471.6,443.6,43.7
15.75,400.2,456.9,471.5,442.9,37.7
16.0,394.2,467.9,462.9,441.7,41.2
16.25,404.6,464.8,477.5,449.0,39.0
16.5,407.8,468.4,468.1,448.1,34.9
16.75,406.7,473.6,459.8,446.7,35.3
17.0,426.1,466.8,468.0,453.6,23.8
17.25,413.1,467.6,472.8,451.2,33.1
17.5,417.0,461.6,483.2,453.9,33.8
17.75,421.2,462.1,467.6,450.3,25.4
18.0,430.3,465.5,468.2,454.6,21.1
18.25,425.2,465.5,468.6,453.1,24.2
18.5,441.0,460.3,450.3,450.5,9.6
18.75,431.7,450.1,460.4,447.4,14.5
19.0,443.0,462.0,456.7,453.9,9.8
19.25,460.4,449.9,459.9,456.7,5.9
19.5,444.3,441.5,457.6,447.8,8.6
19.75,460.1,450.8,451.3,454.1,5.2
20.0,449.3,438.9,443.9,444.0,5.2
20.25,469.1,443.0,432.3,448.1,19.0
20.5,467.3,428.9,436.3,444.2,20.4
20.75,464.1,433.0,415.9,437.6,24.4
21.0,474.3,420.7,416.7,437.2,32.2
21.25,475.8,417.5,402.5,431.9,38.7
21.5,483.0,413.2,402.4,432.9,43.8
21.75,473.7,420.8,395.0,429.9,40.1
22.0,483.0,411.6,382.3,425.6,51.8
22.25,480.0,416.1,377.9,424.6,51.6
22.5,474.4,405.6,374.9,418.3,50.9
22.75,463.6,392.6,377.5,411.2,46.0
23.0,470.5,397.5,360.1,409.4,56.1
23.25,460.5,392.3,352.8,401.8,54.5
23.5,472.1,382.5,350.8,401.8,62.9
23.75,457.5,382.9,341.2,393.8,58.9
24.0,457.3,377.8,340.1,391.7,59.8
24.25,449.8,371.2,326.0,382.3,62.6
24.5,442.6,371.0,324.5,379.4,59.5
24.75,431.7,362.9,316.6,370.4,57.9
25.0,441.5,360.6,310.6,370.9,66.0
25.25,422.7,356.4,301.0,360.0,60.9
25.5,422.9,351.1,295.4,356.5,63.9
25.75,414.6,344.9,293.0,350.8,61.0
26.0,416.1,337.0,290.0,347.7,63.7
26.25,406.8,330.9,288.9,342.2,59.8
26.5,417.3,327.1,275.0,339.8,72.0
26.75,405.3,321.3,273.0,333.2,66.9
27.0,393.9,312.2,267.1,324.4,64.3
27.25,381.8,307.0,264.7,317.8,59.3
27.5,376.5,302.6,254.4,311.1,61.5
27.75,373.5,295.9,251.8,307.1,61.6
28.0,368.0,289.0,245.9,300.9,61.9
28.25,358.3,285.8,239.7,294.6,59.8
28.5,358.3,283.1,237.2,292.9,61.2
28.75,347.1,274.9,234.4,285.5,57.1
29.0,342.0,271.2,228.0,280.4,57.5
29.25,332.8,265.2,225.5,274.5,54.2
29.5,323.4,262.0,220.5,268.7,51.8
29.75,316.9,258.1,221.0,265.4,48.4
30.0,310.2,256.0,215.0,260.4,47.8
30.25,302.4,249.2,209.1,253.5,46.8
30.5,293.4,246.8,208.1,249.4,42.7
30.75,296.7,245.4,203.2,248.4,46.8
31.0,285.5,239.2,197.7,240.8,43.9
31.25,280.4,235.8,191.9,236.0,44.2
31.5,275.7,237.7,191.3,234.9,42.3
31.75,269.4,231.9,187.9,229.7,40.8
32.0,259.6,226.9,182.4,223.0,38.7
32.25,255.1,218.9,180.5,218.2,37.3
32.5,248.0,216.4,173.5,212.6,37.4
32.75,245.8,218.2,170.4,211.5,38.1
33.0,236.1,216.6,167.9,206.9,35.1
33.25,229.6,208.8,163.2,200.6,34.0
33.5,226.9,206.1,159.2,197.4,34.7
33.75,218.5,200.2,155.5,191.4,32.4
34.0,212.3,201.7,153.0,189.0,31.6
34.25,206.2,192.4,149.5,182.7,29.5
34.5,202.0,185.6,143.8,177.2,30.0
34.75,201.2,182.2,139.0,174.1,31.9
35.0,196.6,180.6,136.7,171.3,31.0
35.25,187.8,168.7,134.3,163.6,27.1
35.5,184.3,166.4,132.3,161.0,26.4
35.75,182.4,162.4,127.0,157.2,28.1
36.0,175.9,161.6,124.7,154.1,26.4
36.25,167.7,154.8,123.4,148.6,22.8
36.5,164.2,151.5,119.7,145.1,22.9
36.75,157.4,147.1,116.2,140.2,21.5
37.0,152.9,143.7,113.8,136.8,20.5
37.25,145.9,139.3,112.4,132.5,17.7
37.5,144.4,135.7,107.9,129.3,19.1
37.75,137.5,133.8,106.3,125.9,17.1
38.0,132.5,128.7,104.0,121.7,15.5
38.25,129.0,126.5,99.9,118.5,16.1
38.5,123.4,121.2,98.1,114.2,14.0
38.75,118.2,118.3,94.4,110.3,13.8
39.0,113.0,111.4,91.4,105.3,12.0
39.25,110.3,110.7,90.3,103.7,11.7
39.5,105.6,106.8,89.3,100.6,9.8
39.75,101.7,105.7,84.9,97.4,11.0
40.0,98.5,100.1,81.4,93.3,10.3
40.25,97.4,95.9,78.1,90.4,10.7
40.5,93.7,91.9,74.6,86.7,10.5
40.75,88.8,88.7,73.7,83.7,8.7
41.0,85.8,86.6,69.6,80.7,9.6
41.25,82.4,83.2,67.9,77.8,8.6
41.5,80.7,80.2,64.9,75.2,9.0
41.75,79.1,75.6,64.1,73.0,7.9
42.0,76.2,73.4,62.9,70.8,7.0
42.25,74.4,71.3,61.2,69.0,6.9
42.5,71.8,66.7,58.5,65.7,6.7
42.75,69.5,65.4,56.6,63.8,6.6
43.0,68.1,63.5,56.4,62.7,5.9