Folder: fsri_materials_database/01_Data/Eucalyptus_Flooring/Cone (part 2)

File: Eucalyptus_Flooring_HRRPUA_75.csv
Time after Ignition,Eucalyptus_Flooring_R1,Eucalyptus_Flooring_R2,Eucalyptus_Flooring_R3,Mean,Std. Dev.
0.0,16.9,14.8,15.1,15.6,1.1
22.0,410.2,437.8,406.3,418.1,17.2
44.0,222.2,239.8,227.7,229.9,9.0
66.0,188.1,205.3,180.8,191.4,12.6
88.0,179.7,180.6,171.6,177.3,4.9
110.0,167.8,163.4,159.0,163.4,4.4
132.0,153.9,154.5,151.3,153.2,1.7
154.0,147.5,150.7,149.0,149.1,1.6
176.0,142.5,147.9,144.7,145.0,2.7
198.0,140.4,142.1,145.4,142.7,2.5
220.0,140.5,143.3,146.9,143.6,3.2
242.0,140.3,143.1,144.9,142.8,2.3
264.0,140.2,144.0,141.7,142.0,1.9
286.0,138.0,147.2,142.1,142.4,4.6
308.0,137.8,144.7,142.1,141.5,3.5
330.0,132.7,142.3,139.3,138.1,4.9
352.0,131.8,144.8,141.8,139.5,6.8
374.0,130.0,136.7,136.5,134.4,3.8
396.0,141.4,136.1,136.2,137.9,3.0
418.0,143.1,135.5,137.3,138.6,4.0
440.0,145.6,137.0,134.7,139.1,5.7
462.0,139.5,139.4,136.5,138.4,1.7
484.0,137.6,137.7,136.4,137.3,0.7
506.0,137.2,146.2,140.7,141.4,4.5
528.0,143.9,152.0,139.7,145.2,6.2
550.0,143.8,156.6,146.6,149.0,6.7
572.0,154.2,164.6,154.1,157.7,6.0
594.0,162.7,164.6,159.3,162.2,2.7
616.0,177.3,172.8,166.5,172.2,5.4
638.0,189.3,182.0,182.6,184.6,4.1
660.0,195.4,189.0,189.3,191.2,3.6
682.0,196.0,183.8,203.3,194.4,9.9
704.0,202.6,182.2,205.2,196.7,12.6
726.0,197.1,185.0,209.1,197.1,12.1
748.0,196.0,184.4,206.6,195.6,11.1
770.0,193.3,189.0,201.9,194.7,6.6
792.0,189.4,196.5,197.3,194.4,4.3
814.0,179.3,193.4,185.0,185.9,7.1
836.0,176.7,188.5,174.5,179.9,7.5
858.0,170.3,188.7,162.6,173.9,13.4
880.0,150.3,179.3,160.1,163.2,14.7
902.0,103.1,169.6,153.4,142.0,34.6
924.0,75.1,111.4,128.8,105.1,27.4
946.0,67.2,82.8,86.4,78.8,10.2
968.0,64.3,73.4,75.1,70.9,5.8
990.0,61.1,68.4,70.3,66.6,4.9
1012.0,58.3,64.7,66.9,63.3,4.5
1034.0,56.1,63.3,64.0,61.2,4.4
1056.0,52.5,61.5,63.3,59.1,5.8
1078.0,51.9,59.3,59.8,57.0,4.5
1100.0,51.2,57.9,59.0,56.0,4.2
1122.0,49.6,54.6,57.6,53.9,4.0
1144.0,47.1,55.0,55.7,52.6,4.8
1166.0,48.2,53.5,55.4,52.4,3.7
1188.0,46.6,51.9,54.0,50.8,3.9
1210.0,48.0,,,48.0,
1232.0,45.5,,,45.5,
1254.0,46.7,,,46.7,
1276.0,45.1,,,45.1,
1298.0,43.2,,,43.2,
1320.0,44.7,,,44.7,
1342.0,43.9,,,43.9,
1364.0,42.7,,,42.7,
1386.0,42.6,,,42.6,
1408.0,42.4,,,42.4,
1430.0,43.5,,,43.5,
1452.0,42.4,,,42.4,
1474.0,42.2,,,42.2,
1496.0,41.5,,,41.5,
1518.0,41.5,,,41.5,
1540.0,42.8,,,42.8,
1562.0,41.8,,,41.8,
1584.0,41.7,,,41.7,
1606.0,39.7,,,39.7,
1628.0,40.4,,,40.4,
1650.0,40.8,,,40.8,
1672.0,40.9,,,40.9,
1694.0,41.9,,,41.9,
1716.0,39.6,,,39.6,
1738.0,38.7,,,38.7,
1760.0,39.5,,,39.5,
1782.0,39.7,,,39.7,
1804.0,38.0,,,38.0,
1826.0,39.1,,,39.1,
1848.0,39.0,,,39.0,
1870.0,40.0,,,40.0,
1892.0,39.6,,,39.6,
1914.0,39.1,,,39.1,
1936.0,38.5,,,38.5,
1958.0,39.9,,,39.9,
1980.0,39.0,,,39.0,
2002.0,38.1,,,38.1,
2024.0,36.5,,,36.5,
2046.0,38.0,,,38.0,
2068.0,38.4,,,38.4,
2090.0,37.4,,,37.4,
2112.0,36.4,,,36.4,
2134.0,36.2,,,36.2,
2156.0,36.8,,,36.8,
2178.0,36.7,,,36.7,
2200.0,36.3,,,36.3,
2222.0,36.7,,,36.7,
2244.0,37.8,,,37.8,
2266.0,37.2,,,37.2,
2288.0,35.3,,,35.3,
2310.0,35.7,,,35.7,
2332.0,36.1,,,36.1,
2354.0,36.8,,,36.8,
2376.0,35.4,,,35.4,
2398.0,35.2,,,35.2,
2420.0,34.5,,,34.5,
2442.0,36.2,,,36.2,
2464.0,37.0,,,37.0,
2486.0,35.2,,,35.2,
2508.0,34.1,,,34.1,
2530.0,35.3,,,35.3,
2552.0,36.1,,,36.1,
2574.0,36.3,,,36.3,
2596.0,35.6,,,35.6,
2618.0,33.7,,,33.7,
2640.0,36.3,,,36.3,
2662.0,35.7,,,35.7,
2684.0,34.3,,,34.3,
2706.0,35.0,,,35.0,
2728.0,34.2,,,34.2,
2750.0,34.0,,,34.0,
2772.0,33.3,,,33.3,
2794.0,33.5,,,33.5,
2816.0,34.1,,,34.1,
2838.0,33.3,,,33.3,
2860.0,33.3,,,33.3,
2882.0,33.1,,,33.1,
2904.0,32.2,,,32.2,
2926.0,33.0,,,33.0,
2948.0,31.2,,,31.2,
2970.0,32.8,,,32.8,
2992.0,32.9,,,32.9,
3014.0,30.8,,,30.8,
3036.0,31.7,,,31.7,
3058.0,31.7,,,31.7,
3080.0,30.2,,,30.2,
3102.0,30.8,,,30.8,
3124.0,31.3,,,31.3,
3146.0,30.7,,,30.7,
3168.0,31.1,,,31.1,
3190.0,30.5,,,30.5,
3212.0,31.2,,,31.2,
3234.0,29.8,,,29.8,
3256.0,32.3,,,32.3,
3278.0,32.3,,,32.3,
3300.0,30.6,,,30.6,
3322.0,30.7,,,30.7,
3344.0,30.5,,,30.5,
3366.0,31.1,,,31.1,
3388.0,27.6,,,27.6,
3410.0,29.7,,,29.7,
3432.0,30.2,,,30.2,
3454.0,30.1,,,30.1,
3476.0,28.7,,,28.7,
3498.0,30.0,,,30.0,
3520.0,29.3,,,29.3,
3542.0,29.8,,,29.8,
3564.0,30.1,,,30.1,
3586.0,31.2,,,31.2,
3608.0,29.0,,,29.0,
3630.0,30.0,,,30.0,
3652.0,29.9,,,29.9,
3674.0,29.0,,,29.0,
3696.0,29.0,,,29.0,
3718.0,30.0,,,30.0,
3740.0,28.5,,,28.5,
3762.0,27.2,,,27.2,
3784.0,28.0,,,28.0,
3806.0,28.2,,,28.2,
3828.0,25.4,,,25.4,
3850.0,27.4,,,27.4,
3872.0,27.0,,,27.0,
3894.0,27.9,,,27.9,
3916.0,29.1,,,29.1,
3938.0,26.3,,,26.3,
3960.0,26.0,,,26.0,
3982.0,27.3,,,27.3,
4004.0,27.2,,,27.2,
4026.0,27.6,,,27.6,
4048.0,27.4,,,27.4,
4070.0,27.0,,,27.0,
4092.0,27.3,,,27.3,
4114.0,26.7,,,26.7,
4136.0,26.2,,,26.2,
4158.0,27.7,,,27.7,
4180.0,26.1,,,26.1,
4202.0,24.7,,,24.7,
4224.0,25.1,,,25.1,
4246.0,26.6,,,26.6,
4268.0,26.6,,,26.6,
4290.0,25.5,,,25.5,
4312.0,26.5,,,26.5,
4334.0,24.5,,,24.5,
4356.0,24.4,,,24.4,
4378.0,24.4,,,24.4,
4400.0,23.5,,,23.5,
4422.0,22.3,,,22.3,
4444.0,23.1,,,23.1,
4466.0,24.3,,,24.3,
4488.0,24.0,,,24.0,
4510.0,24.0,,,24.0,
4532.0,24.9,,,24.9,
4554.0,22.6,,,22.6,
4576.0,23.7,,,23.7,
4598.0,23.8,,,23.8,
4620.0,23.4,,,23.4,
4642.0,22.3,,,22.3,
4664.0,21.1,,,21.1,
4686.0,20.9,,,20.9,
4708.0,19.8,,,19.8,
4730.0,20.0,,,20.0,
4752.0,20.3,,,20.3,
4774.0,19.2,,,19.2,
4796.0,21.0,,,21.0,
4818.0,19.7,,,19.7,
4840.0,19.3,,,19.3,
4862.0,18.6,,,18.6,
4884.0,17.3,,,17.3,
4906.0,16.5,,,16.5,
4928.0,17.3,,,17.3,
4950.0,17.4,,,17.4,
4972.0,17.1,,,17.1,
4994.0,16.4,,,16.4,
5016.0,16.4,,,16.4,
5038.0,17.5,,,17.5,
5060.0,15.6,,,15.6,
5082.0,16.7,,,16.7,
5104.0,18.2,,,18.2,
5126.0,16.3,,,16.3,
5148.0,14.8,,,14.8,
5170.0,15.1,,,15.1,
5192.0,15.0,,,15.0,
5214.0,14.8,,,14.8,
5236.0,14.7,,,14.7,
5258.0,14.6,,,14.6,
5280.0,14.4,,,14.4,
5302.0,14.3,,,14.3,
5324.0,13.8,,,13.8,
5346.0,16.4,,,16.4,
5368.0,13.3,,,13.3,
5390.0,13.6,,,13.6,
5412.0,13.0,,,13.0,
5434.0,12.0,,,12.0,
5456.0,12.5,,,12.5,
5478.0,10.9,,,10.9,
5500.0,10.4,,,10.4,
5522.0,11.7,,,11.7,
5544.0,11.4,,,11.4,
5566.0,11.4,,,11.4,
5588.0,10.8,,,10.8,
5610.0,9.6,,,9.6,
5632.0,10.7,,,10.7,
5654.0,10.1,,,10.1,
5676.0,9.4,,,9.4,
5698.0,8.0,,,8.0,
5720.0,9.2,,,9.2,
5742.0,8.9,,,8.9,
5764.0,7.2,,,7.2,
5786.0,8.5,,,8.5,
5808.0,8.2,,,8.2,
5830.0,8.4,,,8.4,
5852.0,10.3,,,10.3,
5874.0,7.7,,,7.7,
5896.0,8.0,,,8.0,
5918.0,7.0,,,7.0,
5940.0,5.9,,,5.9,
5962.0,6.1,,,6.1,
5984.0,6.0,,,6.0,
6006.0,6.3,,,6.3,
6028.0,5.0,,,5.0,
6050.0,5.3,,,5.3,
6072.0,4.3,,,4.3,
6094.0,6.1,,,6.1,
6116.0,5.2,,,5.2,
6138.0,5.3,,,5.3,
6160.0,4.0,,,4.0,
6182.0,4.7,,,4.7,
6204.0,3.4,,,3.4,
6226.0,3.4,,,3.4,
6248.0,3.1,,,3.1,
6270.0,2.9,,,2.9,
6292.0,4.1,,,4.1,
6314.0,3.9,,,3.9,
6336.0,3.7,,,3.7,
6358.0,1.9,,,1.9,
6380.0,1.7,,,1.7,
6402.0,1.9,,,1.9,
6424.0,1.9,,,1.9,
6446.0,1.2,,,1.2,
6468.0,1.1,,,1.1,
6490.0,1.1,,,1.1,
6512.0,0.7,,,0.7,
6534.0,1.0,,,1.0,
6539.0,1.2,,,1.2,