Folder: fsri_materials_database/01_Data/Rug_Pad/Cone

Note: README.md
# Materials and Products Database
### Repository of materials and products properties and fire test data to improve fire modeling and fire investigation.

This project was supported in part by Award No. 2019-DU-BX-0018, awarded by the National Institute of Justice, Office of Justice Programs, U.S. Department of Justice. The opinions, findings, and conclusions or recommendations expressed in this publication / program / exhibition are those of the author(s) and do not necessarily reflect those of the Department of Justice.

***
***

__Cite this database:__ "McKinnon, M., Weinschenk, C., Dow, N., DiDomizio, M., and Madrzykowski, D. Materials and Products Database (Version 1.0.0), Fire Safety Research Institute, UL Research Institutes. Columbia, MD 21045, 2023."

__Cite the Technical Reference Guide:__ "McKinnon, M., Weinschenk, C., and Madrzykowski, D. Materials and Products Database - Technical Reference Guide, Fire Safety Research Institute, UL Research Institutes. Columbia, MD 21045, 2023."

__Cite the User Guide:__ "McKinnon, M., and Weinschenk, C. Materials and Products Database - User Guide, Fire Safety Research Institute, UL Research Institutes. Columbia, MD 21045, 2023."

***
***

## Database Structure

## 01_Data/
Raw data generated from each apparatus are included here in plain-text format. The data is organized first by material, next by the short name of test apparatus used, and where applicable additional filtering by test settings.

### Test Apparatus and Data File Structure
- __Cone Calorimeter__ (Cone)
    + Data file structure includes the material, the short name for the apparatus, heat flux setting and scan/scalar, date of test, and replicate number. Scan is for the raw output data and scalar is for the initial conditions and high-level test parameters. 
        * Example: __MDF_Cone_HF25scalar_210323_R1__ stands for the first replicate of scalar data generated from a medium density fiber board test in cone calorimeter exposed to 25 kW/m<sup>2</sup> on March 23, 2021.
    + A _Cone_Notes.csv_ is generated for each material from the __plot_Cone_data.py__ script. For materials whose experiments deviated from typical behavior relevant pictures are included in the respective material directory.
- __Fourier Transform Infrared Spectrometer__ (FTIR)
    + The FTIR directory contains subdirectories for the Attenuated Total Reflectance method (ATR) and the Integrating Sphere (IS)
    + Data file structure for the ATR experiment files includes the material, the abbreviated name for the apparatus, date of test, and replicate number. 
        * Example: __MDF_ATR_210323_R5__ stands for the fifth replicate of data collected with the ATR accessory conducted on June 8, 2021.
    + Data file structure for the IS experiment files includes the material, the abbreviated name for the apparatus, the measurand, whether the test is a sample measurement or standard reference, date of test, and replicate number.
        * Example: __OSB_IS_REFLECT_MEAS_2

File: Rug_Pad_HRRPUA_25.csv
Time after Ignition,Rug_Pad_R1,Rug_Pad_R2,Rug_Pad_R3,Mean,Std. Dev.
0.0,1.1,4.1,3.4,2.9,1.5
0.5,2.0,5.9,6.1,4.7,2.3
1.0,3.2,8.9,8.2,6.8,3.1
1.5,3.8,12.8,12.8,9.8,5.2
2.0,6.7,16.0,16.5,13.0,5.5
2.5,9.0,19.9,25.4,18.1,8.3
3.0,12.9,24.8,32.2,23.3,9.7
3.5,17.9,30.7,42.4,30.3,12.2
4.0,23.7,37.9,50.0,37.2,13.2
4.5,30.3,43.2,58.3,44.0,14.0
5.0,37.5,51.9,65.8,51.8,14.2
5.5,45.5,58.0,71.2,58.2,12.9
6.0,50.3,70.1,78.4,66.3,14.4
6.5,56.6,78.8,84.7,73.4,14.9
7.0,64.2,88.7,91.8,81.6,15.1
7.5,69.8,96.6,98.1,88.2,15.9
8.0,77.2,105.2,103.6,95.3,15.8
8.5,82.9,112.8,108.9,101.5,16.3
9.0,91.7,116.9,112.3,107.0,13.4
9.5,96.1,122.4,121.4,113.3,14.9
10.0,101.8,127.2,126.8,118.6,14.6
10.5,109.8,134.4,134.0,126.0,14.1
11.0,114.5,139.2,138.5,130.7,14.1
11.5,123.4,144.2,145.9,137.8,12.5
12.0,128.5,144.9,150.0,141.1,11.2
12.5,133.5,149.7,151.3,144.8,9.8
13.0,136.2,154.7,156.6,149.2,11.3
13.5,144.9,158.0,160.2,154.4,8.3
14.0,145.5,159.4,164.6,156.5,9.8
14.5,151.5,165.1,165.7,160.8,8.0
15.0,155.1,167.3,173.0,165.1,9.1
15.5,155.9,168.8,171.4,165.4,8.3
16.0,161.4,172.1,176.3,169.9,7.7
16.5,164.1,171.2,182.7,172.7,9.4
17.0,167.2,175.9,183.0,175.4,7.9
17.5,170.2,180.8,185.6,178.9,7.9
18.0,173.7,183.5,188.3,181.9,7.4
18.5,176.2,181.8,193.7,183.9,8.9
19.0,176.2,187.0,194.4,185.9,9.1
19.5,181.9,185.0,198.7,188.5,8.9
20.0,182.1,190.5,199.9,190.8,8.9
20.5,184.6,191.7,202.5,192.9,9.0
21.0,183.1,195.3,206.6,195.0,11.7
21.5,189.1,195.2,208.2,197.5,9.8
22.0,185.4,202.6,208.6,198.9,12.0
22.5,194.1,202.0,208.5,201.5,7.2
23.0,191.8,205.0,209.0,201.9,9.0
23.5,192.9,200.9,209.5,201.1,8.3
24.0,193.1,200.7,210.0,201.3,8.5
24.5,196.0,206.4,214.4,205.6,9.3
25.0,195.4,204.1,208.2,202.6,6.5
25.5,198.1,205.1,213.2,205.5,7.6
26.0,193.5,202.7,214.9,203.7,10.7
26.5,198.8,205.1,214.2,206.1,7.7
27.0,197.0,206.1,212.0,205.0,7.6
27.5,197.2,200.9,214.4,204.2,9.0
28.0,198.2,198.3,212.2,202.9,8.0
28.5,195.9,195.8,211.9,201.2,9.3
29.0,196.9,198.4,208.3,201.2,6.2
29.5,191.4,194.4,206.3,197.4,7.9
30.0,190.3,196.7,203.7,196.9,6.7
30.5,192.1,195.9,201.3,196.4,4.6
31.0,187.4,189.3,197.6,191.4,5.4
31.5,184.4,188.3,195.7,189.5,5.8
32.0,185.4,184.1,190.9,186.8,3.6
32.5,181.8,181.8,186.6,183.4,2.8
33.0,178.5,179.4,182.8,180.2,2.3
33.5,176.5,175.5,181.4,177.8,3.1
34.0,176.5,172.4,176.6,175.1,2.4
34.5,172.9,171.2,173.3,172.5,1.2
35.0,170.7,166.1,169.7,168.8,2.4
35.5,168.6,163.4,167.6,166.5,2.8
36.0,166.8,160.4,162.4,163.2,3.3
36.5,164.1,160.6,157.6,160.8,3.3
37.0,161.6,153.8,155.2,156.9,4.1
37.5,159.2,152.1,152.1,154.4,4.1
38.0,155.2,151.6,148.4,151.7,3.4
38.5,152.9,146.9,142.0,147.3,5.5
39.0,150.4,145.1,141.0,145.5,4.7
39.5,148.2,142.1,137.0,142.4,5.6
40.0,146.9,138.6,134.1,139.9,6.5
40.5,140.4,136.2,131.3,136.0,4.5
41.0,140.8,132.3,128.7,133.9,6.2
41.5,137.5,127.4,124.8,129.9,6.7
42.0,134.7,125.9,124.5,128.4,5.5
42.5,133.3,122.3,119.6,125.1,7.2
43.0,130.3,119.1,117.7,122.4,6.9
43.5,128.4,115.7,114.5,119.5,7.7
44.0,125.7,111.6,112.1,116.4,8.0
44.5,124.2,109.6,108.7,114.2,8.7
45.0,118.9,105.9,104.9,109.9,7.8
45.5,118.6,104.6,101.4,108.2,9.2
46.0,116.8,101.9,98.3,105.7,9.8
46.5,113.3,99.7,96.8,103.3,8.8
47.0,109.7,96.8,92.4,99.6,9.0
47.5,107.7,93.3,90.2,97.0,9.3
48.0,105.0,91.2,86.5,94.2,9.6
48.5,101.1,88.5,85.1,91.6,8.4
49.0,100.8,83.9,81.8,88.9,10.4
49.5,97.4,83.5,80.1,87.0,9.2
50.0,95.5,78.6,78.0,84.0,9.9
50.5,92.3,76.5,75.2,81.3,9.5
51.0,89.5,75.0,73.4,79.3,8.9
51.5,88.5,73.9,72.0,78.1,9.0
52.0,85.5,70.8,68.7,75.0,9.2
52.5,81.7,68.2,66.3,72.1,8.4
53.0,78.9,66.4,64.8,70.0,7.7
53.5,77.1,64.2,62.6,68.0,7.9
54.0,73.9,63.0,61.0,66.0,6.9
54.5,71.0,60.8,60.0,63.9,6.1
55.0,69.3,58.5,57.9,61.9,6.4
55.5,66.8,55.8,57.3,59.9,6.0
56.0,64.8,54.5,56.0,58.5,5.6
56.5,63.0,52.5,53.8,56.4,5.7
57.0,61.8,52.4,52.4,55.5,5.4
57.5,60.1,49.8,50.5,53.5,5.8
58.0,58.2,48.8,48.4,51.8,5.5
58.5,56.2,47.3,47.9,50.4,5.0
59.0,55.4,46.9,45.5,49.3,5.4
59.5,53.4,46.1,44.0,47.8,4.9
60.0,51.7,44.7,43.2,46.5,4.5
60.5,49.8,43.3,41.4,44.8,4.4
61.0,48.4,43.0,40.2,43.9,4.2
61.5,47.3,40.9,39.4,42.5,4.2
62.0,45.9,40.4,38.2,41.5,4.0
62.5,44.0,39.7,37.5,40.4,3.3
63.0,42.7,37.9,36.4,39.0,3.3
63.5,41.7,36.5,35.4,37.8,3.4
64.0,39.9,35.7,34.6,36.7,2.8
64.5,38.6,34.7,33.5,35.6,2.7
65.0,37.5,33.4,32.9,34.6,2.5
65.5,36.7,32.3,32.1,33.7,2.6
66.0,35.0,31.6,30.4,32.4,2.4
66.5,34.4,30.3,30.0,31.6,2.4
67.0,32.6,28.9,29.3,30.3,2.0
67.5,31.2,28.3,28.1,29.2,1.7
68.0,29.7,27.4,27.5,28.2,1.3
68.5,29.2,25.9,27.2,27.4,1.6
69.0,28.1,25.5,26.3,26.6,1.3
69.5,27.3,24.8,25.6,25.9,1.3
70.0,26.3,24.1,25.3,25.2,1.1
70.5,25.2,23.7,24.6,24.5,0.7
71.0,24.4,23.3,23.2,23.7,0.6
71.5,23.3,22.7,22.7,22.9,0.3
72.0,22.5,22.2,22.4,22.4,0.2
72.5,21.7,21.0,21.5,21.4,0.3
73.0,20.7,20.5,21.3,20.8,0.4
73.5,20.2,20.0,20.4,20.2,0.2
74.0,19.9,19.5,19.8,19.7,0.2
74.5,19.9,19.2,19.7,19.6,0.4
75.0,19.1,18.9,19.2,19.1,0.1
75.25,19.0,18.9,19.0,19.0,0.1

File: Rug_Pad_HRRPUA_50.csv
Time after Ignition,Rug_Pad_R1,Rug_Pad_R2,Rug_Pad_R3,Mean,Std. Dev.
0.0,4.4,-0.4,2.3,2.1,2.4
0.75,9.5,0.9,9.6,6.7,5.0
1.5,17.3,6.1,20.8,14.8,7.7
2.25,28.5,16.0,34.1,26.2,9.2
3.0,43.9,30.1,49.7,41.2,10.1
3.75,58.4,52.2,58.8,56.4,3.7
4.5,73.8,74.8,76.6,75.1,1.4
5.25,89.4,97.7,93.7,93.6,4.1
6.0,104.6,110.7,110.2,108.5,3.4
6.75,117.8,128.9,125.8,124.2,5.8
7.5,133.5,143.9,142.0,139.8,5.5
8.25,150.8,161.0,158.2,156.7,5.2
9.0,165.2,175.5,166.0,168.9,5.7
9.75,183.3,191.2,182.5,185.7,4.8
10.5,201.1,207.2,195.0,201.1,6.1
11.25,216.8,226.6,200.8,214.7,13.0
12.0,234.4,241.5,214.5,230.2,14.0
12.75,252.0,252.2,228.7,244.3,13.5
13.5,261.0,274.7,244.3,260.0,15.3
14.25,281.3,278.2,256.1,271.9,13.7
15.0,295.1,298.6,274.6,289.4,13.0
15.75,317.6,311.3,284.5,304.5,17.5
16.5,323.7,321.2,286.0,310.3,21.1
17.25,334.9,327.0,291.8,317.9,22.9
18.0,342.8,328.9,299.5,323.8,22.1
18.75,343.3,338.4,310.8,330.9,17.5
19.5,349.3,345.3,315.8,336.8,18.3
20.25,347.9,346.7,322.0,338.9,14.6
21.0,348.7,336.3,324.1,336.4,12.3
21.75,354.3,339.1,319.6,337.7,17.4
22.5,349.3,334.0,309.8,331.0,19.9
23.25,333.7,323.8,309.6,322.4,12.1
24.0,319.6,317.3,306.2,314.3,7.2
24.75,302.4,301.5,295.1,299.7,4.0
25.5,280.5,278.9,286.3,281.9,3.9
26.25,266.9,263.6,279.2,269.9,8.2
27.0,256.6,248.1,269.4,258.0,10.7
27.75,241.9,230.8,251.5,241.4,10.3
28.5,228.9,220.9,240.0,230.0,9.6
29.25,216.2,204.5,225.8,215.5,10.6
30.0,204.1,189.9,216.4,203.5,13.2
30.75,185.9,180.7,213.4,193.3,17.6
31.5,179.1,166.4,197.5,181.0,15.6
32.25,162.3,152.8,186.7,167.2,17.5
33.0,152.8,141.5,176.9,157.1,18.1
33.75,143.9,133.1,167.7,148.2,17.7
34.5,133.5,122.8,158.7,138.4,18.4
35.25,124.9,114.7,150.6,130.1,18.5
36.0,116.8,109.2,137.5,121.1,14.7
36.75,109.9,100.2,131.3,113.8,15.9
37.5,104.1,94.2,123.3,107.2,14.8
38.25,99.1,88.6,119.0,102.3,15.4
39.0,93.7,81.8,112.2,95.9,15.3
39.75,87.5,77.3,106.8,90.5,15.0
40.5,83.5,72.5,103.5,86.5,15.7
41.25,81.6,69.2,95.5,82.1,13.1
42.0,79.1,65.8,92.9,79.3,13.5
42.75,74.6,62.5,88.0,75.0,12.7
43.5,71.6,60.1,84.2,71.9,12.0
44.25,68.3,57.9,81.3,69.1,11.7
45.0,65.8,56.1,77.7,66.5,10.9
45.75,63.1,55.0,75.3,64.5,10.3
46.5,61.8,52.0,73.4,62.4,10.7
47.25,60.5,50.2,71.1,60.6,10.4
48.0,58.7,48.4,68.8,58.6,10.2
48.75,56.6,47.2,67.6,57.1,10.2
49.5,55.8,46.4,65.2,55.8,9.4
50.25,55.3,45.1,64.4,54.9,9.7
51.0,53.7,43.7,65.8,54.4,11.1
51.75,53.0,42.4,62.8,52.7,10.2
52.5,51.6,42.9,61.9,52.1,9.5
53.25,50.5,41.8,59.7,50.7,8.9
54.0,49.7,41.6,60.1,50.5,9.3
54.75,49.1,40.6,59.8,49.8,9.6
55.5,47.9,41.3,58.6,49.3,8.7
56.25,47.6,39.4,57.5,48.2,9.1
57.0,46.8,38.8,57.4,47.6,9.4
57.75,45.6,38.9,55.5,46.7,8.3
58.5,45.3,38.0,54.9,46.1,8.5
59.25,44.2,37.6,54.4,45.4,8.4
60.0,43.7,36.3,53.8,44.6,8.8
60.75,43.1,35.5,53.4,44.0,9.0
61.5,42.8,36.0,53.0,44.0,8.6
62.25,41.9,34.9,51.9,42.9,8.5
63.0,41.3,34.4,51.5,42.4,8.6
63.75,41.2,34.3,51.4,42.3,8.6
64.5,40.3,33.6,50.2,41.4,8.4
65.25,40.3,33.3,49.4,41.0,8.1
66.0,39.2,33.1,49.7,40.7,8.4
66.75,39.1,32.9,49.2,40.4,8.2
67.5,39.0,32.7,49.3,40.3,8.4
68.25,37.6,32.8,48.2,39.5,7.9
69.0,37.1,32.2,47.9,39.1,8.0
69.75,36.8,32.6,47.0,38.8,7.4
70.5,36.2,32.3,46.5,38.3,7.3
71.25,35.4,32.1,46.4,38.0,7.5
72.0,35.2,32.0,46.2,37.8,7.5
72.75,34.3,31.3,46.3,37.3,7.9
73.5,33.9,31.5,45.3,36.9,7.4
74.25,33.5,30.7,45.3,36.5,7.7
75.0,32.8,30.9,44.8,36.2,7.5
75.75,32.4,30.5,44.1,35.6,7.3
76.5,31.5,30.2,43.5,35.1,7.3
77.25,30.9,30.0,43.4,34.8,7.5
78.0,30.3,29.9,42.6,34.3,7.2
78.75,29.9,29.6,41.8,33.7,6.9
79.5,29.5,29.3,41.4,33.4,6.9
80.25,29.3,29.1,40.7,33.0,6.7
81.0,28.9,28.8,40.9,32.8,7.0
81.75,28.7,28.9,39.8,32.5,6.4
82.5,28.8,28.2,39.5,32.1,6.4
83.25,28.2,28.1,38.3,31.5,5.9
84.0,27.7,28.0,37.8,31.2,5.8
84.75,27.5,27.7,37.1,30.8,5.5
85.5,27.3,27.3,37.0,30.5,5.6
86.25,27.1,27.6,36.8,30.5,5.5
87.0,27.5,27.4,36.3,30.4,5.1
87.75,26.8,26.8,35.5,29.7,5.0
88.5,26.9,26.4,35.0,29.4,4.9
89.25,26.3,26.5,34.2,29.0,4.5
90.0,26.4,26.3,33.1,28.6,3.9
90.75,26.0,26.0,32.2,28.1,3.5
91.5,26.5,25.6,31.7,27.9,3.3
92.25,25.9,25.3,31.8,27.7,3.6
93.0,25.3,25.4,31.2,27.3,3.4
93.75,24.9,25.4,30.5,26.9,3.1
94.5,24.7,25.0,29.5,26.4,2.7
95.25,24.4,25.3,28.9,26.2,2.4
96.0,24.1,25.3,28.6,26.0,2.4
96.75,23.9,25.3,27.9,25.7,2.0
97.5,23.8,24.6,27.0,25.1,1.7
98.25,24.3,24.5,26.2,25.0,1.1
99.0,24.3,24.4,26.0,24.9,1.0
99.75,24.6,24.3,25.7,24.9,0.8
100.5,24.5,24.0,25.4,24.6,0.7
101.25,24.0,24.3,24.7,24.3,0.4
102.0,24.1,24.6,24.0,24.3,0.3
102.75,24.1,24.4,23.8,24.1,0.3
103.5,23.7,24.5,22.9,23.7,0.8
104.25,24.0,24.9,22.0,23.6,1.5
105.0,23.9,25.1,21.5,23.5,1.8
105.75,23.6,24.8,21.2,23.2,1.8
106.5,23.4,24.9,20.7,23.0,2.1
107.25,23.2,24.8,20.6,22.8,2.1
108.0,23.0,24.6,20.2,22.6,2.2
108.75,22.6,24.4,19.7,22.3,2.4
109.5,22.6,24.0,19.2,22.0,2.5
110.25,22.3,23.7,18.7,21.6,2.6
111.0,22.2,23.5,18.5,21.4,2.6
111.75,21.9,23.5,18.5,21.3,2.6
112.5,21.5,23.4,18.1,21.0,2.7
113.25,21.1,23.2,17.6,20.6,2.8
114.0,20.9,23.4,17.3,20.5,3.1
114.75,20.8,23.6,17.2,20.5,3.2
115.5,20.5,23.6,17.0,20.4,3.3
116.25,20.7,23.6,16.8,20.4,3.4
117.0,20.8,23.6,16.7,20.3,3.5
117.75,20.7,23.3,16.3,20.1,3.6
118.5,20.4,22.8,16.4,19.9,3.2
119.25,20.3,22.4,16.2,19.6,3.1
120.0,20.1,22.1,15.7,19.3,3.3
120.75,19.6,22.0,15.5,19.0,3.3
121.5,19.7,21.6,15.1,18.8,3.4
122.25,19.2,21.4,14.7,18.4,3.4
123.0,19.2,20.6,14.6,18.1,3.2
123.75,19.3,20.9,14.6,18.2,3.3
124.5,19.3,20.9,14.2,18.1,3.5
125.25,19.0,20.5,14.2,17.9,3.3
126.0,18.6,20.4,14.0,17.7,3.3
126.75,18.6,20.0,14.2,17.6,3.0
127.5,18.1,19.7,14.0,17.3,2.9
128.25,17.9,19.4,13.9,17.1,2.9
129.0,17.7,18.8,13.8,16.7,2.6
129.75,17.8,18.9,13.5,16.7,2.8
130.5,17.5,18.6,13.3,16.5,2.8
131.25,17.7,18.3,13.2,16.4,2.8
132.0,17.4,18.4,13.2,16.4,2.8
132.75,17.6,17.7,12.9,16.0,2.8
133.5,17.0,17.8,12.8,15.9,2.7
134.25,16.7,17.3,13.0,15.7,2.4
135.0,16.8,17.3,12.9,15.7,2.4
135.75,16.6,17.0,13.0,15.5,2.2
136.5,17.1,16.7,13.4,15.7,2.0
137.25,16.5,16.5,13.6,15.5,1.7
138.0,16.9,16.2,13.6,15.6,1.8
138.75,16.3,16.3,13.7,15.4,1.5
139.5,15.9,16.0,13.8,15.2,1.2
140.25,15.8,15.7,13.8,15.1,1.1
141.0,15.2,15.2,13.9,14.8,0.8
141.75,15.0,14.7,13.8,14.5,0.6
142.5,14.6,14.4,13.4,14.2,0.6
143.25,14.6,14.1,13.4,14.0,0.6
144.0,14.7,13.9,13.1,13.9,0.8
144.75,14.5,14.0,13.0,13.8,0.7
145.5,14.2,13.8,13.1,13.7,0.5
146.25,13.7,13.6,13.0,13.4,0.4
147.0,13.1,13.6,13.1,13.3,0.3
147.75,13.0,13.3,12.9,13.1,0.2
148.5,12.6,13.2,12.9,12.9,0.3
149.25,12.5,13.0,12.9,12.8,0.3
150.0,12.4,12.8,13.2,12.8,0.4
150.75,12.2,12.4,12.7,12.4,0.2
151.5,12.1,12.1,12.4,12.2,0.2
152.25,12.2,11.9,12.2,12.1,0.2
153.0,12.1,11.7,12.3,12.0,0.3
153.75,11.6,11.6,12.0,11.8,0.2
154.5,11.4,11.6,12.0,11.7,0.3
155.25,11.2,11.3,11.8,11.5,0.3
156.0,11.0,11.2,11.9,11.4,0.4
156.75,10.9,11.1,11.8,11.3,0.5
157.5,10.9,10.7,11.7,11.1,0.6
158.25,10.8,10.7,11.9,11.1,0.7
159.0,10.9,10.4,11.6,11.0,0.6
159.75,10.7,10.3,11.4,10.8,0.6
160.5,10.8,10.1,11.2,10.7,0.6
161.25,10.6,10.0,11.0,10.5,0.5
162.0,10.3,9.6,10.9,10.3,0.7
162.75,10.1,9.4,10.9,10.1,0.8
163.5,10.0,9.2,10.8,10.0,0.8
164.25,10.0,8.6,10.9,9.8,1.1
165.0,9.9,8.2,10.7,9.6,1.3
165.75,9.8,8.0,10.8,9.5,1.4
166.5,9.4,7.8,10.6,9.3,1.4
167.25,9.1,7.7,10.7,9.2,1.5
168.0,9.1,7.4,10.7,9.1,1.6
168.75,9.0,7.2,10.6,8.9,1.7
169.5,8.9,7.1,10.7,8.9,1.8
170.25,8.9,6.7,10.4,8.6,1.9
171.0,8.8,,10.0,9.4,0.9
171.75,8.9,,9.8,9.3,0.6
172.5,8.8,,9.8,9.3,0.7
173.25,8.8,,9.7,9.3,0.6
174.0,8.8,,9.7,9.3,0.6
174.75,8.7,,9.5,9.1,0.5
175.5,8.7,,9.5,9.1,0.6
176.25,8.8,,9.6,9.2,0.5
177.0,8.7,,9.3,9.0,0.4
177.75,8.4,,9.2,8.8,0.5
178.5,8.2,,8.8,8.5,0.4
179.25,7.8,,8.7,8.2,0.6
180.0,7.6,,8.5,8.1,0.6
180.75,7.5,,8.5,8.0,0.7
181.5,7.4,,8.5,7.9,0.8
182.25,7.2,,8.4,7.8,0.9
183.0,6.9,,8.2,7.5,1.0
183.75,6.7,,8.1,7.4,1.0
184.5,6.5,,8.0,7.2,1.1
185.25,6.1,,7.9,7.0,1.2
186.0,5.8,,7.8,6.8,1.5
186.75,5.6,,7.8,6.7,1.5
187.5,5.4,,7.9,6.6,1.7

File: Rug_Pad_HRRPUA_75.csv
Time after Ignition,Rug_Pad_R1,Rug_Pad_R2,Rug_Pad_R3,Mean,Std. Dev.
0.0,6.3,0.6,10.1,5.7,4.8
0.5,11.5,4.2,14.9,10.2,5.5
1.0,18.9,7.2,30.9,19.0,11.9
1.5,24.5,15.7,43.5,27.9,14.2
2.0,33.1,22.3,64.1,39.8,21.7
2.5,43.4,38.5,79.6,53.9,22.4
3.0,56.6,50.9,98.5,68.7,26.0
3.5,70.2,70.7,112.2,84.4,24.1
4.0,82.6,84.4,126.9,98.0,25.0
4.5,98.7,100.7,144.4,114.6,25.8
5.0,117.4,116.2,154.9,129.5,22.0
5.5,137.6,134.0,172.3,148.0,21.1
6.0,159.8,145.4,189.1,164.7,22.3
6.5,169.8,159.1,206.3,178.4,24.8
7.0,186.8,175.5,210.8,191.0,18.0
7.5,209.7,190.9,231.5,210.7,20.3
8.0,219.9,201.8,233.3,218.3,15.9
8.5,241.6,220.1,257.8,239.8,18.9
9.0,259.0,241.9,269.5,256.8,13.9
9.5,272.8,262.2,281.5,272.2,9.7
10.0,287.9,277.5,287.0,284.1,5.8
10.5,291.7,300.6,310.1,300.8,9.2
11.0,314.9,328.5,321.7,321.7,6.8
11.5,338.4,350.0,330.7,339.7,9.7
12.0,344.4,343.7,344.7,344.3,0.5
12.5,365.0,364.5,365.6,365.0,0.5
13.0,374.3,386.8,361.7,374.3,12.5
13.5,387.6,389.0,377.7,384.8,6.1
14.0,398.1,416.1,380.8,398.3,17.6
14.5,411.0,411.4,387.7,403.4,13.6
15.0,418.8,430.4,396.3,415.2,17.3
15.5,428.2,435.2,403.7,422.4,16.5
16.0,443.3,439.8,410.6,431.2,18.0
16.5,433.6,463.2,404.4,433.8,29.4
17.0,436.9,444.7,396.7,426.1,25.8
17.5,436.1,445.2,396.4,425.9,25.9
18.0,438.4,436.9,395.2,423.5,24.5
18.5,433.2,432.5,381.3,415.7,29.8
19.0,416.8,431.5,381.3,409.9,25.8
19.5,408.3,432.7,366.8,402.6,33.3
20.0,392.7,418.4,355.9,389.0,31.4
20.5,384.3,418.5,341.4,381.4,38.6
21.0,369.9,396.7,334.4,367.0,31.3
21.5,353.4,381.6,316.0,350.3,32.9
22.0,337.2,363.3,308.8,336.4,27.3
22.5,323.9,357.0,286.7,322.5,35.2
23.0,300.9,343.2,278.6,307.5,32.8
23.5,288.0,328.4,263.8,293.4,32.7
24.0,273.0,310.4,249.1,277.5,30.9
24.5,254.5,295.6,231.3,260.5,32.6
25.0,238.8,276.6,220.3,245.2,28.7
25.5,223.5,265.1,208.7,232.4,29.2
26.0,210.7,247.4,197.8,218.6,25.7
26.5,195.9,235.3,184.9,205.3,26.5
27.0,182.2,223.3,178.0,194.5,25.1
27.5,171.1,206.6,164.7,180.8,22.6
28.0,157.6,198.6,156.0,170.7,24.2
28.5,150.1,181.8,148.0,160.0,18.9
29.0,144.1,172.2,137.7,151.3,18.4
29.5,132.6,158.5,131.0,140.7,15.4
30.0,126.3,148.9,123.7,132.9,13.9
30.5,119.3,139.2,120.5,126.3,11.1
31.0,115.9,132.3,114.3,120.8,10.0
31.5,109.9,121.5,109.4,113.6,6.8
32.0,104.9,114.3,107.1,108.8,4.9
32.5,99.8,107.8,103.7,103.8,4.0
33.0,97.2,102.2,100.0,99.8,2.5
33.5,91.8,96.5,97.4,95.2,3.0
34.0,88.3,90.6,95.2,91.4,3.5
34.5,83.9,87.5,92.9,88.1,4.5
35.0,81.4,81.7,90.2,84.4,5.0
35.5,78.2,78.9,87.5,81.5,5.2
36.0,74.9,76.0,86.0,79.0,6.1
36.5,73.3,72.8,83.8,76.6,6.2
37.0,71.0,70.9,82.3,74.7,6.6
37.5,68.1,68.1,80.6,72.2,7.2
38.0,67.8,65.4,80.1,71.1,7.9
38.5,65.9,64.5,78.9,69.8,7.9
39.0,64.6,62.5,78.4,68.5,8.7
39.5,61.9,60.7,76.7,66.5,8.9
40.0,61.0,59.2,77.8,66.0,10.2
40.5,60.3,58.7,76.9,65.3,10.1
41.0,58.4,56.2,76.3,63.6,11.0
41.5,58.5,55.2,75.2,63.0,10.7
42.0,56.7,54.5,75.4,62.2,11.5
42.5,57.4,53.6,74.9,61.9,11.3
43.0,57.1,51.8,75.2,61.4,12.3
43.5,56.3,51.0,73.6,60.3,11.8
44.0,56.1,50.3,74.7,60.4,12.7
44.5,55.2,50.3,73.9,59.8,12.4
45.0,54.6,50.0,74.9,59.9,13.2
45.5,53.8,48.9,74.1,59.0,13.4
46.0,53.0,48.4,75.3,58.9,14.4
46.5,52.0,48.1,74.3,58.2,14.1
47.0,51.9,48.1,74.9,58.3,14.5
47.5,51.3,48.2,74.7,58.1,14.5
48.0,51.4,47.3,76.2,58.3,15.6
48.5,50.4,46.7,76.2,57.8,16.0
49.0,50.0,47.6,74.8,57.5,15.1
49.5,50.0,47.3,75.8,57.7,15.7
50.0,49.9,48.0,73.8,57.2,14.4
50.5,49.2,47.5,74.0,56.9,14.9
51.0,48.7,47.4,74.2,56.8,15.1
51.5,47.7,47.0,73.1,55.9,14.9
52.0,48.8,47.1,73.1,56.3,14.5
52.5,48.3,47.1,72.7,56.0,14.5
53.0,47.8,47.0,72.0,55.6,14.2
53.5,48.4,47.3,72.3,56.0,14.1
54.0,48.3,46.9,72.7,56.0,14.5
54.5,48.8,46.3,73.2,56.1,14.9
55.0,48.5,46.5,72.6,55.8,14.5
55.5,48.1,46.5,71.8,55.5,14.2
56.0,47.4,46.5,72.1,55.3,14.5
56.5,47.7,46.4,71.1,55.1,13.9
57.0,47.8,46.5,70.5,54.9,13.5
57.5,47.9,47.0,70.7,55.2,13.4
58.0,47.5,46.9,70.7,55.1,13.6
58.5,48.0,46.7,69.2,54.6,12.6
59.0,48.1,46.3,70.2,54.9,13.3
59.5,48.4,46.7,68.4,54.5,12.1
60.0,48.0,46.8,69.5,54.8,12.8
60.5,47.5,47.2,68.7,54.5,12.3
61.0,47.7,46.9,67.2,53.9,11.5
61.5,47.8,46.4,66.2,53.5,11.1
62.0,47.1,46.8,66.0,53.3,11.0
62.5,47.4,46.7,65.0,53.0,10.4
63.0,46.7,47.4,64.5,52.9,10.1
63.5,46.4,47.1,63.0,52.2,9.4
64.0,46.3,46.9,63.4,52.2,9.7
64.5,47.2,46.8,62.2,52.1,8.7
65.0,46.3,46.2,61.2,51.2,8.6
65.5,45.8,46.4,60.9,51.0,8.5
66.0,45.7,47.0,60.0,50.9,7.9
66.5,45.8,46.5,59.3,50.5,7.6
67.0,45.0,46.4,58.6,50.0,7.4
67.5,44.4,47.0,58.3,49.9,7.4
68.0,44.8,46.5,56.8,49.4,6.5
68.5,44.2,46.8,56.0,49.0,6.2
69.0,44.9,46.2,55.6,48.9,5.9
69.5,44.2,45.8,54.5,48.2,5.6
70.0,44.7,46.1,53.9,48.2,5.0
70.5,43.6,46.1,53.1,47.6,4.9
71.0,43.7,46.7,53.0,47.8,4.7
71.5,44.0,45.9,51.6,47.2,4.0
72.0,43.5,45.7,51.7,46.9,4.2
72.5,43.1,44.8,50.4,46.1,3.9
73.0,43.5,43.9,49.6,45.7,3.4
73.5,43.5,43.9,48.5,45.3,2.8
74.0,43.2,43.6,48.1,44.9,2.7
74.5,42.6,43.0,47.7,44.4,2.8
75.0,42.7,42.0,47.2,44.0,2.8
75.5,41.9,42.2,45.6,43.2,2.1
76.0,42.3,42.0,45.5,43.3,1.9
76.5,41.8,42.1,44.7,42.9,1.6
77.0,42.4,41.5,43.7,42.6,1.1
77.5,41.8,41.7,42.8,42.1,0.6
78.0,41.6,41.2,41.5,41.4,0.2
78.5,41.5,40.6,41.7,41.3,0.6
79.0,41.0,41.1,40.5,40.8,0.3
79.5,40.3,41.3,40.0,40.5,0.7
80.0,40.2,40.7,38.9,39.9,0.9
80.5,39.9,41.0,38.6,39.8,1.2
81.0,39.3,40.6,36.9,38.9,1.8
81.5,39.8,40.1,37.0,39.0,1.7
82.0,39.0,40.4,36.9,38.8,1.8
82.5,39.7,40.0,35.4,38.4,2.6
83.0,39.2,39.6,34.6,37.8,2.8
83.5,39.2,39.9,33.8,37.6,3.3
84.0,39.2,39.4,33.6,37.4,3.3
84.5,38.4,39.1,33.0,36.8,3.4
85.0,37.8,38.7,32.4,36.3,3.4
85.5,37.3,38.3,32.0,35.9,3.4
86.0,37.8,37.9,30.6,35.5,4.2
86.5,36.9,38.1,30.2,35.1,4.2
87.0,36.3,37.1,30.2,34.6,3.8
87.5,36.2,36.8,29.6,34.2,4.0
88.0,35.2,36.5,29.0,33.6,4.0
88.5,35.4,36.7,28.9,33.7,4.2
89.0,34.4,36.9,28.3,33.2,4.4
89.5,34.5,36.1,27.9,32.9,4.4
90.0,34.1,35.0,27.3,32.1,4.2
90.5,33.4,35.2,26.8,31.8,4.4
91.0,33.3,34.4,26.0,31.2,4.6
91.5,33.1,34.8,24.9,31.0,5.3
92.0,32.6,33.7,24.5,30.2,5.0
92.5,32.8,34.1,24.5,30.4,5.2
93.0,31.6,34.1,23.8,29.9,5.4
93.5,31.2,33.6,23.3,29.4,5.4
94.0,31.1,33.7,23.2,29.3,5.5
94.5,30.4,33.5,22.5,28.8,5.7
95.0,30.3,33.0,22.0,28.5,5.8
95.5,29.9,32.8,21.5,28.1,5.8
96.0,29.3,32.6,20.9,27.6,6.0
96.5,29.5,31.4,20.7,27.2,5.7
97.0,29.3,31.5,20.0,26.9,6.1
97.5,28.3,30.8,19.4,26.1,6.0
98.0,27.8,30.5,19.0,25.8,6.0
98.5,28.0,30.2,18.7,25.7,6.1
99.0,27.7,29.7,18.2,25.2,6.2
99.5,27.5,29.2,17.8,24.8,6.1
100.0,27.0,28.8,17.7,24.5,6.0
100.5,26.5,28.2,17.2,24.0,5.9
101.0,25.8,27.5,16.7,23.3,5.8
101.5,25.5,27.7,16.6,23.3,5.9
102.0,24.7,27.4,16.2,22.8,5.8
102.5,24.0,27.2,15.7,22.3,5.9
103.0,23.2,27.0,15.7,22.0,5.7
103.5,22.9,26.5,15.7,21.7,5.5
104.0,22.7,26.4,15.2,21.5,5.7
104.5,22.3,26.3,14.9,21.1,5.8
105.0,21.9,25.5,15.1,20.8,5.3
105.5,21.8,25.1,14.5,20.5,5.4
106.0,21.7,24.9,14.4,20.3,5.4
106.5,21.7,24.6,14.2,20.2,5.4
107.0,20.7,24.0,14.2,19.6,5.0
107.5,20.0,23.8,14.2,19.3,4.8
108.0,19.9,22.9,14.0,18.9,4.5
108.5,19.6,23.0,13.8,18.8,4.6
109.0,19.4,22.8,13.5,18.6,4.7
109.5,19.1,22.4,13.3,18.3,4.6
110.0,18.5,22.4,13.3,18.1,4.6
110.5,18.5,22.2,13.3,18.0,4.5
111.0,18.6,22.1,13.2,18.0,4.5
111.5,18.3,21.7,12.9,17.6,4.4
112.0,18.4,22.0,12.8,17.7,4.6
112.5,18.5,21.2,12.4,17.4,4.5
113.0,18.2,20.9,,19.5,1.9
113.5,17.9,20.3,,19.1,1.7
114.0,17.8,19.6,,18.7,1.3
114.5,17.3,19.6,,18.5,1.6
115.0,17.2,18.9,,18.1,1.2
115.5,17.0,18.6,,17.8,1.2
116.0,16.5,18.4,,17.5,1.4
116.5,15.7,18.2,,17.0,1.8
117.0,15.4,17.7,,16.5,1.6
117.5,15.2,17.5,,16.3,1.6
118.0,15.0,17.1,,16.0,1.5
118.5,14.8,16.7,,15.8,1.4
119.0,14.7,16.7,,15.7,1.4
119.5,14.6,16.3,,15.5,1.2
120.0,13.9,16.3,,15.1,1.7
120.5,13.7,15.7,,14.7,1.4
121.0,13.6,15.4,,14.5,1.2
121.5,13.5,14.7,,14.1,0.9
122.0,13.1,14.8,,14.0,1.2
122.5,12.8,14.4,,13.6,1.1
123.0,12.4,14.4,,13.4,1.4
123.5,12.1,14.2,,13.1,1.5
124.0,11.6,14.2,,12.9,1.8
124.5,11.6,13.8,,12.7,1.6
125.0,11.5,13.7,,12.6,1.6
125.5,11.1,13.5,,12.3,1.7
126.0,11.1,13.2,,12.2,1.5
126.5,11.0,12.9,,12.0,1.3
127.0,10.9,12.7,,11.8,1.3
127.5,10.8,12.4,,11.6,1.1
128.0,10.6,11.9,,11.2,0.9
128.5,10.3,11.7,,11.0,1.0
129.0,10.0,11.5,,10.7,1.0