Folder: fsri_materials_database/01_Data/PlasticB/FTIR/IS

Note: README.md
# Materials and Products Database
### Repository of materials and products properties and fire test data to improve fire modeling and fire investigation.

This project was supported in part by Award No. 2019-DU-BX-0018, awarded by the National Institute of Justice, Office of Justice Programs, U.S. Department of Justice. The opinions, findings, and conclusions or recommendations expressed in this publication / program / exhibition are those of the author(s) and do not necessarily reflect those of the Department of Justice.

***
***

__Cite this database:__ "McKinnon, M., Weinschenk, C., Dow, N., DiDomizio, M., and Madrzykowski, D. Materials and Products Database (Version 1.0.0), Fire Safety Research Institute, UL Research Institutes. Columbia, MD 21045, 2023."

__Cite the Technical Reference Guide:__ "McKinnon, M., Weinschenk, C., and Madrzykowski, D. Materials and Products Database - Technical Reference Guide, Fire Safety Research Institute, UL Research Institutes. Columbia, MD 21045, 2023."

__Cite the User Guide:__ "McKinnon, M., and Weinschenk, C. Materials and Products Database - User Guide, Fire Safety Research Institute, UL Research Institutes. Columbia, MD 21045, 2023."

***
***

## Database Structure

## 01_Data/
Raw data generated from each apparatus are included here in plain-text format. The data is organized first by material, next by the short name of test apparatus used, and where applicable additional filtering by test settings.

### Test Apparatus and Data File Structure
- __Cone Calorimeter__ (Cone)
    + Data file structure includes the material, the short name for the apparatus, heat flux setting and scan/scalar, date of test, and replicate number. Scan is for the raw output data and scalar is for the initial conditions and high-level test parameters. 
        * Example: __MDF_Cone_HF25scalar_210323_R1__ stands for the first replicate of scalar data generated from a medium density fiber board test in cone calorimeter exposed to 25 kW/m<sup>2</sup> on March 23, 2021.
    + A _Cone_Notes.csv_ is generated for each material from the __plot_Cone_data.py__ script. For materials whose experiments deviated from typical behavior relevant pictures are included in the respective material directory.
- __Fourier Transform Infrared Spectrometer__ (FTIR)
    + The FTIR directory contains subdirectories for the Attenuated Total Reflectance method (ATR) and the Integrating Sphere (IS)
    + Data file structure for the ATR experiment files includes the material, the abbreviated name for the apparatus, date of test, and replicate number. 
        * Example: __MDF_ATR_210323_R5__ stands for the fifth replicate of data collected with the ATR accessory conducted on June 8, 2021.
    + Data file structure for the IS experiment files includes the material, the abbreviated name for the apparatus, the measurand, whether the test is a sample measurement or standard reference, date of test, and replicate number.
        * Example: __OSB_IS_REFLECT_MEAS_2

File: PlasticB_IS_S_220901_R1.dpt
7497.03,0.82069
7473.89,0.82294
7450.74,0.81900
7427.6,0.78936
7404.45,0.80011
7381.31,0.79936
7358.16,0.80355
7335.02,0.79546
7311.87,0.77834
7288.73,0.76336
7265.58,0.73804
7242.44,0.73091
7219.29,0.71620
7196.15,0.69728
7173,0.69069
7149.86,0.69489
7126.71,0.69231
7103.57,0.68294
7080.42,0.66400
7057.28,0.67083
7034.13,0.67571
7010.99,0.68436
6987.84,0.68758
6964.7,0.68117
6941.55,0.69273
6918.41,0.70247
6895.26,0.70984
6872.12,0.72017
6848.97,0.72882
6825.83,0.72706
6802.68,0.72524
6779.54,0.73969
6756.39,0.74066
6733.25,0.74377
6710.1,0.74082
6686.96,0.74943
6663.82,0.76072
6640.67,0.76263
6617.53,0.76625
6594.38,0.76815
6571.24,0.77270
6548.09,0.77853
6524.95,0.78293
6501.8,0.78981
6478.66,0.80013
6455.51,0.79565
6432.37,0.79991
6409.22,0.79874
6386.08,0.79426
6362.93,0.78402
6339.79,0.78096
6316.64,0.77922
6293.5,0.76441
6270.35,0.75888
6247.21,0.73771
6224.06,0.71404
6200.92,0.69061
6177.77,0.64319
6154.63,0.55864
6131.48,0.48407
6108.34,0.42626
6085.19,0.43203
6062.05,0.45408
6038.9,0.44641
6015.76,0.32892
5992.61,0.24391
5969.47,0.19489
5946.32,0.18720
5923.18,0.20521
5900.03,0.22159
5876.89,0.26412
5853.74,0.29223
5830.6,0.29785
5807.45,0.29824
5784.31,0.30346
5761.16,0.35886
5738.02,0.39900
5714.87,0.36436
5691.73,0.33377
5668.58,0.31705
5645.44,0.34819
5622.29,0.37744
5599.15,0.38066
5576,0.38023
5552.86,0.38797
5529.71,0.38483
5506.57,0.39096
5483.42,0.40796
5460.28,0.41522
5437.13,0.40953
5413.99,0.40707
5390.84,0.40507
5367.7,0.40303
5344.55,0.41905
5321.41,0.42886
5298.26,0.43247
5275.12,0.43587
5251.97,0.43432
5228.83,0.43236
5205.68,0.44446
5182.54,0.44951
5159.39,0.45186
5136.25,0.44720
5113.1,0.44580
5089.96,0.45094
5066.81,0.45266
5043.67,0.45125
5020.52,0.45389
4997.38,0.45162
4974.23,0.44157
4951.09,0.44415
4927.94,0.44303
4904.8,0.44145
4881.65,0.43365
4858.51,0.42608
4835.36,0.41280
4812.22,0.41564
4789.07,0.41014
4765.93,0.37400
4742.78,0.36401
4719.64,0.31496
4696.49,0.26691
4673.35,0.14813
4650.2,0.15115
4627.06,0.13314
4603.92,0.12615
4580.77,0.16588
4557.63,0.18727
4534.48,0.23214
4511.34,0.23313
4488.19,0.24627
4465.05,0.26181
4441.9,0.24062
4418.76,0.22839
4395.61,0.19513
4372.47,0.15710
4349.32,0.12813
4326.18,0.11848
4303.03,0.13634
4279.89,0.12336
4256.74,0.10466
4233.6,0.10562
4210.45,0.10701
4187.31,0.11552
4164.16,0.12290
4141.02,0.12204
4117.87,0.11232
4094.73,0.10554
4071.58,0.08816
4048.44,0.08165
4025.29,0.08673
4002.15,0.10685
3979,0.11873
3955.86,0.12356
3932.71,0.12061
3909.57,0.12542
3886.42,0.12815
3863.28,0.12769
3840.13,0.12571
3816.99,0.11924
3793.84,0.12255
3770.7,0.12824
3747.55,0.13307
3724.41,0.12488
3701.26,0.11795
3678.12,0.11279
3654.97,0.10421
3631.83,0.11720
3608.68,0.13044
3585.54,0.13490
3562.39,0.14921
3539.25,0.14673
3516.1,0.14191
3492.96,0.13633
3469.81,0.12904
3446.67,0.12326
3423.52,0.13187
3400.38,0.13514
3377.23,0.13734
3354.09,0.14042
3330.94,0.13476
3307.8,0.11575
3284.65,0.11742
3261.51,0.11984
3238.36,0.11649
3215.22,0.10793
3192.07,0.09740
3168.93,0.08702
3145.78,0.08394
3122.64,0.07633
3099.49,0.06605
3076.35,0.06566
3053.2,0.06630
3030.06,0.06459
3006.91,0.06691
2983.77,0.06727
2960.62,0.06514
2937.48,0.06270
2914.33,0.06844
2891.19,0.06885
2868.04,0.06794
2844.9,0.06908
2821.75,0.07059
2798.61,0.07150
2775.46,0.07337
2752.32,0.07605
2729.17,0.07514
2706.03,0.07488
2682.88,0.07453
2659.74,0.07483
2636.59,0.07343
2613.45,0.07470
2590.3,0.07548
2567.16,0.07607
2544.02,0.07550
2520.87,0.07533
2497.73,0.07582
2474.58,0.07839
2451.44,0.08010
2428.29,0.08176
2405.15,0.08023
2382,0.07876
2358.86,0.07554
2335.71,0.07149
2312.57,0.07368
2289.42,0.07756
2266.28,0.07861
2243.13,0.07903
2219.99,0.08117
2196.84,0.08193
2173.7,0.08314
2150.55,0.08381
2127.41,0.08642
2104.26,0.08688
2081.12,0.08792
2057.97,0.08577
2034.83,0.08268
2011.68,0.07899
1988.54,0.07165
1965.39,0.06703
1942.25,0.06626
1919.1,0.06968
1895.96,0.06731
1872.81,0.06627
1849.67,0.06896
1826.52,0.06707
1803.38,0.06565
1780.23,0.06741
1757.09,0.06573
1733.94,0.06598
1710.8,0.06712
1687.65,0.06606
1664.51,0.06516
1641.36,0.06554
1618.22,0.06476
1595.07,0.06606
1571.93,0.06591
1548.78,0.06470
1525.64,0.06424
1502.49,0.06058
1479.35,0.06612
1456.2,0.05926
1433.06,0.06818
1409.91,0.06599
1386.77,0.06472
1363.62,0.06504
1340.48,0.06518
1317.33,0.06504
1294.19,0.06492
1271.04,0.06563
1247.9,0.06570
1224.75,0.06440
1201.61,0.06375
1178.46,0.06449
1155.32,0.06478
1132.17,0.06558
1109.03,0.06464
1085.88,0.06297
1062.74,0.06452
1039.59,0.06348
1016.45,0.06664
993.304,0.06415
970.159,0.06297
947.014,0.06388
923.869,0.06298
900.724,0.06339
877.579,0.06252
854.434,0.06050
831.289,0.06172
808.144,0.05967
784.999,0.05597
761.854,0.05553
738.709,0.06641
715.565,0.04936
692.42,0.11376
669.275,0.07465
646.13,0.07041
622.985,0.06805
599.84,0.06687

File: PlasticB_IS_S_220901_R2.dpt
7497.03,0.82779
7473.89,0.81858
7450.74,0.80348
7427.6,0.80167
7404.45,0.80053
7381.31,0.80253
7358.16,0.81082
7335.02,0.79610
7311.87,0.78185
7288.73,0.75834
7265.58,0.74113
7242.44,0.72528
7219.29,0.71636
7196.15,0.69393
7173,0.69253
7149.86,0.69582
7126.71,0.68645
7103.57,0.67990
7080.42,0.66302
7057.28,0.67422
7034.13,0.67735
7010.99,0.68705
6987.84,0.68898
6964.7,0.68627
6941.55,0.69764
6918.41,0.69927
6895.26,0.71001
6872.12,0.71917
6848.97,0.72079
6825.83,0.72407
6802.68,0.73163
6779.54,0.73528
6756.39,0.74042
6733.25,0.73620
6710.1,0.74918
6686.96,0.74955
6663.82,0.75718
6640.67,0.76416
6617.53,0.76563
6594.38,0.77038
6571.24,0.77366
6548.09,0.78136
6524.95,0.78597
6501.8,0.78942
6478.66,0.79256
6455.51,0.79534
6432.37,0.80094
6409.22,0.79610
6386.08,0.79174
6362.93,0.78426
6339.79,0.77792
6316.64,0.77340
6293.5,0.76381
6270.35,0.75755
6247.21,0.73973
6224.06,0.71706
6200.92,0.69018
6177.77,0.64594
6154.63,0.55609
6131.48,0.48444
6108.34,0.42904
6085.19,0.42846
6062.05,0.45565
6038.9,0.44281
6015.76,0.33082
5992.61,0.24885
5969.47,0.19646
5946.32,0.19238
5923.18,0.20450
5900.03,0.22074
5876.89,0.26435
5853.74,0.29160
5830.6,0.29439
5807.45,0.29698
5784.31,0.30601
5761.16,0.35749
5738.02,0.39951
5714.87,0.36187
5691.73,0.33468
5668.58,0.31687
5645.44,0.34626
5622.29,0.37809
5599.15,0.37986
5576,0.38184
5552.86,0.38689
5529.71,0.38573
5506.57,0.39078
5483.42,0.40700
5460.28,0.41348
5437.13,0.41232
5413.99,0.40775
5390.84,0.40388
5367.7,0.40408
5344.55,0.41756
5321.41,0.42882
5298.26,0.43187
5275.12,0.43721
5251.97,0.43435
5228.83,0.43428
5205.68,0.44364
5182.54,0.44812
5159.39,0.45225
5136.25,0.44785
5113.1,0.44793
5089.96,0.45280
5066.81,0.45265
5043.67,0.45021
5020.52,0.45421
4997.38,0.44965
4974.23,0.44231
4951.09,0.44385
4927.94,0.44266
4904.8,0.44309
4881.65,0.43308
4858.51,0.42679
4835.36,0.41222
4812.22,0.41548
4789.07,0.40991
4765.93,0.37387
4742.78,0.36420
4719.64,0.31472
4696.49,0.26658
4673.35,0.14858
4650.2,0.15094
4627.06,0.13343
4603.92,0.12746
4580.77,0.16443
4557.63,0.18694
4534.48,0.23210
4511.34,0.23414
4488.19,0.24650
4465.05,0.26163
4441.9,0.24075
4418.76,0.22773
4395.61,0.19555
4372.47,0.15774
4349.32,0.12791
4326.18,0.11872
4303.03,0.13703
4279.89,0.12388
4256.74,0.10491
4233.6,0.10571
4210.45,0.10715
4187.31,0.11626
4164.16,0.12312
4141.02,0.12201
4117.87,0.11252
4094.73,0.10592
4071.58,0.08925
4048.44,0.08204
4025.29,0.08675
4002.15,0.10732
3979,0.11898
3955.86,0.12294
3932.71,0.12100
3909.57,0.12532
3886.42,0.12789
3863.28,0.12816
3840.13,0.12555
3816.99,0.11944
3793.84,0.12265
3770.7,0.12858
3747.55,0.13347
3724.41,0.12554
3701.26,0.11766
3678.12,0.11461
3654.97,0.10419
3631.83,0.11762
3608.68,0.13082
3585.54,0.13618
3562.39,0.14995
3539.25,0.14736
3516.1,0.14301
3492.96,0.13573
3469.81,0.12875
3446.67,0.12331
3423.52,0.13187
3400.38,0.13547
3377.23,0.13759
3354.09,0.14030
3330.94,0.13472
3307.8,0.11673
3284.65,0.11792
3261.51,0.12030
3238.36,0.11618
3215.22,0.10753
3192.07,0.09786
3168.93,0.08711
3145.78,0.08349
3122.64,0.07581
3099.49,0.06699
3076.35,0.06498
3053.2,0.06615
3030.06,0.06401
3006.91,0.06712
2983.77,0.06738
2960.62,0.06489
2937.48,0.06362
2914.33,0.06888
2891.19,0.06896
2868.04,0.06788
2844.9,0.06951
2821.75,0.07016
2798.61,0.07168
2775.46,0.07349
2752.32,0.07631
2729.17,0.07483
2706.03,0.07523
2682.88,0.07492
2659.74,0.07461
2636.59,0.07346
2613.45,0.07507
2590.3,0.07578
2567.16,0.07617
2544.02,0.07537
2520.87,0.07549
2497.73,0.07626
2474.58,0.07859
2451.44,0.08016
2428.29,0.08184
2405.15,0.08036
2382,0.07899
2358.86,0.07556
2335.71,0.07150
2312.57,0.07335
2289.42,0.07758
2266.28,0.07876
2243.13,0.07889
2219.99,0.08122
2196.84,0.08226
2173.7,0.08289
2150.55,0.08407
2127.41,0.08622
2104.26,0.08729
2081.12,0.08811
2057.97,0.08535
2034.83,0.08281
2011.68,0.07888
1988.54,0.07138
1965.39,0.06727
1942.25,0.06625
1919.1,0.06907
1895.96,0.06733
1872.81,0.06623
1849.67,0.06879
1826.52,0.06718
1803.38,0.06569
1780.23,0.06744
1757.09,0.06589
1733.94,0.06617
1710.8,0.06700
1687.65,0.06571
1664.51,0.06540
1641.36,0.06537
1618.22,0.06492
1595.07,0.06647
1571.93,0.06570
1548.78,0.06430
1525.64,0.06422
1502.49,0.06056
1479.35,0.06591
1456.2,0.05959
1433.06,0.06817
1409.91,0.06606
1386.77,0.06434
1363.62,0.06538
1340.48,0.06535
1317.33,0.06489
1294.19,0.06554
1271.04,0.06517
1247.9,0.06517
1224.75,0.06472
1201.61,0.06410
1178.46,0.06512
1155.32,0.06465
1132.17,0.06582
1109.03,0.06384
1085.88,0.06333
1062.74,0.06476
1039.59,0.06305
1016.45,0.06667
993.304,0.06441
970.159,0.06298
947.014,0.06364
923.869,0.06208
900.724,0.06368
877.579,0.06220
854.434,0.06200
831.289,0.06158
808.144,0.05973
784.999,0.05498
761.854,0.05638
738.709,0.06444
715.565,0.04953
692.42,0.11476
669.275,0.07456
646.13,0.06957
622.985,0.06711
599.84,0.06812

File: PlasticB_IS_S_220901_R4.dpt
7497.03,0.83013
7473.89,0.81266
7450.74,0.80941
7427.6,0.80321
7404.45,0.80057
7381.31,0.80610
7358.16,0.80218
7335.02,0.79700
7311.87,0.77911
7288.73,0.75404
7265.58,0.74267
7242.44,0.72540
7219.29,0.72005
7196.15,0.69644
7173,0.68907
7149.86,0.69153
7126.71,0.68759
7103.57,0.67704
7080.42,0.66926
7057.28,0.67148
7034.13,0.68610
7010.99,0.68685
6987.84,0.67929
6964.7,0.68517
6941.55,0.69529
6918.41,0.70202
6895.26,0.71010
6872.12,0.71149
6848.97,0.72367
6825.83,0.72652
6802.68,0.72626
6779.54,0.73671
6756.39,0.74315
6733.25,0.73905
6710.1,0.74594
6686.96,0.75009
6663.82,0.76092
6640.67,0.75823
6617.53,0.76567
6594.38,0.76679
6571.24,0.77175
6548.09,0.77588
6524.95,0.77885
6501.8,0.78665
6478.66,0.79261
6455.51,0.79529
6432.37,0.80090
6409.22,0.79592
6386.08,0.79275
6362.93,0.78159
6339.79,0.77859
6316.64,0.77359
6293.5,0.75953
6270.35,0.75519
6247.21,0.73712
6224.06,0.71427
6200.92,0.68644
6177.77,0.64090
6154.63,0.55996
6131.48,0.48308
6108.34,0.43001
6085.19,0.42937
6062.05,0.45426
6038.9,0.44197
6015.76,0.32848
5992.61,0.24517
5969.47,0.19385
5946.32,0.18569
5923.18,0.20649
5900.03,0.22111
5876.89,0.26445
5853.74,0.29134
5830.6,0.29640
5807.45,0.29286
5784.31,0.30156
5761.16,0.35917
5738.02,0.39728
5714.87,0.36273
5691.73,0.33502
5668.58,0.31607
5645.44,0.34602
5622.29,0.37806
5599.15,0.37958
5576,0.37913
5552.86,0.38727
5529.71,0.38605
5506.57,0.39204
5483.42,0.40811
5460.28,0.41301
5437.13,0.41041
5413.99,0.40672
5390.84,0.40318
5367.7,0.40232
5344.55,0.41778
5321.41,0.42992
5298.26,0.43092
5275.12,0.43491
5251.97,0.43554
5228.83,0.43415
5205.68,0.44434
5182.54,0.44872
5159.39,0.45189
5136.25,0.44564
5113.1,0.44615
5089.96,0.45171
5066.81,0.45202
5043.67,0.45086
5020.52,0.45303
4997.38,0.44833
4974.23,0.44172
4951.09,0.44313
4927.94,0.44191
4904.8,0.44117
4881.65,0.43129
4858.51,0.42513
4835.36,0.41195
4812.22,0.41356
4789.07,0.40903
4765.93,0.37329
4742.78,0.36310
4719.64,0.31452
4696.49,0.26678
4673.35,0.14884
4650.2,0.15063
4627.06,0.13370
4603.92,0.12597
4580.77,0.16432
4557.63,0.18664
4534.48,0.23091
4511.34,0.23349
4488.19,0.24565
4465.05,0.26210
4441.9,0.24055
4418.76,0.22782
4395.61,0.19457
4372.47,0.15694
4349.32,0.12684
4326.18,0.11868
4303.03,0.13664
4279.89,0.12365
4256.74,0.10454
4233.6,0.10552
4210.45,0.10703
4187.31,0.11532
4164.16,0.12285
4141.02,0.12191
4117.87,0.11183
4094.73,0.10616
4071.58,0.08851
4048.44,0.08148
4025.29,0.08648
4002.15,0.10665
3979,0.11912
3955.86,0.12263
3932.71,0.12068
3909.57,0.12482
3886.42,0.12784
3863.28,0.12719
3840.13,0.12521
3816.99,0.11972
3793.84,0.12193
3770.7,0.12749
3747.55,0.13395
3724.41,0.12451
3701.26,0.11791
3678.12,0.11473
3654.97,0.10474
3631.83,0.11803
3608.68,0.13127
3585.54,0.13687
3562.39,0.14945
3539.25,0.14766
3516.1,0.14259
3492.96,0.13653
3469.81,0.12856
3446.67,0.12347
3423.52,0.13163
3400.38,0.13551
3377.23,0.13773
3354.09,0.14059
3330.94,0.13542
3307.8,0.11651
3284.65,0.11783
3261.51,0.11980
3238.36,0.11603
3215.22,0.10815
3192.07,0.09731
3168.93,0.08684
3145.78,0.08391
3122.64,0.07588
3099.49,0.06563
3076.35,0.06523
3053.2,0.06633
3030.06,0.06425
3006.91,0.06721
2983.77,0.06715
2960.62,0.06478
2937.48,0.06317
2914.33,0.06916
2891.19,0.06867
2868.04,0.06738
2844.9,0.06815
2821.75,0.06989
2798.61,0.07155
2775.46,0.07362
2752.32,0.07603
2729.17,0.07535
2706.03,0.07515
2682.88,0.07421
2659.74,0.07477
2636.59,0.07331
2613.45,0.07510
2590.3,0.07509
2567.16,0.07557
2544.02,0.07536
2520.87,0.07524
2497.73,0.07561
2474.58,0.07818
2451.44,0.08015
2428.29,0.08176
2405.15,0.08020
2382,0.07894
2358.86,0.07588
2335.71,0.07153
2312.57,0.07310
2289.42,0.07750
2266.28,0.07858
2243.13,0.07847
2219.99,0.08090
2196.84,0.08193
2173.7,0.08270
2150.55,0.08386
2127.41,0.08588
2104.26,0.08684
2081.12,0.08748
2057.97,0.08496
2034.83,0.08260
2011.68,0.07892
1988.54,0.07100
1965.39,0.06675
1942.25,0.06614
1919.1,0.06909
1895.96,0.06717
1872.81,0.06603
1849.67,0.06863
1826.52,0.06687
1803.38,0.06589
1780.23,0.06763
1757.09,0.06590
1733.94,0.06556
1710.8,0.06695
1687.65,0.06552
1664.51,0.06511
1641.36,0.06572
1618.22,0.06458
1595.07,0.06591
1571.93,0.06605
1548.78,0.06466
1525.64,0.06424
1502.49,0.06051
1479.35,0.06550
1456.2,0.05920
1433.06,0.06773
1409.91,0.06616
1386.77,0.06417
1363.62,0.06516
1340.48,0.06516
1317.33,0.06496
1294.19,0.06536
1271.04,0.06511
1247.9,0.06468
1224.75,0.06499
1201.61,0.06398
1178.46,0.06527
1155.32,0.06509
1132.17,0.06572
1109.03,0.06463
1085.88,0.06263
1062.74,0.06374
1039.59,0.06384
1016.45,0.06620
993.304,0.06470
970.159,0.06321
947.014,0.06373
923.869,0.06248
900.724,0.06363
877.579,0.06192
854.434,0.06108
831.289,0.06115
808.144,0.05893
784.999,0.05582
761.854,0.05573
738.709,0.06523
715.565,0.04980
692.42,0.11165
669.275,0.07497
646.13,0.06980
622.985,0.06743
599.84,0.06526

File: PlasticB_IS_S_220901_R7.dpt
7497.03,0.82489
7473.89,0.82378
7450.74,0.81720
7427.6,0.79986
7404.45,0.79433
7381.31,0.80082
7358.16,0.80082
7335.02,0.79723
7311.87,0.77742
7288.73,0.75738
7265.58,0.73897
7242.44,0.73257
7219.29,0.71494
7196.15,0.70490
7173,0.69250
7149.86,0.68923
7126.71,0.69045
7103.57,0.68644
7080.42,0.67157
7057.28,0.66663
7034.13,0.68348
7010.99,0.68701
6987.84,0.68546
6964.7,0.68627
6941.55,0.69826
6918.41,0.70248
6895.26,0.70601
6872.12,0.72189
6848.97,0.73080
6825.83,0.72829
6802.68,0.73417
6779.54,0.73866
6756.39,0.73530
6733.25,0.73897
6710.1,0.74758
6686.96,0.75118
6663.82,0.75825
6640.67,0.76595
6617.53,0.76620
6594.38,0.76671
6571.24,0.77692
6548.09,0.77529
6524.95,0.78323
6501.8,0.78949
6478.66,0.79140
6455.51,0.79747
6432.37,0.79501
6409.22,0.79484
6386.08,0.79300
6362.93,0.78186
6339.79,0.78128
6316.64,0.77332
6293.5,0.76184
6270.35,0.75752
6247.21,0.73590
6224.06,0.71418
6200.92,0.68785
6177.77,0.64269
6154.63,0.55654
6131.48,0.48754
6108.34,0.42681
6085.19,0.42938
6062.05,0.45349
6038.9,0.44173
6015.76,0.32965
5992.61,0.24644
5969.47,0.19500
5946.32,0.18943
5923.18,0.20633
5900.03,0.21891
5876.89,0.26522
5853.74,0.29330
5830.6,0.29655
5807.45,0.29747
5784.31,0.30671
5761.16,0.35532
5738.02,0.39880
5714.87,0.36217
5691.73,0.33413
5668.58,0.31633
5645.44,0.34547
5622.29,0.37551
5599.15,0.38052
5576,0.38214
5552.86,0.38865
5529.71,0.38495
5506.57,0.39031
5483.42,0.40874
5460.28,0.41483
5437.13,0.41027
5413.99,0.41067
5390.84,0.40291
5367.7,0.40384
5344.55,0.41796
5321.41,0.42892
5298.26,0.43147
5275.12,0.43712
5251.97,0.43555
5228.83,0.43414
5205.68,0.44381
5182.54,0.44889
5159.39,0.45055
5136.25,0.44545
5113.1,0.44648
5089.96,0.45181
5066.81,0.45248
5043.67,0.45051
5020.52,0.45473
4997.38,0.44874
4974.23,0.44119
4951.09,0.44433
4927.94,0.44156
4904.8,0.44209
4881.65,0.43265
4858.51,0.42591
4835.36,0.41249
4812.22,0.41431
4789.07,0.40907
4765.93,0.37232
4742.78,0.36232
4719.64,0.31540
4696.49,0.26753
4673.35,0.14878
4650.2,0.15046
4627.06,0.13279
4603.92,0.12679
4580.77,0.16449
4557.63,0.18672
4534.48,0.23228
4511.34,0.23352
4488.19,0.24590
4465.05,0.26033
4441.9,0.24075
4418.76,0.22781
4395.61,0.19484
4372.47,0.15751
4349.32,0.12725
4326.18,0.11894
4303.03,0.13697
4279.89,0.12364
4256.74,0.10392
4233.6,0.10528
4210.45,0.10725
4187.31,0.11548
4164.16,0.12275
4141.02,0.12239
4117.87,0.11237
4094.73,0.10605
4071.58,0.08893
4048.44,0.08181
4025.29,0.08714
4002.15,0.10690
3979,0.11862
3955.86,0.12281
3932.71,0.12088
3909.57,0.12467
3886.42,0.12750
3863.28,0.12877
3840.13,0.12579
3816.99,0.11967
3793.84,0.12303
3770.7,0.12848
3747.55,0.13286
3724.41,0.12553
3701.26,0.11844
3678.12,0.11644
3654.97,0.10483
3631.83,0.11781
3608.68,0.13120
3585.54,0.13896
3562.39,0.15073
3539.25,0.14753
3516.1,0.14214
3492.96,0.13681
3469.81,0.12905
3446.67,0.12350
3423.52,0.13141
3400.38,0.13584
3377.23,0.13746
3354.09,0.14161
3330.94,0.13419
3307.8,0.11660
3284.65,0.11769
3261.51,0.12061
3238.36,0.11535
3215.22,0.10736
3192.07,0.09735
3168.93,0.08664
3145.78,0.08444
3122.64,0.07651
3099.49,0.06654
3076.35,0.06552
3053.2,0.06547
3030.06,0.06359
3006.91,0.06700
2983.77,0.06737
2960.62,0.06551
2937.48,0.06314
2914.33,0.06825
2891.19,0.06807
2868.04,0.06764
2844.9,0.06868
2821.75,0.06996
2798.61,0.07176
2775.46,0.07360
2752.32,0.07638
2729.17,0.07518
2706.03,0.07472
2682.88,0.07433
2659.74,0.07481
2636.59,0.07339
2613.45,0.07472
2590.3,0.07542
2567.16,0.07606
2544.02,0.07527
2520.87,0.07561
2497.73,0.07573
2474.58,0.07810
2451.44,0.08019
2428.29,0.08179
2405.15,0.08009
2382,0.07871
2358.86,0.07560
2335.71,0.07153
2312.57,0.07333
2289.42,0.07753
2266.28,0.07892
2243.13,0.07892
2219.99,0.08083
2196.84,0.08237
2173.7,0.08282
2150.55,0.08404
2127.41,0.08628
2104.26,0.08708
2081.12,0.08773
2057.97,0.08521
2034.83,0.08264
2011.68,0.07869
1988.54,0.07151
1965.39,0.06672
1942.25,0.06615
1919.1,0.06908
1895.96,0.06735
1872.81,0.06621
1849.67,0.06909
1826.52,0.06702
1803.38,0.06560
1780.23,0.06718
1757.09,0.06564
1733.94,0.06619
1710.8,0.06740
1687.65,0.06535
1664.51,0.06490
1641.36,0.06503
1618.22,0.06450
1595.07,0.06609
1571.93,0.06599
1548.78,0.06430
1525.64,0.06393
1502.49,0.06065
1479.35,0.06551
1456.2,0.05969
1433.06,0.06771
1409.91,0.06593
1386.77,0.06443
1363.62,0.06503
1340.48,0.06529
1317.33,0.06493
1294.19,0.06512
1271.04,0.06535
1247.9,0.06512
1224.75,0.06505
1201.61,0.06435
1178.46,0.06479
1155.32,0.06458
1132.17,0.06565
1109.03,0.06462
1085.88,0.06323
1062.74,0.06404
1039.59,0.06381
1016.45,0.06628
993.304,0.06403
970.159,0.06284
947.014,0.06374
923.869,0.06267
900.724,0.06324
877.579,0.06258
854.434,0.06153
831.289,0.06122
808.144,0.05929
784.999,0.05508
761.854,0.05587
738.709,0.06602
715.565,0.04976
692.42,0.11263
669.275,0.07535
646.13,0.06993
622.985,0.06729
599.84,0.06697