Folder: fsri_materials_database/01_Data/Fiberglass_Insulation_R30_Paper_Faced/Cone

Note: README.md
# Materials and Products Database
### Repository of materials and products properties and fire test data to improve fire modeling and fire investigation.

This project was supported in part by Award No. 2019-DU-BX-0018, awarded by the National Institute of Justice, Office of Justice Programs, U.S. Department of Justice. The opinions, findings, and conclusions or recommendations expressed in this publication / program / exhibition are those of the author(s) and do not necessarily reflect those of the Department of Justice.

***
***

__Cite this database:__ "McKinnon, M., Weinschenk, C., Dow, N., DiDomizio, M., and Madrzykowski, D. Materials and Products Database (Version 1.0.0), Fire Safety Research Institute, UL Research Institutes. Columbia, MD 21045, 2023."

__Cite the Technical Reference Guide:__ "McKinnon, M., Weinschenk, C., and Madrzykowski, D. Materials and Products Database - Technical Reference Guide, Fire Safety Research Institute, UL Research Institutes. Columbia, MD 21045, 2023."

__Cite the User Guide:__ "McKinnon, M., and Weinschenk, C. Materials and Products Database - User Guide, Fire Safety Research Institute, UL Research Institutes. Columbia, MD 21045, 2023."

***
***

## Database Structure

## 01_Data/
Raw data generated from each apparatus are included here in plain-text format. The data is organized first by material, next by the short name of test apparatus used, and where applicable additional filtering by test settings.

### Test Apparatus and Data File Structure
- __Cone Calorimeter__ (Cone)
    + Data file structure includes the material, the short name for the apparatus, heat flux setting and scan/scalar, date of test, and replicate number. Scan is for the raw output data and scalar is for the initial conditions and high-level test parameters. 
        * Example: __MDF_Cone_HF25scalar_210323_R1__ stands for the first replicate of scalar data generated from a medium density fiber board test in cone calorimeter exposed to 25 kW/m<sup>2</sup> on March 23, 2021.
    + A _Cone_Notes.csv_ is generated for each material from the __plot_Cone_data.py__ script. For materials whose experiments deviated from typical behavior relevant pictures are included in the respective material directory.
- __Fourier Transform Infrared Spectrometer__ (FTIR)
    + The FTIR directory contains subdirectories for the Attenuated Total Reflectance method (ATR) and the Integrating Sphere (IS)
    + Data file structure for the ATR experiment files includes the material, the abbreviated name for the apparatus, date of test, and replicate number. 
        * Example: __MDF_ATR_210323_R5__ stands for the fifth replicate of data collected with the ATR accessory conducted on June 8, 2021.
    + Data file structure for the IS experiment files includes the material, the abbreviated name for the apparatus, the measurand, whether the test is a sample measurement or standard reference, date of test, and replicate number.
        * Example: __OSB_IS_REFLECT_MEAS_2

File: Fiberglass_Insulation_R30_Paper_Faced_HRRPUA_25.csv
Time after Ignition,Fiberglass_Insulation_R30_Paper_Faced_R1,Fiberglass_Insulation_R30_Paper_Faced_R2,Fiberglass_Insulation_R30_Paper_Faced_R3,Mean,Std. Dev.
0.0,56.7,40.1,11.0,35.9,23.1
0.25,61.8,47.5,20.1,43.1,21.2
0.5,70.9,53.3,27.9,50.7,21.6
0.75,79.0,61.1,34.4,58.2,22.4
1.0,88.6,68.6,41.0,66.1,23.9
1.25,94.6,74.4,45.6,71.5,24.7
1.5,104.1,82.0,56.5,80.9,23.8
1.75,110.3,87.4,64.2,87.3,23.0
2.0,116.3,91.1,74.2,93.9,21.2
2.25,121.2,96.6,83.6,100.5,19.1
2.5,128.0,100.4,88.8,105.7,20.2
2.75,133.1,103.9,94.4,110.4,20.2
3.0,137.5,108.3,100.7,115.5,19.4
3.25,142.4,111.6,107.7,120.5,19.0
3.5,145.4,112.0,111.0,122.8,19.6
3.75,148.9,113.2,115.3,125.8,20.0
4.0,152.2,114.0,120.9,129.0,20.4
4.25,148.8,113.0,124.0,128.6,18.3
4.5,147.6,112.2,124.7,128.2,18.0
4.75,143.6,108.8,128.8,127.1,17.5
5.0,141.2,107.7,131.6,126.8,17.2
5.25,139.7,106.3,134.0,126.6,17.9
5.5,132.6,105.0,138.3,125.3,17.8
5.75,128.0,102.1,137.3,122.5,18.2
6.0,124.5,99.6,133.7,119.3,17.6
6.25,120.7,98.6,132.8,117.3,17.4
6.5,116.3,95.5,133.0,114.9,18.8
6.75,110.4,93.9,131.1,111.8,18.6

File: Fiberglass_Insulation_R30_Paper_Faced_HRRPUA_50.csv
Time after Ignition,Fiberglass_Insulation_R30_Paper_Faced_R1,Fiberglass_Insulation_R30_Paper_Faced_R2,Fiberglass_Insulation_R30_Paper_Faced_R3,Mean,Std. Dev.
0.0,99.5,49.2,33.3,60.7,34.5
0.25,106.2,59.9,44.3,70.1,32.2
0.5,114.3,69.3,52.1,78.6,32.1
0.75,121.5,76.2,66.2,88.0,29.5
1.0,138.3,84.4,70.8,97.9,35.7
1.25,139.6,93.1,77.6,103.4,32.3
1.5,146.2,98.9,86.6,110.6,31.4
1.75,151.6,107.0,92.9,117.2,30.6
2.0,161.2,110.6,100.4,124.0,32.6
2.25,166.5,117.2,109.3,131.0,31.0
2.5,174.5,124.0,114.9,137.8,32.1
2.75,180.8,128.7,123.6,144.4,31.6
3.0,187.9,131.0,127.2,148.7,34.0
3.25,190.6,133.7,135.4,153.3,32.4
3.5,189.9,135.5,137.3,154.2,30.9
3.75,190.3,137.0,138.9,155.4,30.3
4.0,193.2,134.8,142.7,156.9,31.7
4.25,187.2,133.1,146.4,155.6,28.2
4.5,184.7,130.6,147.0,154.1,27.7
4.75,179.2,130.8,145.0,151.7,24.9
5.0,175.0,128.6,143.4,149.0,23.7
5.25,168.7,127.9,143.5,146.7,20.5
5.5,162.6,122.7,143.2,142.9,19.9
5.75,159.9,120.2,138.6,139.6,19.9
6.0,154.5,118.5,133.5,135.5,18.1
6.25,153.6,114.4,133.1,133.7,19.6
6.5,153.8,111.9,129.4,131.7,21.0
6.75,147.2,109.5,125.5,127.4,18.9
7.0,143.1,105.8,120.9,123.3,18.8
7.25,139.3,103.6,117.5,120.1,18.0
7.5,133.8,99.9,112.8,115.5,17.1
7.75,131.3,99.8,109.5,113.5,16.1
8.0,126.0,91.7,107.5,108.4,17.2
8.25,121.7,88.2,102.2,104.0,16.8
8.5,119.1,89.8,96.8,101.9,15.3
8.75,112.9,86.4,94.7,98.0,13.6
9.0,111.6,,91.0,101.3,14.5
9.25,108.3,,86.4,97.4,15.5
9.5,104.6,,82.6,93.6,15.6
9.75,100.1,,78.8,89.4,15.1
10.0,96.4,,,96.4,
10.25,93.5,,,93.5,
10.5,90.3,,,90.3,
10.75,87.4,,,87.4,
11.0,82.9,,,82.9,
11.25,80.5,,,80.5,
11.5,78.0,,,78.0,
11.75,75.7,,,75.7,

File: Fiberglass_Insulation_R30_Paper_Faced_HRRPUA_75.csv
Time after Ignition,Fiberglass_Insulation_R30_Paper_Faced_R1,Fiberglass_Insulation_R30_Paper_Faced_R2,Fiberglass_Insulation_R30_Paper_Faced_R3,Mean,Std. Dev.
0.0,20.0,55.9,93.9,56.6,36.9
0.25,37.0,67.6,102.8,69.1,32.9
0.5,49.0,79.4,110.5,79.6,30.7
0.75,59.9,91.5,122.5,91.3,31.3
1.0,69.0,100.6,133.5,101.1,32.3
1.25,76.5,103.0,143.2,107.6,33.6
1.5,89.2,111.4,156.3,119.0,34.2
1.75,97.0,119.3,167.1,127.8,35.9
2.0,106.6,128.1,179.1,137.9,37.3
2.25,112.6,132.8,190.4,145.3,40.4
2.5,119.0,139.9,192.9,150.6,38.1
2.75,126.3,142.9,199.5,156.2,38.4
3.0,132.1,143.9,200.4,158.8,36.5
3.25,135.9,141.5,205.8,161.0,38.8
3.5,138.1,143.1,204.9,162.0,37.2
3.75,138.6,144.5,201.7,161.6,34.8
4.0,136.8,139.1,200.7,158.9,36.2
4.25,138.0,135.5,198.4,157.3,35.6
4.5,137.2,131.3,192.5,153.7,33.7
4.75,133.7,128.6,185.8,149.4,31.6
5.0,129.0,127.8,180.0,145.6,29.8
5.25,130.8,125.9,176.1,144.3,27.7
5.5,128.1,121.2,169.6,139.6,26.2
5.75,125.0,118.7,163.8,135.8,24.4
6.0,122.0,115.3,157.0,131.4,22.4
6.25,117.9,111.2,152.2,127.1,22.0
6.5,115.1,109.8,147.8,124.2,20.6
6.75,114.0,103.8,139.1,119.0,18.2
7.0,108.3,102.4,134.7,115.2,17.2
7.25,106.0,97.5,129.6,111.0,16.6
7.5,104.0,,122.8,113.4,13.3
7.75,99.8,,120.0,109.9,14.3
8.0,97.2,,116.8,107.0,13.9
8.25,97.3,,110.5,103.9,9.4
8.5,91.6,,108.8,100.2,12.1
8.75,89.7,,104.7,97.2,10.5
9.0,88.8,,100.7,94.8,8.4
9.25,85.5,,98.7,92.1,9.4
9.5,82.5,,95.0,88.8,8.8
9.75,78.2,,93.7,86.0,11.0
10.0,76.7,,91.3,84.0,10.3
10.25,72.8,,86.4,79.6,9.6
10.5,70.5,,86.0,78.2,11.0
10.75,66.5,,82.8,74.6,11.5
11.0,64.8,,81.6,73.2,11.9
11.25,63.3,,80.1,71.7,11.8
11.5,60.9,,76.3,68.6,10.8
11.75,59.3,,75.3,67.3,11.3
12.0,56.9,,74.3,65.6,12.3
12.25,55.0,,71.3,63.2,11.6
12.5,53.6,,68.9,61.3,10.9
12.75,52.3,,68.1,60.2,11.1
13.0,48.9,,66.3,57.6,12.2
13.25,48.2,,64.5,56.4,11.5
13.5,46.9,,62.8,54.9,11.2
13.75,45.5,,61.0,53.2,10.9
14.0,44.2,,59.4,51.8,10.8
14.25,42.6,,58.4,50.5,11.1
14.5,42.2,,57.0,49.6,10.4
14.75,40.2,,55.6,47.9,10.9
15.0,39.9,,54.8,47.3,10.5
15.25,37.3,,52.8,45.1,10.9