Folder: fsri_materials_database/01_Data/Red_Accent_Chair/Furniture_Calorimeter (part 2)

File: Red_Accent_Chair_R3.csv
Time (s),Convective HRR,TCPlume1,TCPlume2,TCPlume3,DPPlume1,DPPlume2,DPPlume3,HF1,HF2,HF3,HF4,HF5,HF6,RAD2,RAD1,Load Cell,Heat Release Rate,Total Heat Released
-119,0.0,-7.00764,-6.84051,8.23116,0.0914678,0.0948441,-0.00670195,0.640542,-0.249218,-0.116329,-1.81143,0.0535646,0.0606093,0.779224,3.8402,20.4434,0.73985,0.0
-94,0.0,-6.65572,-6.91872,8.38419,-0.0452552,-0.0646548,-0.0598708,-0.161821,0.649477,0.697975,-0.949192,-0.321388,0.0606093,0.613177,1.92317,20.1319,0.0,0.0
-69,0.0,-7.80795,-6.81881,8.71145,0.0231063,0.0340826,-0.00670195,0.640542,0.649477,0.697975,-0.0869489,-0.321388,0.0606093,0.779224,4.79872,20.298,0.0,0.0
-44,0.0,-7.38303,-7.17666,7.78758,0.030702,-0.0418693,-0.0978485,-0.964185,-0.249218,-0.116329,-0.949192,0.0535646,0.0606093,0.447131,1.92317,20.4434,0.0,0.0
-19,0.0,-6.72962,-7.38396,8.23536,0.0686807,0.0340826,0.0160847,-0.964185,-1.14791,-0.116329,-0.0869489,0.428517,0.0606093,0.613177,3.8402,20.4641,6.59818,0.0
6,0.0,-7.40046,-7.27235,8.03839,-0.0680424,0.0340826,-0.0142975,-0.161821,0.649477,1.51228,-0.0869489,0.0535646,-0.0808124,0.779224,2.88169,20.4434,27.261,0.149243
31,0.0,-7.13814,-7.08832,7.95051,0.0155106,0.0188922,0.00848914,-0.161821,0.649477,-0.116329,0.775294,0.0535646,-0.0808124,0.613177,2.88169,20.2772,35.4795,0.905188
56,0.0,-7.2222,-7.21151,8.17439,0.0534892,0.185986,0.0160847,1.44291,0.649477,-0.116329,0.775294,0.0535646,-0.0808124,0.613177,3.8402,20.4641,38.4482,1.77194
81,0.0,-7.16137,-7.46378,8.1191,-0.0452552,-0.0646548,-0.0142975,0.640542,0.649477,0.697975,0.775294,0.0535646,0.0606093,0.779224,4.79872,20.4434,46.2139,2.85133
106,7.09074,-5.72147,-6.1792,8.64901,0.0458935,0.0796538,-0.0370841,0.640542,0.649477,-0.116329,-0.0869489,0.0535646,0.0606093,0.779224,3.8402,20.298,58.474,4.19311
131,12.2165,-5.07599,-5.49408,8.86148,0.000319148,1.08981,-0.0142975,0.640542,0.649477,0.697975,0.775294,0.428517,0.343453,0.779224,4.79872,20.0903,71.0124,5.96577
156,28.5142,-2.82768,-3.08833,10.1559,1.0941,0.163201,-0.0826574,2.24527,0.649477,-0.116329,1.63754,0.803469,0.202031,0.945271,5.75724,20.0696,187.97,8.71369
181,91.2844,10.66,9.79208,14.8841,2.47653,0.368271,0.266738,4.65236,1.54817,1.51228,2.49978,1.17842,0.767718,1.44341,6.71575,19.945,326.219,15.7632
206,150.278,24.9807,18.397,26.3325,0.433275,2.58607,1.93016,7.05945,3.34556,2.32658,3.36202,1.55337,1.33341,1.7755,9.5913,19.2804,505.674,25.887
231,213.636,29.6454,26.416,35.4939,2.04357,0.710054,0.72247,9.46654,3.34556,3.95519,3.36202,1.92833,1.05056,1.7755,11.5083,18.8236,439.637,36.3717
256,230.971,40.1608,42.2945,56.2714,1.96002,2.062,2.13524,12.676,6.04165,4.7695,4.22427,3.05318,1.89909,2.43969,15.3424,18.346,522.475,48.818
281,265.594,60.2336,65.8295,82.1452,1.10929,1.35565,2.68212,13.4784,5.14295,5.5838,2.49978,2.67823,2.18194,2.27365,13.4254,17.6192,541.737,61.6534
306,301.117,70.1828,79.5078,99.764,5.65154,5.82162,0.912359,15.8854,6.04165,6.39811,4.22427,3.42814,2.46478,2.93783,16.3009,16.9546,671.218,76.6512
331,451.032,98.3049,110.857,131.287,6.22122,1.59869,5.34816,27.1185,10.5351,12.0982,8.53548,6.42776,4.30326,4.5983,26.8446,15.7917,973.829,99.6273
356,560.777,121.365,148.994,183.401,6.19843,2.39619,3.37332,30.328,11.4338,11.2839,10.26,6.80271,4.30326,4.5983,29.7202,14.4627,1032.92,124.016
381,618.296,137.111,168.869,231.969,5.09705,5.87478,10.7258,35.9445,12.3325,12.0982,8.53548,7.55261,4.86895,5.09644,32.5957,13.1752,941.764,149.455
406,597.486,136.062,178.985,271.39,7.44413,9.323,7.74835,34.3398,9.63643,12.0982,11.1222,6.0528,3.45473,4.26621,28.7616,11.95,834.282,171.419
431,513.386,105.533,142.601,249.457,3.46397,8.5255,6.51787,23.9091,5.14295,8.02671,9.39772,3.80309,2.6062,2.93783,20.135,10.7871,478.769,188.264
456,336.98,69.5539,96.0333,200.709,2.79555,7.06723,6.95841,12.676,1.54817,3.14089,5.94875,1.92833,1.61625,2.1076,12.4669,10.3303,305.317,198.295
481,249.423,53.267,72.8665,166.887,3.64627,0.915125,2.10486,8.66418,1.54817,2.32658,2.49978,1.17842,0.90914,1.27736,9.5913,9.85264,211.694,205.075
506,220.522,39.5907,54.981,137.236,1.6334,2.03921,5.02155,5.45472,2.44687,1.51228,3.36202,0.428517,0.626296,1.27736,6.71575,9.52038,185.372,210.106
531,155.947,28.5369,41.4649,115.03,0.926997,2.25947,3.905,5.45472,1.54817,1.51228,3.36202,0.803469,0.626296,1.27736,5.75724,9.14659,186.202,214.864
556,151.954,25.746,33.8834,98.4726,0.463658,1.46198,3.35812,5.45472,-1.14791,0.697975,1.63754,1.17842,0.484875,1.27736,6.71575,9.00123,205.506,220.013
581,131.635,19.9319,29.3934,85.832,0.813062,0.0568682,0.403458,5.45472,1.54817,1.51228,2.49978,0.803469,0.767718,0.945271,5.75724,8.66897,201.353,225.143
606,136.377,18.8305,25.3965,75.4128,2.77276,0.641698,1.48962,5.45472,0.649477,2.32658,0.775294,1.17842,0.626296,1.11132,5.75724,8.33671,231.948,230.314
631,126.928,20.3058,26.7123,70.7498,0.463658,0.839173,0.980719,6.25709,1.54817,1.51228,1.63754,1.17842,0.626296,0.945271,6.71575,7.98369,212.896,235.388
656,123.115,18,22.3757,63.3462,0.820657,0.163201,0.517391,5.45472,-0.249218,2.32658,1.63754,0.803469,0.626296,0.945271,7.67427,7.83832,207.131,240.923
681,132.759,17.9564,22.8624,59.5907,2.1651,2.43416,0.289524,3.04763,-0.249218,2.32658,1.63754,0.803469,0.767718,1.11132,5.75724,7.6722,206.57,246.047
706,124.312,16.8322,20.2257,55.6298,0.828253,0.953101,0.965528,3.85,0.649477,1.51228,1.63754,0.0535646,0.343453,0.945271,5.75724,7.50607,189.373,250.878
731,110.472,17.4902,21.375,52.8001,1.67138,1.37843,3.34293,5.45472,-0.249218,1.51228,1.63754,0.803469,0.484875,0.945271,5.75724,7.17381,183.956,255.717
756,90.4372,13.1035,16.5826,47.8391,0.266169,0.0644634,0.43384,3.85,0.649477,1.51228,1.63754,0.803469,0.484875,1.11132,4.79872,7.04921,183.803,259.816
781,99.3565,16.4192,20.3072,46.616,0.972572,3.11013,1.46683,3.85,1.54817,1.51228,1.63754,0.428517,0.484875,0.779224,6.71575,6.82079,174.084,264.2
806,97.9741,14.0246,15.3316,41.122,-0.144,0.011297,0.350289,3.85,-1.14791,1.51228,0.775294,0.803469,0.626296,0.945271,3.8402,6.65466,191.019,268.251
831,97.8993,12.2965,13.8718,38.2396,0.37251,0.573341,0.0920401,3.04763,1.54817,0.697975,0.775294,0.428517,0.484875,1.11132,5.75724,6.50929,182.185,272.602
856,91.3602,11.2444,13.0878,38.2562,-0.0680424,1.45438,0.752853,3.04763,-1.14791,0.697975,0.775294,0.0535646,0.767718,1.27736,4.79872,6.36393,172.481,276.895
881,94.7787,13.2943,15.2878,39.0289,2.09674,0.467008,3.11507,3.04763,2.44687,3.14089,0.775294,1.17842,0.626296,0.945271,6.71575,6.1978,212.434,281.576
906,99.7079,14.667,16.9631,40.8185,0.0990636,1.37084,0.1604,3.04763,0.649477,1.51228,-0.0869489,0.428517,0.343453,0.945271,4.79872,5.49175,172.86,286.401
931,92.8994,12.7658,14.6456,38.064,0.395297,0.239153,1.04148,1.44291,1.54817,1.51228,1.63754,0.803469,0.202031,0.945271,3.8402,5.32563,129.443,290.421
956,82.0194,10.6714,13.4311,36.9113,1.67897,0.907529,3.66954,1.44291,1.54817,0.697975,-0.0869489,0.428517,0.343453,0.945271,2.88169,5.18026,182.661,294.244
981,85.115,15.8594,19.5593,39.6741,0.714317,0.603722,3.44168,3.85,0.649477,1.51228,-0.0869489,0.803469,0.343453,1.11132,3.8402,4.99337,171.304,298.661
1006,76.3584,11.8497,15.4458,39.3329,0.311744,0.0416778,-0.492817,3.04763,-1.14791,1.51228,1.63754,0.428517,0.202031,0.945271,4.79872,4.88954,162.891,302.985
1031,74.0408,9.75424,13.3548,37.4719,1.04853,0.92272,0.919955,2.24527,1.54817,-0.930634,-0.949192,0.428517,0.202031,0.779224,1.92317,4.88954,146.506,306.813
1056,75.9824,12.2696,15.6744,39.221,1.96761,1.67464,3.65435,2.24527,0.649477,1.51228,0.775294,0.428517,0.484875,0.779224,2.88169,4.70264,121.46,310.36
1081,70.3612,8.18659,10.4913,35.7144,-0.0452552,0.170796,0.000893594,1.44291,2.44687,0.697975,0.775294,0.0535646,0.202031,0.945271,4.79872,4.49498,109.254,313.173
1106,61.7343,6.50323,9.76521,33.3916,0.182617,0.801197,1.23897,2.24527,0.649477,1.51228,0.775294,0.803469,0.202031,0.945271,3.8402,4.51575,129.228,316.268
1131,58.8788,5.39331,7.12637,30.6878,0.030702,-0.0190837,-0.0370841,3.04763,0.649477,0.697975,0.775294,0.803469,0.343453,0.779224,3.8402,4.32885,146.488,319.697
1156,55.9103,2.40141,3.71398,27.5568,-0.0452552,0.0720586,0.130018,2.24527,1.54817,-0.116329,0.775294,0.428517,0.202031,0.613177,3.8402,4.32885,138.79,323.068
1181,51.9933,2.91051,3.68706,27.0776,0.144638,0.193582,0.205973,2.24527,-0.249218,0.697975,-0.949192,0.803469,0.0606093,0.779224,3.8402,4.20426,103.89,326.076
1206,49.1742,1.31803,4.50662,26.2626,0.364914,0.664483,1.64153,3.04763,1.54817,0.697975,0.775294,0.0535646,0.0606093,0.779224,4.79872,4.14196,116.974,328.61
1231,50.5981,3.59969,4.91219,25.8318,0.790274,0.74803,-0.0750619,2.24527,1.54817,0.697975,0.775294,0.428517,0.343453,0.779224,3.8402,4.03813,111.302,331.373
1256,42.9088,3.96549,4.89514,25.6261,1.61061,0.345485,0.464222,2.24527,0.649477,-0.116329,1.63754,0.428517,0.343453,0.779224,4.79872,4.01736,117.454,334.134
1281,49.8756,5.11399,7.07674,26.9853,2.26384,2.12276,2.00612,2.24527,1.54817,0.697975,2.49978,0.428517,0.202031,0.779224,3.8402,4.03813,87.087,336.929
1306,54.0744,2.15462,4.65407,24.7456,0.326935,0.239153,0.0388713,2.24527,0.649477,0.697975,0.775294,0.428517,0.202031,0.945271,4.79872,3.83047,88.0453,339.27
1331,41.0793,1.69519,3.69692,23.4971,0.228191,0.00370186,0.889572,2.24527,-0.249218,-0.116329,0.775294,0.0535646,-0.0808124,0.945271,2.88169,3.85123,80.5229,341.369
1356,38.7705,1.07127,2.99636,22.1602,0.0914678,0.277129,0.175591,2.24527,-0.249218,-0.116329,0.775294,0.0535646,0.202031,0.613177,3.8402,3.70587,95.9452,343.62
1381,35.5643,0.579299,1.96825,21.1041,0.31934,0.246748,0.190782,3.04763,-0.249218,0.697975,1.63754,0.0535646,0.202031,0.779224,3.8402,3.6851,98.5379,346.049
1406,37.302,2.45523,3.04033,21.2179,0.0610849,0.0948441,0.403458,2.24527,0.649477,0.697975,-0.949192,0.0535646,0.343453,0.779224,3.8402,3.66434,71.1107,348.053
1431,29.7502,-0.808353,1.00542,20.3016,0.31934,0.0872489,0.1604,0.640542,0.649477,1.51228,0.775294,0.428517,0.202031,0.945271,3.8402,3.6851,64.1371,349.542
1456,32.542,0.261702,0.578631,18.9666,0.410488,0.125225,0.0540624,1.44291,-1.14791,-0.116329,1.63754,0.803469,0.202031,0.945271,3.8402,3.66434,87.0392,351.343
1481,29.4237,0.294293,0.343267,18.6189,0.0155106,-0.0266789,-0.00670195,0.640542,-0.249218,-0.116329,-0.949192,0.428517,0.0606093,0.779224,3.8402,3.51897,0.0,352.218