Folder: fsri_materials_database/01_Data/Red_Accent_Chair/Furniture_Calorimeter

Note: README.md
# Materials and Products Database
### Repository of materials and products properties and fire test data to improve fire modeling and fire investigation.

This project was supported in part by Award No. 2019-DU-BX-0018, awarded by the National Institute of Justice, Office of Justice Programs, U.S. Department of Justice. The opinions, findings, and conclusions or recommendations expressed in this publication / program / exhibition are those of the author(s) and do not necessarily reflect those of the Department of Justice.

***
***

__Cite this database:__ "McKinnon, M., Weinschenk, C., Dow, N., DiDomizio, M., and Madrzykowski, D. Materials and Products Database (Version 1.0.0), Fire Safety Research Institute, UL Research Institutes. Columbia, MD 21045, 2023."

__Cite the Technical Reference Guide:__ "McKinnon, M., Weinschenk, C., and Madrzykowski, D. Materials and Products Database - Technical Reference Guide, Fire Safety Research Institute, UL Research Institutes. Columbia, MD 21045, 2023."

__Cite the User Guide:__ "McKinnon, M., and Weinschenk, C. Materials and Products Database - User Guide, Fire Safety Research Institute, UL Research Institutes. Columbia, MD 21045, 2023."

***
***

## Database Structure

## 01_Data/
Raw data generated from each apparatus are included here in plain-text format. The data is organized first by material, next by the short name of test apparatus used, and where applicable additional filtering by test settings.

### Test Apparatus and Data File Structure
- __Cone Calorimeter__ (Cone)
    + Data file structure includes the material, the short name for the apparatus, heat flux setting and scan/scalar, date of test, and replicate number. Scan is for the raw output data and scalar is for the initial conditions and high-level test parameters. 
        * Example: __MDF_Cone_HF25scalar_210323_R1__ stands for the first replicate of scalar data generated from a medium density fiber board test in cone calorimeter exposed to 25 kW/m<sup>2</sup> on March 23, 2021.
    + A _Cone_Notes.csv_ is generated for each material from the __plot_Cone_data.py__ script. For materials whose experiments deviated from typical behavior relevant pictures are included in the respective material directory.
- __Fourier Transform Infrared Spectrometer__ (FTIR)
    + The FTIR directory contains subdirectories for the Attenuated Total Reflectance method (ATR) and the Integrating Sphere (IS)
    + Data file structure for the ATR experiment files includes the material, the abbreviated name for the apparatus, date of test, and replicate number. 
        * Example: __MDF_ATR_210323_R5__ stands for the fifth replicate of data collected with the ATR accessory conducted on June 8, 2021.
    + Data file structure for the IS experiment files includes the material, the abbreviated name for the apparatus, the measurand, whether the test is a sample measurement or standard reference, date of test, and replicate number.
        * Example: __OSB_IS_REFLECT_MEAS_2

File: Red_Accent_Chair_R1.csv
Time (s),Convective HRR,TCPlume1,TCPlume2,TCPlume3,DPPlume1,DPPlume2,DPPlume3,HF1,HF2,HF3,HF4,HF5,HF6,RAD2,RAD1,Load Cell,Heat Release Rate,Total Heat Released
-120,0.0,-9.24685,-8.21615,9.25829,0.0365105,0.0781858,-0.0421266,1.35525,0.792967,-0.0752718,0.0797031,-0.642776,-0.028522,0.613177,3.8402,20.1111,0.0,0.0
-95,2.12838,-8.37889,-8.40748,8.95693,-0.0242553,0.00223388,-0.0573176,0.552889,0.792967,-0.0752718,0.0797031,0.482082,-0.028522,0.613177,2.88169,20.1111,0.0,0.0
-70,0.0,-8.35693,-8.42474,8.9401,-0.00146808,0.0705906,-0.0117444,0.552889,0.792967,1.55334,0.941946,-0.267823,-0.311366,0.945271,3.8402,20.0903,0.0,0.0
-45,0.0,-8.6822,-8.35782,8.62288,-0.0090638,-0.111694,0.0338289,-0.249474,-0.105729,0.739033,0.0797031,-0.267823,0.1129,0.447131,2.88169,20.2565,0.0,0.0
-20,0.0,-7.96029,-8.2632,8.56218,-0.0622339,0.0174243,-0.0876998,0.552889,-1.00442,-0.889576,-0.78254,0.107129,0.1129,0.613177,3.8402,20.1111,0.0,0.0
5,0.14185,-8.84597,-7.93347,8.65449,0.0365105,0.00982907,-0.0876998,-0.249474,0.792967,0.739033,0.0797031,-0.267823,-0.169944,0.613177,2.88169,20.298,0.0,0.0
30,0.0,-7.72056,-8.10172,8.56676,0.0365105,0.0250194,0.0414244,-1.05184,-1.00442,-0.889576,-0.78254,-0.267823,0.254322,0.281084,3.8402,20.3188,0.0,0.0
55,0.0,-9.31236,-7.96798,9.34751,0.0213191,-0.0813132,-0.0269355,-0.249474,-0.105729,-0.0752718,-0.78254,0.482082,-0.169944,0.779224,2.88169,20.0903,0.0,0.0
80,0.0,-7.99011,-7.54861,9.14507,0.0972763,0.100971,0.0262334,0.552889,0.792967,0.739033,0.0797031,0.107129,-0.028522,0.779224,3.8402,19.9657,4.12484,0.0171226
105,9.65562,-7.0677,-7.48755,9.05174,-0.0166595,-0.0585276,-0.0193399,1.35525,0.792967,-0.0752718,0.0797031,0.482082,0.1129,0.945271,3.8402,20.0903,9.13012,0.12901
130,21.8339,-1.6457,-4.50453,9.90879,0.674551,0.222494,-0.0269355,2.15762,0.792967,-0.0752718,1.80419,0.857034,0.254322,0.779224,4.79872,20.1734,87.412,1.35985
155,47.8265,-1.70701,-3.24501,11.4532,0.104872,0.427564,0.155358,2.15762,-0.105729,-0.889576,0.0797031,0.107129,0.254322,1.11132,3.8402,19.9657,229.358,4.75117
180,139.953,15.4602,9.70859,22.5163,0.355531,-0.0661228,0.550326,5.36707,2.59036,3.18195,2.66643,1.23199,1.24427,1.60946,8.63279,19.405,366.683,12.8709
205,200.341,27.1093,25.2331,38.2104,2.23927,0.951633,4.40127,8.57652,4.38775,3.99625,2.66643,2.35684,1.3857,2.1076,11.5083,18.969,458.15,23.0677
230,257.138,51.0876,56.8907,60.8549,4.86739,4.04287,1.97829,12.5883,5.28644,4.81055,4.39092,3.4817,2.37565,2.60574,15.3424,18.3044,739.888,37.7897
255,433.563,90.9985,97.0846,92.4083,3.88754,3.23778,4.07466,22.2167,9.77992,8.88208,6.97765,5.73142,4.21413,4.26621,23.9691,17.4738,1224.35,61.6664
280,657.057,124.257,151.283,174.977,8.08798,4.52897,10.2878,35.0545,14.2734,14.5822,12.1511,9.10599,6.19404,6.09272,32.5957,15.9579,1223.92,92.727
305,691.329,151.121,191.758,253.041,3.05201,2.70612,14.8224,36.6592,12.476,13.7679,11.2889,8.73103,5.76977,5.59458,35.4713,14.3381,1242.31,122.658
330,704.86,169.08,238.949,352.578,1.51008,9.72408,8.36614,42.2758,15.1721,13.7679,12.1511,8.73103,6.05261,6.09272,39.3053,12.9676,925.657,148.588
355,560.764,141.937,203.214,340.808,6.0903,2.93398,5.35071,38.264,9.77992,12.9536,12.1511,6.10637,4.35555,4.5983,33.5542,11.5139,673.637,168.425
380,446.053,110.194,153.954,290.354,4.18378,6.51131,5.22159,21.4143,4.38775,6.43916,8.70213,3.4817,2.51707,2.43969,20.135,10.974,337.105,181.254
405,335.04,71.364,101.431,225.411,2.35321,1.40734,4.10504,10.9836,3.48905,3.18195,4.39092,1.98189,1.24427,1.60946,8.63279,10.4756,189.069,187.933
430,211.325,45.4318,67.8868,177.654,0.841657,4.52137,3.42144,7.77416,3.48905,2.36764,2.66643,1.23199,0.96143,1.11132,7.67427,10.1434,106.759,191.617
455,167.829,33.1301,51.0766,146.421,1.88227,2.7441,2.11501,6.9718,2.59036,3.18195,1.80419,0.857034,0.678587,1.27736,6.71575,9.8734,121.511,194.496
480,148.958,27.635,42.0627,121.742,1.6544,0.928847,2.73025,5.36707,2.59036,2.36764,0.941946,1.23199,0.820009,1.27736,6.71575,9.64498,133.02,197.887
505,145.043,19.961,31.8657,102.356,1.73036,0.154138,0.740215,5.36707,-0.105729,1.55334,0.941946,0.857034,0.537165,1.27736,5.75724,9.31272,153.446,201.535
530,136.418,19.234,29.0026,90.5206,1.13789,2.46308,1.55294,5.36707,1.69166,0.739033,2.66643,0.857034,0.678587,0.945271,7.67427,9.04276,130.246,204.857
555,127.566,19.4563,27.4523,80.2341,0.340339,2.03015,1.87955,5.36707,1.69166,1.55334,1.80419,0.857034,0.678587,0.945271,5.75724,8.8351,121.941,207.907
580,149.285,20.8605,29.1853,76.7132,3.11278,6.04041,3.91515,5.36707,0.792967,2.36764,2.66643,0.857034,0.395743,1.11132,7.67427,8.50284,113.504,210.977
605,136.263,19.5702,25.4143,69.7451,0.158042,0.936442,2.2973,5.36707,0.792967,1.55334,0.941946,1.23199,0.678587,0.945271,5.75724,8.33671,137.706,214.026
630,131.873,19.8304,24.8419,64.7113,1.96582,1.0048,1.05923,3.76234,1.69166,0.739033,1.80419,0.857034,0.678587,1.11132,5.75724,8.00445,136.814,217.397
655,127.173,14.733,18.7021,57.3936,2.28484,2.82764,0.368033,6.16943,0.792967,1.55334,1.80419,0.482082,0.820009,1.11132,5.75724,7.69296,140.749,220.713
680,118.416,12.7555,16.9965,52.2727,0.910019,0.807324,0.147762,4.56471,2.59036,2.36764,0.0797031,0.857034,0.537165,0.945271,6.71575,7.65143,123.869,223.896
705,113.381,12.6949,16.7839,49.6634,0.530233,2.15927,0.345246,3.76234,0.792967,2.36764,1.80419,0.482082,0.537165,0.945271,4.79872,7.31917,121.144,227.038
730,116.266,12.6736,16.2678,47.9028,2.05697,2.12889,2.76823,2.95998,-0.105729,0.739033,1.80419,0.857034,0.678587,1.27736,6.71575,7.23611,111.902,230.107
755,105.777,12.2099,13.8616,44.7078,0.188425,1.36177,0.299673,3.76234,-0.105729,0.739033,0.941946,0.482082,0.395743,0.779224,5.75724,7.17381,72.3711,232.37
780,89.754,8.91296,12.2861,41.462,1.59363,0.43516,0.732619,3.76234,2.59036,2.36764,0.941946,-0.267823,0.395743,0.945271,4.79872,7.04921,96.4977,234.468
805,103.558,11.0644,12.679,39.4234,1.91265,1.33899,2.8062,2.95998,1.69166,1.55334,1.80419,0.482082,0.395743,0.779224,5.75724,6.67542,85.5293,236.897
830,85.0385,12.989,17.6097,42.5675,3.37863,0.989608,1.64408,3.76234,0.792967,-0.0752718,2.66643,0.857034,0.537165,0.779224,3.8402,6.50929,133.326,240.022
855,117.858,13.5612,15.6305,41.5627,0.644168,0.0250194,0.155358,4.56471,-0.105729,-0.0752718,0.0797031,0.857034,0.537165,1.27736,5.75724,6.36393,164.719,244.058
880,120.258,13.7575,16.7402,39.2577,1.57085,0.951633,0.102189,5.36707,1.69166,0.739033,1.80419,0.482082,0.678587,1.11132,8.63279,6.01091,155.067,248.419
905,113.181,8.51371,9.51873,35.0608,0.127659,-0.0585276,0.0718066,2.15762,0.792967,1.55334,0.941946,0.482082,0.537165,1.27736,7.67427,5.82401,154.616,252.206
930,98.4834,8.39898,9.93919,35.5849,0.104872,0.237685,1.72004,2.95998,2.59036,1.55334,0.941946,0.857034,0.678587,1.11132,5.75724,5.72018,143.723,255.625
955,93.4547,10.4902,12.945,35.761,0.309957,0.625039,0.39082,2.95998,1.69166,0.739033,0.941946,0.857034,0.395743,1.11132,5.75724,5.67865,127.558,258.881
980,105.187,6.96108,9.99316,34.0647,0.180829,-0.0129565,0.276886,2.95998,0.792967,1.55334,-0.78254,0.857034,0.395743,0.945271,5.75724,5.36716,123.236,261.829
1005,88.0238,6.80803,9.99316,34.1022,0.788487,0.146542,3.39866,2.15762,0.792967,1.55334,0.0797031,0.482082,0.395743,0.779224,3.8402,5.34639,109.333,264.717
1030,75.1578,8.33262,11.6685,35.4826,0.385914,0.161733,0.823766,2.15762,0.792967,-0.0752718,1.80419,0.857034,0.254322,0.779224,5.75724,5.01413,114.216,267.568
1055,73.9272,5.96048,8.61122,32.5589,0.583403,1.52127,0.216122,2.95998,0.792967,0.739033,1.80419,0.482082,0.254322,0.945271,5.75724,5.01413,127.204,270.344
1080,70.6564,5.18369,7.72025,32.4353,0.158042,2.00736,1.67447,1.35525,-0.105729,1.55334,0.941946,0.107129,0.395743,0.779224,3.8402,4.86877,107.786,272.913
1105,66.727,3.64109,5.4512,30.4704,0.104872,0.0933762,0.231313,1.35525,0.792967,1.55334,-0.78254,0.482082,0.254322,1.11132,5.75724,4.84801,122.686,275.624
1130,67.4586,3.18165,4.03472,28.2869,-0.00146808,-0.0205517,-0.0497221,1.35525,0.792967,0.739033,1.80419,0.482082,0.254322,0.613177,3.8402,4.72341,98.3302,278.289
1155,59.4348,3.46543,6.07938,29.9216,1.25183,0.913657,0.436393,2.15762,-0.105729,-0.0752718,-0.78254,0.482082,0.1129,0.779224,4.79872,4.70264,89.8375,280.696
1180,54.1118,1.27745,2.55162,26.5996,0.0668934,-0.00536131,0.0945933,2.15762,-0.105729,0.739033,0.0797031,0.107129,0.254322,0.945271,4.79872,4.55728,83.1839,282.699
1205,53.2634,0.550103,2.16873,25.8067,0.203616,0.0250194,0.292077,1.35525,0.792967,0.739033,0.941946,-0.267823,0.395743,0.779224,3.8402,4.51575,79.2862,284.819
1230,46.0415,-1.08593,2.52909,25.9356,0.0365105,-0.0433373,0.519944,-0.249474,0.792967,0.739033,0.941946,0.107129,0.254322,0.779224,2.88169,4.51575,68.8696,286.798
1255,36.3218,0.412748,1.45704,24.8397,0.241595,0.0174243,0.11738,1.35525,0.792967,0.739033,0.941946,0.107129,-0.028522,0.779224,3.8402,4.49498,77.6769,288.523
1280,39.9043,-0.310139,0.92669,23.4833,0.515041,0.306041,0.223718,2.15762,-0.105729,-0.0752718,-1.64478,0.107129,0.395743,0.613177,4.79872,4.32885,80.4739,290.423
1305,36.8841,-1.35594,0.00234967,22.9856,0.173234,0.154138,0.398415,1.35525,0.792967,0.739033,-0.78254,0.482082,0.1129,0.945271,3.8402,4.16272,70.1431,292.206
1330,34.9242,-1.95804,1.58766,23.0011,0.287169,1.0048,0.276886,2.15762,0.792967,-0.0752718,1.80419,0.857034,0.1129,0.613177,3.8402,4.20426,72.3671,294.034
1355,35.8736,-0.421009,0.471809,21.7831,0.218808,0.65542,0.246504,0.552889,-0.105729,0.739033,0.0797031,0.857034,-0.028522,0.779224,4.79872,4.20426,66.2378,295.876
1380,33.1658,-2.1514,-0.943729,20.8025,-0.00146808,0.0326146,-0.034531,0.552889,0.792967,-0.0752718,0.0797031,0.107129,0.537165,0.613177,4.79872,4.20426,62.314,297.484
1405,32.8061,-2.71046,-1.57802,19.229,-0.0090638,-0.111694,0.990868,2.15762,0.792967,1.55334,0.0797031,-0.267823,0.1129,0.447131,3.8402,4.18349,69.4896,299.11
1430,30.9644,-2.7549,-2.31824,18.9574,-0.0774253,0.00982907,0.147762,1.35525,1.69166,-0.0752718,0.0797031,-0.267823,0.254322,0.779224,2.88169,4.16272,79.3637,300.837
1455,34.6465,-3.10949,-2.40135,18.6098,0.0592977,0.0933762,0.178144,0.552889,0.792967,-0.0752718,0.941946,0.482082,0.254322,0.613177,4.79872,4.03813,73.2853,302.52
1480,31.3254,-3.31488,-2.60635,18.1804,0.0896806,-0.0281469,0.0110423,0.552889,-0.105729,-0.0752718,1.80419,0.482082,0.537165,0.613177,4.79872,4.01736,0.0,303.554
1486,29.6154,-3.3925,-2.60635,18.0663,0.0896806,0.26047,0.140167,2.95998,0.792967,0.739033,0.0797031,0.482082,0.395743,0.613177,4.79872,4.03813,0.0,303.554

File: Red_Accent_Chair_R2.csv
Time (s),Convective HRR,TCPlume1,TCPlume2,TCPlume3,DPPlume1,DPPlume2,DPPlume3,HF1,HF2,HF3,HF4,HF5,HF6,RAD2,RAD1,Load Cell,Heat Release Rate,Total Heat Released
-150,0.0,-7.49498,-7.48431,8.8257,0.0635696,0.0461828,-0.0188104,0.516959,-2.04468,0.710467,-0.0462949,-0.666862,0.0569484,0.281084,1.92317,19.945,0.0,0.0
-125,0.0,-7.59064,-7.54082,8.34971,-0.0351748,-0.0525546,0.00397619,-0.285404,-0.247292,-0.103837,-0.908538,-0.291909,0.0569484,1.11132,2.88169,19.945,0.0,0.0
-100,0.0,-7.28904,-7.6307,8.79745,0.025591,0.00820688,0.0875272,1.31932,-0.247292,-0.103837,0.815948,0.0830431,-0.0844734,0.779224,3.8402,19.945,0.0,0.0
-75,0.0,-8.12887,-7.64807,8.43622,0.0711653,-0.067745,-0.026406,-0.285404,-1.14599,-0.103837,-0.0462949,-0.291909,-0.0844734,0.779224,2.88169,19.8204,0.0,0.0
-50,0.0,-8.09547,-7.8497,8.66009,0.00280379,-0.0069835,0.0419539,-0.285404,-0.247292,-0.103837,-0.908538,-0.666862,0.19837,0.779224,2.88169,19.9657,0.0,0.0
-25,0.0,-8.49911,-7.97882,8.64878,-0.0199834,0.0385876,0.00397619,-0.285404,-1.14599,-0.103837,-0.908538,0.0830431,-0.0844734,0.945271,1.92317,19.945,0.0,0.0
0,0.0,-8.19703,-7.52037,8.48446,0.0103995,-0.0753402,0.0343584,-1.89013,0.651403,-0.103837,-0.908538,-0.291909,-0.0844734,0.447131,2.88169,19.7996,0.0,0.0
25,0.0,-7.88932,-7.56532,8.36404,-0.0351748,-0.0145787,-0.0415971,0.516959,-1.14599,-0.103837,-0.908538,0.0830431,0.19837,0.613177,2.88169,19.8204,0.0,0.0
50,0.0,-7.74421,-7.89024,8.73527,-0.0123877,-0.0145787,0.0343584,-0.285404,0.651403,-0.103837,-0.0462949,-0.666862,0.0569484,0.613177,1.92317,19.8204,0.0,0.0
75,0.67786,-7.98506,-7.38693,8.95912,0.147123,0.312014,0.0115717,-0.285404,1.5501,0.710467,1.67819,-0.291909,-0.0844734,0.447131,3.8402,19.945,8.17203,0.0198273
100,9.24988,-7.24684,-7.39272,8.87697,0.154718,0.0158021,-0.0188104,2.12169,-0.247292,-0.918142,-0.0462949,0.832948,0.0569484,0.945271,3.8402,19.9657,43.1769,0.677977
125,16.3461,-3.83217,-5.61244,9.43367,0.0331867,0.0765636,0.0419539,0.516959,1.5501,0.710467,-0.0462949,-0.291909,0.0569484,0.613177,4.79872,19.7788,103.238,2.06116
150,82.5359,-2.76293,-4.53869,10.2196,0.0331867,0.927225,0.520473,0.516959,-0.247292,-0.103837,-0.0462949,0.457996,0.0569484,0.779224,4.79872,19.6335,260.558,7.19094
175,169.016,5.55109,-0.667827,11.3919,3.20564,2.0978,-0.0218881,3.05443,3.11599,1.56322,0.177249,0.48248,0.653267,1.11741,4.60529,19.5334,415.53,15.8065
200,227.045,26.2204,19.8716,21.52,2.53978,4.30708,1.88008,5.33114,2.44879,3.15338,1.67819,1.95781,0.905479,1.44341,8.63279,19.322,652.757,27.5091
225,410.812,32.2748,36.6313,41.3165,0.268654,0.691774,0.452113,9.34296,4.24618,3.96768,3.40268,2.33276,1.47117,2.27365,12.4669,18.6367,897.998,46.8326
250,546.554,68.0286,70.9751,63.9218,0.997844,5.34003,2.49532,14.9595,6.94227,8.03921,5.12716,4.20752,3.30965,3.60202,17.2594,17.8061,1231.73,73.2995
275,726.872,90.4999,100.937,98.9086,7.78082,3.88935,1.10533,24.5879,11.4357,10.4821,8.57613,6.83219,4.86529,5.09644,24.9276,16.477,1443.27,105.478
300,731.735,120.069,138.687,157.484,6.96808,6.6464,4.0524,33.4139,13.2331,13.7393,11.1629,7.95704,5.71382,6.09272,32.5957,14.8157,1015.69,134.87
325,650.493,173.249,219.892,286.264,3.70192,8.57558,4.36382,38.228,13.2331,15.3679,12.0251,7.95704,5.5724,5.76063,37.3883,13.2998,766.473,157.919
350,528.698,171.576,228.389,357.909,9.05691,6.1831,7.06783,39.0304,14.1318,13.7393,11.1629,7.58209,5.14813,5.42853,36.4298,12.1577,502.883,175.033
375,454.953,125.936,168.504,300.618,4.01335,4.02606,4.78157,33.4139,8.73966,10.4821,11.1629,6.08228,3.87534,4.43225,29.7202,11.1817,300.319,185.507
400,276.484,92.6013,127.717,254.685,3.80826,1.89941,11.7847,16.5642,4.24618,7.2249,6.85165,3.08266,2.17827,2.27365,15.3424,10.3303,202.672,191.883
425,198.743,63.2774,89.1899,203.835,3.5576,6.25905,4.44737,11.75,3.34749,3.15338,4.26492,1.95781,1.0469,1.60946,13.4254,9.83187,190.39,196.722
450,179.502,42.6963,64.2661,165.842,2.28912,1.35256,4.96387,8.54059,3.34749,3.15338,2.54043,1.58285,1.18832,1.27736,8.63279,9.47885,171.383,201.711
475,174.455,32.682,47.1936,137.623,0.671227,3.05388,1.53828,6.93587,1.5501,2.33908,1.67819,1.58285,0.622635,1.27736,8.63279,9.14659,201.39,206.048
500,128.741,29.3432,40.3259,117.316,0.967461,0.577846,1.65221,6.93587,0.651403,1.52477,2.54043,0.832948,0.481214,1.11132,6.71575,8.8351,167.522,210.117
525,148.945,23.537,33.3047,101.077,0.0635696,0.995582,1.50789,5.33114,1.5501,1.52477,1.67819,1.2079,0.764057,1.27736,7.67427,8.6482,141.882,214.383
550,138.812,20.8906,28.7257,88.8905,3.7399,1.29939,1.84969,5.33114,1.5501,1.52477,2.54043,0.457996,0.622635,0.945271,7.67427,8.33671,133.026,217.857
575,145.708,24.3047,30.8381,80.6357,0.716802,2.42348,1.72057,4.52878,2.44879,2.33908,0.815948,0.832948,0.622635,1.11132,5.75724,7.98369,165.861,221.695
600,123.754,22.3857,27.6121,73.3118,1.10418,0.14492,0.839486,4.52878,0.651403,1.52477,2.54043,0.457996,0.764057,0.945271,6.71575,7.85909,139.994,225.305
625,120.341,23.9643,28.3923,68.0554,1.12697,0.053778,1.69019,3.72641,1.5501,3.15338,1.67819,0.832948,0.622635,1.11132,6.71575,7.50607,115.358,228.518
650,105.385,17.1522,21.8342,61.8653,0.245867,2.226,0.125505,5.33114,1.5501,2.33908,0.815948,0.457996,0.481214,1.27736,6.71575,7.3607,96.5986,231.24
675,101.497,15.7001,20.2357,56.1922,0.420569,0.858868,1.94844,5.33114,0.651403,3.15338,-0.0462949,0.832948,0.481214,0.945271,5.75724,7.17381,129.091,233.593
700,104.052,15.7932,19.6072,51.3745,0.633249,1.31458,1.01418,3.72641,0.651403,1.52477,0.815948,0.832948,0.339792,0.945271,5.75724,7.02845,85.0732,236.083
725,91.2864,16.4841,19.6508,49.3461,1.24091,0.517085,0.961015,5.33114,0.651403,0.710467,0.815948,0.832948,0.622635,1.11132,7.67427,6.67542,89.8876,238.653
750,84.4971,8.6173,12.5635,42.9978,1.66627,0.638608,1.31801,2.12169,1.5501,1.52477,0.815948,0.0830431,0.481214,1.11132,4.79872,6.15627,119.128,241.323
775,111.03,10.605,13.7081,41.2861,1.23331,0.691774,0.877464,2.92405,0.651403,-0.103837,-0.0462949,0.457996,0.339792,0.945271,4.79872,6.03167,99.7804,244.299
800,81.077,10.8398,14.0951,40.8074,0.230675,0.866463,0.292607,3.72641,1.5501,-0.103837,-0.0462949,-0.291909,0.339792,1.11132,4.79872,5.0349,75.8082,246.319
825,84.0975,14.5034,18.2071,44.3783,0.473739,0.927225,0.801508,2.92405,1.5501,0.710467,-0.0462949,0.457996,0.339792,1.11132,6.71575,4.88954,93.3681,248.319
850,85.1586,15.6902,20.9087,46.0542,0.64844,1.19306,1.69778,2.92405,0.651403,1.52477,0.815948,0.457996,0.339792,0.945271,3.8402,5.32563,99.6139,250.89
875,79.619,14.204,19.9601,45.0893,0.147123,0.433537,0.885059,2.12169,1.5501,1.52477,1.67819,0.0830431,0.339792,0.945271,4.79872,5.32563,104.335,253.309
900,72.3582,7.51939,11.964,39.2845,0.245867,0.858868,0.831891,1.31932,-1.14599,-0.103837,0.815948,1.2079,0.0569484,0.945271,3.8402,5.18026,87.5659,255.704
925,70.0173,8.55212,12.4985,38.2769,1.81059,0.965201,0.307798,2.92405,-1.14599,-0.103837,-0.0462949,0.0830431,0.481214,0.779224,4.79872,5.05567,89.7457,258.083
950,69.8522,8.29007,11.0149,37.5728,0.633249,1.48927,0.20146,2.92405,1.5501,-0.103837,0.815948,0.0830431,0.0569484,0.779224,3.8402,4.70264,65.1493,259.998
975,68.8126,7.91324,9.60669,36.1951,0.147123,0.152515,0.285011,2.12169,0.651403,0.710467,1.67819,0.0830431,0.339792,0.945271,4.79872,4.70264,84.1613,261.791
1000,54.3676,3.05236,6.0875,32.3353,-0.0351748,0.00820688,0.117909,0.516959,0.651403,0.710467,0.815948,0.0830431,0.0569484,1.27736,2.88169,4.47422,81.3178,263.911
1025,51.4156,3.2438,6.27886,31.0957,0.0407824,0.236063,0.505282,2.12169,0.651403,-0.103837,-0.0462949,-0.291909,0.19837,0.779224,3.8402,4.49498,60.8355,265.768
1050,44.5288,3.51181,6.39367,30.8701,0.38259,0.555061,0.368562,2.12169,0.651403,0.710467,-0.0462949,0.0830431,0.19837,0.779224,4.79872,4.32885,36.0053,267.01
1075,42.14,3.23814,4.7038,29.1338,0.0483781,-0.0221739,0.0647406,2.12169,0.651403,-0.103837,-0.908538,0.457996,0.19837,0.447131,4.79872,4.34962,39.9422,267.878
1100,37.9673,1.36209,2.71287,26.8343,0.0939525,0.053778,0.0799316,2.12169,0.651403,-0.103837,0.815948,0.457996,0.19837,0.779224,3.8402,4.16272,44.689,269.031
1125,31.0301,0.673008,1.79395,25.1726,0.268654,0.798107,0.376158,2.12169,1.5501,-0.103837,1.67819,0.832948,0.19837,0.613177,4.79872,4.18349,61.4,270.525
1150,34.255,0.0166318,1.214,23.919,-0.0959406,0.106944,0.057145,1.31932,0.651403,0.710467,0.815948,0.0830431,-0.0844734,0.779224,2.88169,4.18349,34.4026,271.685
1175,36.317,0.443333,1.48766,24.1516,0.678823,0.623417,1.37117,2.12169,-0.247292,-0.103837,-0.908538,0.457996,0.0569484,0.779224,2.88169,4.18349,28.392,272.349
1200,31.4474,0.673008,2.48313,24.492,0.0407824,0.12973,0.193865,0.516959,-1.14599,-0.103837,-0.0462949,0.0830431,0.339792,0.945271,2.88169,4.18349,31.4305,273.074
1225,26.0674,-0.43323,1.07218,22.7565,0.109144,0.236063,0.231843,1.31932,-0.247292,-0.103837,1.67819,0.0830431,0.0569484,0.779224,3.8402,4.01736,47.6723,274.025
1250,24.3828,-1.48519,-0.28005,21.305,0.154718,0.517085,0.171078,1.31932,0.651403,1.52477,-0.0462949,0.0830431,0.19837,0.779224,4.79872,3.9966,45.078,275.314
1275,23.9741,-1.60103,-0.780361,20.3944,0.177505,0.053778,0.0343584,-0.285404,-0.247292,0.710467,0.815948,0.0830431,0.19837,0.945271,4.79872,3.9966,31.347,276.284
1300,20.8122,-1.68399,-0.439588,20.0091,0.207888,0.547465,0.0723361,1.31932,0.651403,0.710467,-0.0462949,0.0830431,-0.0844734,0.945271,4.79872,3.83047,19.0848,276.981
1325,22.4284,-2.18653,-1.05581,19.4015,0.078761,0.714559,0.930633,1.31932,-1.14599,-0.918142,0.815948,0.0830431,0.0569484,0.945271,3.8402,4.03813,37.2722,277.553
1350,25.2988,-1.84996,-1.3758,18.4782,-0.0351748,-0.0449594,0.0723361,0.516959,-0.247292,1.52477,-0.0462949,0.0830431,0.0569484,0.945271,3.8402,3.83047,31.024,278.501
1375,18.5423,-4.94315,-0.478064,19.5154,-0.0123877,-0.0829354,0.0799316,2.12169,-1.14599,0.710467,1.67819,0.457996,0.19837,0.945271,3.8402,3.872,30.0261,279.178
1400,18.8279,-2.86199,-2.03826,17.788,-0.0503663,-0.0753402,0.0495495,1.31932,0.651403,-0.918142,0.815948,0.0830431,0.19837,0.779224,4.79872,3.872,4.29415,279.758
1425,23.8201,-2.59651,-1.65749,17.44,0.0103995,0.0233973,0.778722,1.31932,-0.247292,0.710467,-0.0462949,0.457996,0.0569484,0.779224,3.8402,3.85123,8.53386,279.869
1450,15.0901,-3.53294,-1.23858,17.5485,0.0179952,0.11454,0.125505,0.516959,0.651403,-0.103837,0.815948,0.0830431,-0.0844734,0.613177,3.8402,3.6851,0.0,280.016
1454,18.1136,-2.63524,-1.81204,16.755,-0.0503663,0.091754,0.360967,-0.285404,0.651403,-0.918142,-0.0462949,0.832948,0.19837,0.945271,3.8402,3.6851,0.0,280.016