Folder: fsri_materials_database/01_Data/PC/Cone

Note: README.md
# Materials and Products Database
### Repository of materials and products properties and fire test data to improve fire modeling and fire investigation.

This project was supported in part by Award No. 2019-DU-BX-0018, awarded by the National Institute of Justice, Office of Justice Programs, U.S. Department of Justice. The opinions, findings, and conclusions or recommendations expressed in this publication / program / exhibition are those of the author(s) and do not necessarily reflect those of the Department of Justice.

***
***

__Cite this database:__ "McKinnon, M., Weinschenk, C., Dow, N., DiDomizio, M., and Madrzykowski, D. Materials and Products Database (Version 1.0.0), Fire Safety Research Institute, UL Research Institutes. Columbia, MD 21045, 2023."

__Cite the Technical Reference Guide:__ "McKinnon, M., Weinschenk, C., and Madrzykowski, D. Materials and Products Database - Technical Reference Guide, Fire Safety Research Institute, UL Research Institutes. Columbia, MD 21045, 2023."

__Cite the User Guide:__ "McKinnon, M., and Weinschenk, C. Materials and Products Database - User Guide, Fire Safety Research Institute, UL Research Institutes. Columbia, MD 21045, 2023."

***
***

## Database Structure

## 01_Data/
Raw data generated from each apparatus are included here in plain-text format. The data is organized first by material, next by the short name of test apparatus used, and where applicable additional filtering by test settings.

### Test Apparatus and Data File Structure
- __Cone Calorimeter__ (Cone)
    + Data file structure includes the material, the short name for the apparatus, heat flux setting and scan/scalar, date of test, and replicate number. Scan is for the raw output data and scalar is for the initial conditions and high-level test parameters. 
        * Example: __MDF_Cone_HF25scalar_210323_R1__ stands for the first replicate of scalar data generated from a medium density fiber board test in cone calorimeter exposed to 25 kW/m<sup>2</sup> on March 23, 2021.
    + A _Cone_Notes.csv_ is generated for each material from the __plot_Cone_data.py__ script. For materials whose experiments deviated from typical behavior relevant pictures are included in the respective material directory.
- __Fourier Transform Infrared Spectrometer__ (FTIR)
    + The FTIR directory contains subdirectories for the Attenuated Total Reflectance method (ATR) and the Integrating Sphere (IS)
    + Data file structure for the ATR experiment files includes the material, the abbreviated name for the apparatus, date of test, and replicate number. 
        * Example: __MDF_ATR_210323_R5__ stands for the fifth replicate of data collected with the ATR accessory conducted on June 8, 2021.
    + Data file structure for the IS experiment files includes the material, the abbreviated name for the apparatus, the measurand, whether the test is a sample measurement or standard reference, date of test, and replicate number.
        * Example: __OSB_IS_REFLECT_MEAS_2

File: PC_HRRPUA_50.csv
Time after Ignition,PC_R1,PC_R2,PC_R3,Mean,Std. Dev.
0.0,7.3,2.2,20.2,9.9,9.2
1.75,40.1,12.3,48.3,33.6,18.9
3.5,77.6,23.9,85.4,62.3,33.5
5.25,95.5,49.0,109.9,84.8,31.8
7.0,105.5,91.9,124.8,107.4,16.5
8.75,119.7,122.8,150.6,131.0,17.0
10.5,143.8,174.4,189.3,169.1,23.2
12.25,175.4,228.9,226.7,210.3,30.3
14.0,219.3,291.3,276.4,262.3,38.0
15.75,250.1,348.2,319.4,305.9,50.4
17.5,278.5,395.1,374.3,349.3,62.2
19.25,306.7,439.4,402.7,382.9,68.5
21.0,341.7,463.4,435.2,413.4,63.7
22.75,374.4,488.4,470.0,444.3,61.2
24.5,401.7,488.6,478.4,456.2,47.5
26.25,429.1,497.3,514.4,480.3,45.1
28.0,427.3,509.4,495.6,477.4,44.0
29.75,432.7,510.9,499.5,481.1,42.2
31.5,430.9,516.9,494.0,480.6,44.5
33.25,443.6,506.4,486.8,479.0,32.1
35.0,444.6,501.5,479.1,475.1,28.7
36.75,443.6,501.3,490.3,478.4,30.6
38.5,450.1,480.1,492.6,474.3,21.8
40.25,483.5,460.9,477.1,473.8,11.6
42.0,471.5,447.3,483.7,467.5,18.6
43.75,487.1,439.2,489.2,471.8,28.3
45.5,487.0,430.1,508.3,475.1,40.4
47.25,495.8,428.2,502.8,475.6,41.2
49.0,500.3,417.4,487.5,468.4,44.6
50.75,491.1,418.6,482.5,464.1,39.6
52.5,487.2,403.1,477.8,456.0,46.1
54.25,488.6,406.5,468.4,454.5,42.8
56.0,479.6,401.4,466.8,449.3,42.0
57.75,480.8,398.7,470.1,449.9,44.6
59.5,492.6,405.5,457.3,451.8,43.8
61.25,472.0,411.6,467.9,450.5,33.8
63.0,465.6,401.9,452.7,440.0,33.7
64.75,446.6,403.9,442.7,431.1,23.6
66.5,439.7,394.7,443.3,425.9,27.1
68.25,440.5,397.1,429.1,422.3,22.5
70.0,445.7,404.9,429.2,426.6,20.5
71.75,441.4,392.9,434.1,422.8,26.2
73.5,452.1,393.4,416.8,420.7,29.5
75.25,439.7,381.7,417.7,413.0,29.3
77.0,425.9,379.0,427.1,410.7,27.5
78.75,406.7,365.5,430.9,401.0,33.0
80.5,414.7,362.9,438.1,405.2,38.5
82.25,399.1,362.8,444.6,402.2,41.0
84.0,391.2,354.3,455.4,400.3,51.2
85.75,391.1,348.8,452.3,397.4,52.0
87.5,387.1,350.2,435.9,391.1,43.0
89.25,392.7,338.0,422.8,384.5,43.0
91.0,374.5,346.6,401.6,374.2,27.5
92.75,387.2,340.1,387.3,371.6,27.2
94.5,377.8,345.3,366.1,363.1,16.4
96.25,385.5,339.3,347.1,357.3,24.7
98.0,384.9,341.1,346.1,357.4,24.0
99.75,376.5,353.3,328.8,352.9,23.9
101.5,373.4,361.2,315.9,350.2,30.3
103.25,363.8,370.9,307.1,347.3,35.0
105.0,359.1,374.1,297.7,343.6,40.5
106.75,354.8,385.0,295.8,345.2,45.3
108.5,343.1,396.3,289.1,342.8,53.6
110.25,340.9,390.8,279.9,337.2,55.6
112.0,333.8,393.9,279.5,335.8,57.2
113.75,340.6,396.5,275.6,337.6,60.5
115.5,341.8,392.0,266.5,333.4,63.2
117.25,347.2,391.3,272.4,337.0,60.1
119.0,348.3,379.6,265.2,331.1,59.1
120.75,347.1,378.1,259.4,328.2,61.5
122.5,356.0,367.1,255.1,326.1,61.7
124.25,352.3,371.3,256.3,326.7,61.6
126.0,348.5,351.7,251.2,317.1,57.1
127.75,341.0,345.5,254.5,313.6,51.2
129.5,347.2,343.7,250.2,313.7,55.0
131.25,338.8,339.0,252.2,310.0,50.1
133.0,326.4,330.3,250.5,302.4,45.0
134.75,323.3,329.0,250.8,301.0,43.6
136.5,319.8,318.0,242.5,293.4,44.1
138.25,309.8,310.5,239.7,286.7,40.7
140.0,311.3,306.8,241.1,286.4,39.3
141.75,315.5,307.6,240.7,288.0,41.1
143.5,306.0,303.5,241.1,283.5,36.7
145.25,303.2,296.4,244.4,281.3,32.2
147.0,298.8,297.2,241.1,279.0,32.9
148.75,294.0,291.7,235.0,273.6,33.4
150.5,287.9,284.5,235.1,269.2,29.6
152.25,282.9,275.6,230.4,263.0,28.4
154.0,282.2,267.6,232.7,260.8,25.4
155.75,277.7,265.4,233.3,258.8,22.9
157.5,270.1,260.1,227.8,252.7,22.1
159.25,273.9,253.0,225.7,250.9,24.2
161.0,263.5,254.6,222.5,246.9,21.6
162.75,258.8,250.9,220.6,243.5,20.2
164.5,256.3,247.6,220.6,241.5,18.7
166.25,255.1,249.0,221.8,242.0,17.7
168.0,254.8,247.3,214.6,238.9,21.4
169.75,254.3,247.2,208.1,236.6,24.9
171.5,249.0,247.6,205.3,234.0,24.9
173.25,249.4,259.0,206.9,238.4,27.7
175.0,248.0,257.0,204.8,236.6,27.9
176.75,248.3,259.1,208.0,238.5,26.9
178.5,243.3,262.4,206.2,237.3,28.5
180.25,246.5,255.5,214.6,238.9,21.5
182.0,245.1,250.2,210.6,235.3,21.5
183.75,242.1,242.8,213.9,232.9,16.5
185.5,241.8,237.4,214.4,231.2,14.7
187.25,234.9,237.4,215.1,229.1,12.2
189.0,229.7,229.1,220.8,226.6,5.0
190.75,229.0,228.2,218.8,225.4,5.7
192.5,224.4,226.1,221.1,223.9,2.5
194.25,224.2,221.3,219.2,221.6,2.5
196.0,217.5,222.8,217.6,219.3,3.0
197.75,214.6,217.1,219.2,217.0,2.3
199.5,215.0,220.1,222.3,219.1,3.7
201.25,211.9,212.4,217.9,214.1,3.4
203.0,207.4,203.9,218.1,209.8,7.4
204.75,205.0,201.7,219.7,208.8,9.6
206.5,200.7,200.7,218.3,206.5,10.2
208.25,201.8,195.9,218.4,205.4,11.7
210.0,193.4,195.2,216.9,201.8,13.1
211.75,195.9,191.4,215.1,200.8,12.5
213.5,194.1,190.3,212.1,198.8,11.7
215.25,191.8,184.6,204.8,193.7,10.2
217.0,187.2,185.2,203.9,192.1,10.3
218.75,183.8,181.8,198.8,188.1,9.3
220.5,178.6,180.9,194.3,184.6,8.5
222.25,174.5,174.7,193.1,180.8,10.7
224.0,172.1,169.4,186.0,175.9,8.9
225.75,169.7,168.4,181.3,173.1,7.1
227.5,164.1,165.2,179.0,169.4,8.3
229.25,163.8,163.7,177.0,168.2,7.6
231.0,161.5,160.9,172.9,165.1,6.7
232.75,157.8,159.6,170.9,162.8,7.1
234.5,153.6,154.2,171.5,159.8,10.2
236.25,149.7,151.5,169.1,156.8,10.7
238.0,149.3,148.2,164.2,153.9,8.9
239.75,147.0,146.7,160.1,151.3,7.6
241.5,143.7,146.0,158.3,149.4,7.8
243.25,143.8,145.7,156.6,148.7,6.9
245.0,142.1,142.7,156.1,146.9,7.9
246.75,139.3,142.0,155.0,145.4,8.4
248.5,139.4,138.0,153.5,143.6,8.6
250.25,137.7,133.8,155.2,142.2,11.4
252.0,136.1,131.7,152.6,140.2,11.0
253.75,137.5,130.6,150.4,139.5,10.0
255.5,134.2,127.6,151.8,137.9,12.5
257.25,133.9,124.8,148.4,135.7,11.9
259.0,133.2,123.4,146.1,134.2,11.3
260.75,131.7,120.8,145.3,132.6,12.3
262.5,132.3,121.4,140.8,131.5,9.7
264.25,129.6,118.4,141.0,129.6,11.3
266.0,131.3,118.6,141.6,130.5,11.5
267.75,130.0,118.0,140.3,129.5,11.2
269.5,130.2,116.4,141.4,129.4,12.5
271.25,125.4,116.8,138.2,126.8,10.8
273.0,128.5,117.8,138.2,128.1,10.2
274.75,126.3,115.9,141.7,128.0,13.0
276.5,124.6,117.3,140.1,127.4,11.7
278.25,126.0,117.1,135.2,126.1,9.0
280.0,122.8,114.4,134.9,124.0,10.3
281.75,121.6,110.7,133.2,121.9,11.3
283.5,120.4,112.5,132.1,121.7,9.9
285.25,119.7,113.1,132.7,121.8,10.0
287.0,118.9,112.9,132.1,121.3,9.8
288.75,118.5,110.9,131.3,120.2,10.3
290.5,118.1,110.8,131.0,120.0,10.2
292.25,117.4,107.5,130.5,118.5,11.5
294.0,115.0,106.6,128.0,116.5,10.8
295.75,114.0,105.4,128.0,115.8,11.4
297.5,113.2,102.0,126.6,113.9,12.3
299.25,108.9,104.4,126.4,113.2,11.6
301.0,108.0,101.8,125.5,111.8,12.3
302.75,105.4,103.5,124.7,111.2,11.7
304.5,106.3,106.6,124.2,112.4,10.2
306.25,104.4,107.2,121.8,111.1,9.4
308.0,102.5,107.6,122.8,111.0,10.5
309.75,104.2,107.2,120.8,110.8,8.9
311.5,102.6,108.2,119.9,110.3,8.8
313.25,101.7,107.9,123.1,110.9,11.0
315.0,100.5,109.4,120.5,110.1,10.0
316.75,98.9,105.5,121.5,108.6,11.6
318.5,95.8,102.3,120.8,106.3,13.0
320.25,97.0,101.5,120.2,106.3,12.3
322.0,97.0,99.5,119.5,105.3,12.3
323.75,97.8,99.1,118.6,105.2,11.7
325.5,96.9,98.5,117.9,104.4,11.7
327.25,96.2,97.2,118.3,103.9,12.5
329.0,97.5,94.6,120.8,104.3,14.3
330.75,95.7,95.8,118.6,103.4,13.2
332.5,94.0,96.4,118.9,103.1,13.7
334.25,95.8,95.9,121.7,104.5,14.9
336.0,94.5,95.7,121.1,103.8,15.0
337.75,95.2,97.1,123.2,105.2,15.6
339.5,93.5,96.5,120.6,103.6,14.9
341.25,93.4,96.3,122.3,104.0,15.9
343.0,92.2,96.8,122.6,103.9,16.4
344.75,92.6,95.8,119.9,102.8,15.0
346.5,93.3,94.9,121.9,103.4,16.1
348.25,91.5,93.8,119.9,101.7,15.8
350.0,93.6,92.1,121.7,102.5,16.7
351.75,92.6,93.7,120.0,102.1,15.5
353.5,93.0,92.3,119.6,101.6,15.5
355.25,91.5,91.4,117.7,100.2,15.1
357.0,92.5,89.7,118.7,100.3,16.0
358.75,93.1,89.7,119.7,100.9,16.4
360.5,91.7,90.5,119.1,100.4,16.2
362.25,91.6,89.6,118.7,100.0,16.3
364.0,89.9,89.7,119.0,99.5,16.9
365.75,89.5,90.1,115.9,98.5,15.1
367.5,89.8,89.8,116.0,98.5,15.1
369.25,90.4,88.7,116.5,98.5,15.6
371.0,89.9,89.5,114.7,98.0,14.4
372.75,88.5,89.2,115.2,97.6,15.3
374.5,90.1,88.8,115.9,98.3,15.3
376.25,92.1,88.7,113.8,98.2,13.6
378.0,90.2,88.8,112.9,97.3,13.6
379.75,89.4,86.4,112.0,95.9,14.0
381.5,90.5,85.7,111.9,96.0,14.0
383.25,90.9,82.7,110.6,94.7,14.3
385.0,91.0,82.4,111.6,95.0,15.0
386.75,91.4,81.5,109.9,94.3,14.4
388.5,90.5,82.9,110.2,94.6,14.1
390.25,91.1,82.8,108.5,94.2,13.1
392.0,89.1,81.8,109.4,93.4,14.3
393.75,88.9,81.3,109.3,93.2,14.5
395.5,88.6,78.9,109.6,92.4,15.7
397.25,88.7,79.5,105.3,91.2,13.1
399.0,89.1,78.6,104.3,90.7,12.9
400.75,86.9,77.0,104.3,89.4,13.8
402.5,86.8,76.4,105.2,89.4,14.6
404.25,86.8,76.5,105.9,89.7,14.9
406.0,85.8,75.7,105.1,88.9,15.0
407.75,86.3,75.8,104.9,89.0,14.7
409.5,85.2,76.2,104.4,88.6,14.4
411.25,85.6,76.0,105.1,88.9,14.8
413.0,87.1,75.0,102.7,88.3,13.9
414.75,87.9,76.0,104.0,89.3,14.1
416.5,86.7,74.5,103.6,88.3,14.6
418.25,85.8,73.5,102.1,87.1,14.4
420.0,87.7,73.5,102.7,88.0,14.6
421.75,87.1,73.4,101.3,87.3,13.9
423.5,86.7,72.5,99.7,86.3,13.6
425.25,87.0,72.0,98.0,85.7,13.0
427.0,86.0,70.6,97.1,84.6,13.3
428.75,86.4,70.3,96.5,84.4,13.2
430.5,85.6,69.0,94.8,83.1,13.1
432.25,85.7,68.6,95.2,83.2,13.5
434.0,86.1,68.9,95.7,83.6,13.6
435.75,84.7,68.9,95.1,82.9,13.2
437.5,86.2,67.5,95.2,83.0,14.1
439.25,86.0,67.3,94.2,82.5,13.8
441.0,86.9,66.5,94.7,82.7,14.6
442.75,86.6,66.2,92.6,81.8,13.8
444.5,86.6,66.4,92.0,81.7,13.5
446.25,85.9,64.8,92.1,80.9,14.3
448.0,85.8,65.2,92.1,81.1,14.1
449.75,86.5,65.6,90.8,81.0,13.5
451.5,87.1,65.0,90.9,81.0,14.0
453.25,85.9,66.8,91.0,81.2,12.8
455.0,86.2,65.5,92.1,81.3,13.9
456.75,86.4,66.3,89.7,80.8,12.6
458.5,83.8,66.3,91.7,80.6,13.0
460.25,83.5,66.5,90.5,80.2,12.3
462.0,83.0,67.1,90.6,80.2,12.0
463.75,81.2,65.8,89.8,78.9,12.1
465.5,82.3,65.6,88.1,78.6,11.7
467.25,78.7,65.7,89.4,77.9,11.9
469.0,79.5,65.6,87.9,77.7,11.3
470.75,80.2,66.0,87.7,78.0,11.0
472.5,78.9,65.3,86.0,76.7,10.5
474.25,78.7,65.6,86.7,77.0,10.6
476.0,79.1,66.7,86.3,77.4,10.0
477.75,78.0,65.8,86.6,76.8,10.5
479.5,77.5,64.9,85.5,76.0,10.4
481.25,78.1,64.9,85.0,76.0,10.2
483.0,79.5,64.3,84.5,76.1,10.5
484.75,79.2,63.5,84.4,75.7,10.9
486.5,79.4,64.4,83.4,75.7,10.0
488.25,80.8,63.0,83.3,75.7,11.1
490.0,78.7,63.4,81.1,74.4,9.6
491.0,80.0,62.9,82.6,75.2,10.7

File: PC_HRRPUA_75.csv
Time after Ignition,PC_R1,PC_R2,PC_R3,Mean,Std. Dev.
0.0,0.5,13.8,15.2,9.8,8.2
2.5,38.3,54.7,51.5,48.2,8.7
5.0,81.2,100.1,94.2,91.8,9.7
7.5,128.2,156.4,144.8,143.2,14.2
10.0,177.7,225.7,201.8,201.7,24.0
12.5,245.3,291.6,274.2,270.4,23.4
15.0,299.3,342.1,334.4,325.3,22.9
17.5,354.0,383.1,394.0,377.0,20.7
20.0,398.6,431.9,428.9,419.8,18.4
22.5,416.9,459.5,463.8,446.7,25.9
25.0,418.0,472.6,468.2,452.9,30.3
27.5,427.5,482.1,467.6,459.1,28.3
30.0,428.0,488.4,479.2,465.2,32.6
32.5,429.5,493.0,460.1,460.9,31.8
35.0,423.9,488.9,471.7,461.5,33.7
37.5,421.8,482.5,459.3,454.5,30.6
40.0,440.1,492.2,465.7,466.0,26.0
42.5,426.3,493.8,472.0,464.1,34.4
45.0,448.4,502.8,481.1,477.4,27.4
47.5,461.1,498.7,484.7,481.5,19.0
50.0,451.6,507.0,487.3,482.0,28.1
52.5,461.4,498.6,500.0,486.7,21.9
55.0,475.8,504.8,512.7,497.8,19.4
57.5,478.6,498.4,518.7,498.6,20.0
60.0,477.8,493.9,521.4,497.7,22.1
62.5,504.9,487.6,521.3,504.6,16.8
65.0,497.2,488.1,530.6,505.3,22.3
67.5,516.0,488.9,527.0,510.6,19.6
70.0,520.2,502.7,550.5,524.5,24.2
72.5,523.7,506.1,549.1,526.3,21.6
75.0,537.0,499.1,535.4,523.8,21.4
77.5,522.9,509.6,509.5,514.0,7.7
80.0,527.9,493.1,487.8,502.9,21.8
82.5,542.5,496.9,471.6,503.7,35.9
85.0,536.6,502.9,452.1,497.2,42.5
87.5,527.3,523.5,456.9,502.6,39.6
90.0,484.4,525.6,464.5,491.5,31.2
92.5,462.3,504.2,454.3,473.6,26.8
95.0,422.7,468.2,441.3,444.1,22.9
97.5,385.3,441.8,409.9,412.3,28.3
100.0,353.7,400.2,404.2,386.0,28.1
102.5,326.3,376.2,381.0,361.2,30.3
105.0,310.7,349.3,367.1,342.4,28.8
107.5,292.8,331.2,355.5,326.5,31.6
110.0,281.9,311.9,349.3,314.4,33.8
112.5,272.4,306.7,331.0,303.3,29.4
115.0,262.7,289.7,316.1,289.5,26.7
117.5,246.2,276.5,311.4,278.0,32.6
120.0,232.0,264.1,298.2,264.8,33.1
122.5,220.0,255.1,289.7,254.9,34.9
125.0,210.4,250.3,290.6,250.4,40.1
127.5,200.2,237.4,285.7,241.1,42.8
130.0,188.8,232.7,284.4,235.3,47.9
132.5,183.3,219.0,282.3,228.2,50.1
135.0,179.3,213.5,273.0,221.9,47.4
137.5,178.2,212.1,270.5,220.3,46.7
140.0,172.0,213.4,263.7,216.4,45.9
142.5,167.7,208.1,258.7,211.5,45.6
145.0,165.5,204.3,255.4,208.4,45.1
147.5,161.3,199.6,251.9,204.3,45.5
150.0,160.7,195.6,254.7,203.7,47.5
152.5,160.3,196.2,257.6,204.7,49.2
155.0,159.4,192.4,258.7,203.5,50.6
157.5,159.4,192.9,254.9,202.4,48.5
160.0,162.2,193.6,256.8,204.2,48.2
162.5,162.7,192.9,255.0,203.5,47.1
165.0,159.8,189.5,251.2,200.2,46.6
167.5,161.4,188.7,254.0,201.4,47.6
170.0,157.3,184.9,248.7,197.0,46.9
172.5,162.9,186.9,249.1,199.6,44.5
175.0,161.2,187.4,242.9,197.2,41.7
177.5,159.7,184.9,249.0,197.8,46.1
180.0,159.9,183.3,248.4,197.2,45.9
182.5,156.9,183.5,247.9,196.1,46.8
185.0,157.1,184.0,241.9,194.3,43.3
187.5,156.6,184.3,246.0,195.6,45.8
190.0,154.7,185.5,243.6,194.6,45.2
192.5,159.3,181.7,241.3,194.1,42.4
195.0,157.0,182.8,241.9,193.9,43.5
197.5,155.3,182.3,238.7,192.1,42.5
200.0,155.6,181.3,229.2,188.7,37.4
202.5,160.9,180.6,226.0,189.2,33.4
205.0,164.4,182.5,219.7,188.9,28.2
207.5,164.5,185.8,218.3,189.5,27.1
210.0,165.2,187.9,216.1,189.7,25.5
212.5,162.9,190.1,213.7,188.9,25.4
215.0,166.8,189.5,210.9,189.1,22.0
217.5,166.1,191.5,211.2,189.6,22.6
220.0,166.0,185.4,201.8,184.4,17.9
222.5,162.9,188.9,203.3,185.0,20.5
225.0,165.3,185.9,199.4,183.6,17.2
227.5,163.1,190.9,198.4,184.2,18.6
230.0,167.7,192.2,196.9,185.6,15.7
232.5,165.0,191.9,194.2,183.7,16.2
235.0,163.8,191.4,197.1,184.1,17.8
237.5,163.2,191.4,194.9,183.2,17.4
240.0,161.6,193.2,194.2,183.0,18.5
242.5,164.2,189.6,191.2,181.7,15.1
245.0,163.3,188.3,195.3,182.3,16.8
247.5,161.6,187.2,190.9,179.9,16.0
250.0,162.2,186.8,190.9,180.0,15.5
252.5,161.6,185.5,188.4,178.5,14.8
255.0,161.9,189.9,187.7,179.8,15.6
257.5,158.8,188.0,185.5,177.5,16.2
260.0,159.7,189.4,187.8,179.0,16.7
262.5,157.9,187.0,184.5,176.5,16.2
265.0,158.4,188.6,183.5,176.8,16.2
267.5,155.8,184.7,182.0,174.2,16.0
270.0,156.1,185.2,183.5,174.9,16.3
272.5,153.9,188.3,186.8,176.3,19.5
275.0,152.8,191.1,184.8,176.2,20.6
277.5,151.3,190.6,189.0,177.0,22.2
280.0,150.2,191.7,189.9,177.3,23.5
282.5,148.5,186.8,196.8,177.4,25.4
285.0,144.4,183.9,195.4,174.6,26.8
287.5,143.0,187.5,198.2,176.2,29.3
290.0,142.7,186.4,196.7,175.3,28.7
292.5,143.3,187.1,198.5,176.3,29.2
295.0,144.0,187.5,200.3,177.3,29.5
297.5,143.3,184.9,205.7,177.9,31.8
300.0,143.8,182.0,213.3,179.7,34.8
302.5,144.0,178.1,225.9,182.6,41.2
305.0,144.8,180.2,227.1,184.1,41.3
307.5,144.2,181.5,229.9,185.2,43.0
310.0,140.7,179.5,230.0,183.4,44.8
312.5,138.7,184.9,228.7,184.1,45.0
315.0,138.1,186.8,228.9,184.6,45.4
317.5,139.1,187.2,230.9,185.7,45.9
320.0,139.8,193.4,231.3,188.2,46.0
322.5,140.4,191.9,234.0,188.7,46.9
325.0,139.6,189.5,228.0,185.7,44.3
327.5,143.7,196.2,228.3,189.4,42.7
330.0,142.0,200.5,230.2,190.9,44.9
332.5,145.0,200.3,226.3,190.5,41.5
335.0,148.6,198.6,222.9,190.0,37.9
337.5,150.7,198.2,224.0,191.0,37.2
340.0,151.7,202.2,217.7,190.5,34.5
342.5,154.9,201.8,219.7,192.1,33.5
345.0,153.4,200.2,217.6,190.4,33.2
347.5,156.0,199.6,217.8,191.1,31.8
350.0,160.3,196.0,214.5,190.3,27.6
352.5,163.9,197.6,214.2,191.9,25.6
355.0,166.6,198.9,219.3,195.0,26.6
357.5,168.5,196.1,210.5,191.7,21.3
360.0,169.2,197.5,209.3,192.0,20.6
362.5,172.6,198.9,212.5,194.7,20.3
365.0,174.5,204.0,208.4,195.6,18.4
367.5,181.7,198.7,207.6,196.0,13.1
370.0,186.6,197.5,202.5,195.5,8.1
372.5,192.4,196.3,202.3,197.0,4.9
375.0,197.0,192.6,206.1,198.5,6.9
377.5,201.2,189.8,205.4,198.8,8.1
380.0,208.7,188.8,208.1,201.9,11.3
382.5,211.1,188.3,204.1,201.2,11.7
385.0,205.9,182.4,208.0,198.8,14.2
387.5,206.9,184.0,208.8,199.9,13.8
390.0,203.5,182.3,207.3,197.7,13.5
392.5,202.9,183.7,206.9,197.8,12.4
395.0,204.0,181.1,202.9,196.0,12.9
397.5,211.2,178.2,198.9,196.1,16.7
400.0,211.0,177.9,198.5,195.8,16.7
402.5,212.9,178.3,194.3,195.2,17.3
405.0,220.4,175.6,194.3,196.7,22.5
407.5,217.5,177.8,190.6,195.3,20.2
410.0,216.5,175.3,188.1,193.3,21.1
412.5,219.9,175.4,182.4,192.5,23.9
415.0,222.3,171.1,179.2,190.9,27.5
417.5,219.9,169.8,177.0,188.9,27.1
420.0,219.2,171.1,175.8,188.7,26.5
422.5,218.6,170.5,176.5,188.5,26.2
425.0,213.0,172.1,176.6,187.2,22.4
427.5,208.7,170.8,174.0,184.5,21.0
430.0,203.4,169.6,173.0,182.0,18.6
432.5,207.0,166.9,172.7,182.2,21.6
435.0,205.5,171.0,168.8,181.8,20.6
437.5,211.7,168.7,170.1,183.5,24.4
440.0,202.4,165.4,169.9,179.2,20.2
442.5,202.3,162.7,167.1,177.3,21.7
445.0,197.1,167.3,167.2,177.2,17.2
447.5,200.2,165.7,167.4,177.8,19.5
450.0,199.6,168.4,164.4,177.5,19.3
452.5,195.2,167.0,162.2,174.8,17.9
455.0,194.7,167.1,160.9,174.2,18.0
457.5,190.3,170.3,162.5,174.4,14.3
460.0,189.1,167.7,161.9,172.9,14.3
462.5,188.8,165.7,162.3,172.2,14.4
465.0,182.1,165.5,160.5,169.4,11.3
467.5,179.7,165.0,155.9,166.9,12.0
470.0,180.3,164.1,156.6,167.0,12.1
472.5,178.0,165.0,155.0,166.0,11.5
475.0,174.3,165.9,154.4,164.9,10.0
477.5,176.6,168.3,153.8,166.2,11.5
480.0,171.5,166.9,149.7,162.7,11.5
482.5,170.2,164.2,148.5,161.0,11.2
485.0,175.1,163.6,147.5,162.1,13.9
487.5,172.5,164.7,145.5,160.9,13.9
490.0,172.8,164.2,142.7,159.9,15.5
492.5,169.8,163.5,144.0,159.1,13.4
495.0,169.5,163.6,140.3,157.8,15.4
497.5,166.8,161.0,138.7,155.5,14.9
500.0,166.1,162.7,135.1,154.6,17.0
502.5,163.9,162.3,135.2,153.8,16.1
505.0,162.8,161.3,135.2,153.1,15.5
507.5,158.8,162.5,136.0,152.4,14.4
510.0,156.3,159.2,129.9,148.5,16.1
512.5,157.9,156.8,128.4,147.7,16.7
515.0,154.2,159.1,122.6,145.3,19.8
517.5,153.9,157.4,121.9,144.4,19.6
520.0,150.7,157.1,116.7,141.5,21.7
522.5,151.6,155.9,115.3,140.9,22.3
525.0,150.5,152.8,112.9,138.7,22.4
527.5,148.3,155.2,110.7,138.0,23.9
530.0,146.4,155.8,106.8,136.3,26.0
532.5,145.3,152.8,105.6,134.6,25.3
535.0,144.6,149.6,101.5,131.9,26.4
537.5,147.5,144.8,98.5,130.3,27.5
540.0,144.5,143.9,96.1,128.2,27.8
542.5,143.1,142.0,92.8,126.0,28.7
545.0,143.1,140.1,90.5,124.6,29.6
547.5,141.2,139.2,90.0,123.5,29.0
550.0,138.6,133.2,88.3,120.0,27.6
552.5,136.8,129.6,86.8,117.8,27.0
555.0,134.8,127.7,87.0,116.5,25.8
557.5,136.1,125.1,86.7,116.0,25.9
560.0,135.1,125.1,85.1,115.1,26.5
562.5,135.6,125.1,86.4,115.7,25.9
565.0,135.6,120.5,86.1,114.1,25.4
567.5,136.6,119.2,87.3,114.4,25.0
570.0,136.0,118.4,88.1,114.2,24.2
572.5,136.6,116.7,87.4,113.5,24.8
575.0,135.3,113.6,87.0,111.9,24.2
577.5,134.6,110.7,85.1,110.1,24.7
580.0,132.4,108.8,84.0,108.4,24.2
582.5,129.4,106.4,82.9,106.2,23.3
585.0,130.2,100.6,83.5,104.8,23.7
587.5,126.5,98.6,83.1,102.7,22.0
590.0,124.5,95.5,81.9,100.6,21.8
592.5,124.1,91.1,84.1,99.8,21.4
595.0,121.0,88.5,84.5,98.0,20.0
597.5,121.7,88.1,,104.9,23.8
600.0,119.4,87.3,,103.3,22.7
602.5,118.9,89.3,,104.1,20.9
605.0,116.3,86.1,,101.2,21.4
607.5,116.0,85.0,,100.5,21.9
610.0,111.6,84.0,,97.8,19.5
612.5,111.7,85.3,,98.5,18.7
615.0,107.1,84.2,,95.6,16.2
617.5,105.2,83.4,,94.3,15.4
620.0,106.0,82.3,,94.1,16.8
622.5,102.1,82.1,,92.1,14.1
625.0,102.0,81.8,,91.9,14.3
627.5,98.9,82.4,,90.7,11.7
630.0,99.2,81.5,,90.3,12.5
632.5,98.5,81.9,,90.2,11.7
635.0,96.3,84.3,,90.3,8.4
637.5,96.9,81.9,,89.4,10.6
640.0,95.2,82.1,,88.6,9.3
642.5,92.7,83.4,,88.1,6.6
645.0,92.3,84.1,,88.2,5.7
647.5,91.9,,,91.9,
650.0,89.8,,,89.8,
652.5,88.6,,,88.6,
655.0,86.5,,,86.5,
657.5,87.4,,,87.4,
660.0,86.1,,,86.1,
662.5,86.1,,,86.1,