Folder: fsri_materials_database/01_Data/Rug_Pad/FTIR/IS (part 2)

File: Rug_Pad_IS_S_220908_R5.dpt
7497.03,0.51141
7473.89,0.50812
7450.74,0.50582
7427.6,0.49231
7404.45,0.49949
7381.31,0.49829
7358.16,0.48784
7335.02,0.49195
7311.87,0.49142
7288.73,0.47409
7265.58,0.48596
7242.44,0.48055
7219.29,0.47639
7196.15,0.47421
7173,0.47183
7149.86,0.47041
7126.71,0.47533
7103.57,0.46910
7080.42,0.46566
7057.28,0.46125
7034.13,0.46565
7010.99,0.47291
6987.84,0.47528
6964.7,0.46847
6941.55,0.46634
6918.41,0.47298
6895.26,0.47570
6872.12,0.46805
6848.97,0.47528
6825.83,0.47243
6802.68,0.47831
6779.54,0.47967
6756.39,0.47474
6733.25,0.48764
6710.1,0.48180
6686.96,0.48534
6663.82,0.48244
6640.67,0.48703
6617.53,0.49025
6594.38,0.48953
6571.24,0.48991
6548.09,0.49363
6524.95,0.49054
6501.8,0.49524
6478.66,0.49079
6455.51,0.49361
6432.37,0.49815
6409.22,0.49266
6386.08,0.49344
6362.93,0.49435
6339.79,0.49491
6316.64,0.49145
6293.5,0.49382
6270.35,0.49430
6247.21,0.49396
6224.06,0.49549
6200.92,0.49442
6177.77,0.49359
6154.63,0.49676
6131.48,0.49258
6108.34,0.48795
6085.19,0.48698
6062.05,0.48245
6038.9,0.47952
6015.76,0.47229
5992.61,0.46819
5969.47,0.45739
5946.32,0.44750
5923.18,0.43347
5900.03,0.40569
5876.89,0.38877
5853.74,0.37165
5830.6,0.34888
5807.45,0.35358
5784.31,0.36766
5761.16,0.38222
5738.02,0.38255
5714.87,0.38083
5691.73,0.38185
5668.58,0.38380
5645.44,0.39238
5622.29,0.38530
5599.15,0.40179
5576,0.42468
5552.86,0.43626
5529.71,0.44055
5506.57,0.44467
5483.42,0.44649
5460.28,0.44538
5437.13,0.44823
5413.99,0.44613
5390.84,0.44641
5367.7,0.44872
5344.55,0.44970
5321.41,0.44763
5298.26,0.44934
5275.12,0.44735
5251.97,0.44031
5228.83,0.43661
5205.68,0.43223
5182.54,0.42901
5159.39,0.43089
5136.25,0.43225
5113.1,0.43458
5089.96,0.43523
5066.81,0.43722
5043.67,0.43724
5020.52,0.43827
4997.38,0.43849
4974.23,0.43677
4951.09,0.43369
4927.94,0.43135
4904.8,0.42825
4881.65,0.42656
4858.51,0.42531
4835.36,0.42288
4812.22,0.42128
4789.07,0.41883
4765.93,0.41751
4742.78,0.41419
4719.64,0.40742
4696.49,0.40154
4673.35,0.39944
4650.2,0.39330
4627.06,0.37965
4603.92,0.38194
4580.77,0.38637
4557.63,0.39381
4534.48,0.38986
4511.34,0.38323
4488.19,0.38110
4465.05,0.37051
4441.9,0.34657
4418.76,0.30888
4395.61,0.27352
4372.47,0.25186
4349.32,0.23217
4326.18,0.22424
4303.03,0.23395
4279.89,0.23328
4256.74,0.23501
4233.6,0.24293
4210.45,0.25691
4187.31,0.26506
4164.16,0.26448
4141.02,0.27628
4117.87,0.28291
4094.73,0.27931
4071.58,0.26436
4048.44,0.26614
4025.29,0.27233
4002.15,0.27308
3979,0.27086
3955.86,0.26795
3932.71,0.27263
3909.57,0.28569
3886.42,0.29222
3863.28,0.30125
3840.13,0.30986
3816.99,0.31426
3793.84,0.31836
3770.7,0.31693
3747.55,0.31698
3724.41,0.31332
3701.26,0.29883
3678.12,0.25899
3654.97,0.22272
3631.83,0.18235
3608.68,0.14454
3585.54,0.12157
3562.39,0.10335
3539.25,0.09121
3516.1,0.08272
3492.96,0.07574
3469.81,0.07058
3446.67,0.06629
3423.52,0.06238
3400.38,0.06055
3377.23,0.05930
3354.09,0.05719
3330.94,0.05713
3307.8,0.05670
3284.65,0.05737
3261.51,0.06173
3238.36,0.06597
3215.22,0.06895
3192.07,0.07246
3168.93,0.07669
3145.78,0.08054
3122.64,0.08346
3099.49,0.08290
3076.35,0.08005
3053.2,0.07563
3030.06,0.06164
3006.91,0.05900
2983.77,0.04130
2960.62,0.02958
2937.48,0.02900
2914.33,0.03074
2891.19,0.03617
2868.04,0.03696
2844.9,0.03976
2821.75,0.07524
2798.61,0.09948
2775.46,0.11891
2752.32,0.12782
2729.17,0.11358
2706.03,0.13947
2682.88,0.14200
2659.74,0.14209
2636.59,0.12996
2613.45,0.12018
2590.3,0.11077
2567.16,0.10630
2544.02,0.09392
2520.87,0.07440
2497.73,0.10019
2474.58,0.15370
2451.44,0.18500
2428.29,0.20221
2405.15,0.21200
2382,0.22480
2358.86,0.23176
2335.71,0.23347
2312.57,0.23726
2289.42,0.24171
2266.28,0.23575
2243.13,0.19934
2219.99,0.23119
2196.84,0.22724
2173.7,0.21744
2150.55,0.20508
2127.41,0.21712
2104.26,0.23189
2081.12,0.23009
2057.97,0.22570
2034.83,0.22130
2011.68,0.22991
1988.54,0.23407
1965.39,0.22443
1942.25,0.22248
1919.1,0.22444
1895.96,0.20953
1872.81,0.19303
1849.67,0.17559
1826.52,0.11650
1803.38,0.07040
1780.23,0.09303
1757.09,0.07056
1733.94,0.04011
1710.8,0.04447
1687.65,0.04739
1664.51,0.03710
1641.36,0.03950
1618.22,0.04373
1595.07,0.04774
1571.93,0.05743
1548.78,0.05958
1525.64,0.06070
1502.49,0.05229
1479.35,0.04208
1456.2,0.03434
1433.06,0.03558
1409.91,0.03842
1386.77,0.03931
1363.62,0.04365
1340.48,0.05104
1317.33,0.05088
1294.19,0.05317
1271.04,0.05066
1247.9,0.04510
1224.75,0.04352
1201.61,0.04053
1178.46,0.03916
1155.32,0.03758
1132.17,0.03778
1109.03,0.03973
1085.88,0.03679
1062.74,0.04239
1039.59,0.04053
1016.45,0.04295
993.304,0.04601
970.159,0.04671
947.014,0.06184
923.869,0.06313
900.724,0.07084
877.579,0.03831
854.434,0.05391
831.289,0.05005
808.144,0.05888
784.999,0.06424
761.854,0.05209
738.709,0.04805
715.565,0.03238
692.42,0.05376
669.275,0.05283
646.13,0.04873
622.985,0.04377
599.84,0.03622

File: Rug_Pad_IS_S_220908_R6.dpt
7497.03,0.50480
7473.89,0.50987
7450.74,0.49623
7427.6,0.49843
7404.45,0.50207
7381.31,0.50114
7358.16,0.49468
7335.02,0.49080
7311.87,0.48530
7288.73,0.47879
7265.58,0.48252
7242.44,0.47998
7219.29,0.47997
7196.15,0.47057
7173,0.47191
7149.86,0.46906
7126.71,0.47141
7103.57,0.48104
7080.42,0.47280
7057.28,0.46582
7034.13,0.46792
7010.99,0.46393
6987.84,0.46702
6964.7,0.46749
6941.55,0.46752
6918.41,0.47074
6895.26,0.47636
6872.12,0.47266
6848.97,0.47027
6825.83,0.47783
6802.68,0.47775
6779.54,0.48159
6756.39,0.47913
6733.25,0.48518
6710.1,0.48042
6686.96,0.48146
6663.82,0.49146
6640.67,0.48934
6617.53,0.48713
6594.38,0.49007
6571.24,0.48912
6548.09,0.49362
6524.95,0.49237
6501.8,0.49049
6478.66,0.49315
6455.51,0.49339
6432.37,0.49588
6409.22,0.49274
6386.08,0.49595
6362.93,0.48895
6339.79,0.49279
6316.64,0.49969
6293.5,0.49600
6270.35,0.49595
6247.21,0.49581
6224.06,0.49673
6200.92,0.49561
6177.77,0.50022
6154.63,0.49519
6131.48,0.49434
6108.34,0.48379
6085.19,0.48688
6062.05,0.48288
6038.9,0.47692
6015.76,0.47355
5992.61,0.46647
5969.47,0.45930
5946.32,0.44775
5923.18,0.43424
5900.03,0.40371
5876.89,0.38674
5853.74,0.37185
5830.6,0.34938
5807.45,0.35328
5784.31,0.36929
5761.16,0.38063
5738.02,0.38308
5714.87,0.38070
5691.73,0.37953
5668.58,0.38281
5645.44,0.38925
5622.29,0.38663
5599.15,0.40259
5576,0.42453
5552.86,0.43524
5529.71,0.44053
5506.57,0.44644
5483.42,0.44508
5460.28,0.44744
5437.13,0.44727
5413.99,0.44816
5390.84,0.44715
5367.7,0.44909
5344.55,0.44830
5321.41,0.44465
5298.26,0.44983
5275.12,0.44691
5251.97,0.44309
5228.83,0.43713
5205.68,0.43239
5182.54,0.43121
5159.39,0.43140
5136.25,0.43226
5113.1,0.43440
5089.96,0.43695
5066.81,0.43715
5043.67,0.43887
5020.52,0.43840
4997.38,0.43944
4974.23,0.43676
4951.09,0.43284
4927.94,0.42975
4904.8,0.43008
4881.65,0.42657
4858.51,0.42500
4835.36,0.42373
4812.22,0.42102
4789.07,0.41804
4765.93,0.41589
4742.78,0.41396
4719.64,0.40755
4696.49,0.40159
4673.35,0.39973
4650.2,0.39296
4627.06,0.38070
4603.92,0.38180
4580.77,0.38696
4557.63,0.39193
4534.48,0.38808
4511.34,0.38318
4488.19,0.38124
4465.05,0.36995
4441.9,0.34662
4418.76,0.30883
4395.61,0.27357
4372.47,0.25232
4349.32,0.23325
4326.18,0.22424
4303.03,0.23353
4279.89,0.23288
4256.74,0.23508
4233.6,0.24280
4210.45,0.25644
4187.31,0.26389
4164.16,0.26511
4141.02,0.27646
4117.87,0.28323
4094.73,0.27924
4071.58,0.26372
4048.44,0.26531
4025.29,0.27213
4002.15,0.27276
3979,0.27036
3955.86,0.26736
3932.71,0.27175
3909.57,0.28551
3886.42,0.29227
3863.28,0.30086
3840.13,0.30968
3816.99,0.31400
3793.84,0.31889
3770.7,0.31789
3747.55,0.31684
3724.41,0.31395
3701.26,0.29937
3678.12,0.26066
3654.97,0.22495
3631.83,0.18442
3608.68,0.14551
3585.54,0.12249
3562.39,0.10451
3539.25,0.09242
3516.1,0.08335
3492.96,0.07658
3469.81,0.07075
3446.67,0.06586
3423.52,0.06302
3400.38,0.06144
3377.23,0.05963
3354.09,0.05797
3330.94,0.05709
3307.8,0.05712
3284.65,0.05858
3261.51,0.06134
3238.36,0.06665
3215.22,0.06950
3192.07,0.07345
3168.93,0.07777
3145.78,0.08099
3122.64,0.08377
3099.49,0.08362
3076.35,0.08029
3053.2,0.07613
3030.06,0.06156
3006.91,0.05873
2983.77,0.04114
2960.62,0.02975
2937.48,0.02889
2914.33,0.03082
2891.19,0.03621
2868.04,0.03733
2844.9,0.03935
2821.75,0.07537
2798.61,0.09918
2775.46,0.11905
2752.32,0.12818
2729.17,0.11335
2706.03,0.14004
2682.88,0.14176
2659.74,0.14215
2636.59,0.13030
2613.45,0.12037
2590.3,0.11035
2567.16,0.10643
2544.02,0.09420
2520.87,0.07462
2497.73,0.09975
2474.58,0.15366
2451.44,0.18507
2428.29,0.20204
2405.15,0.21169
2382,0.22426
2358.86,0.23122
2335.71,0.23404
2312.57,0.23695
2289.42,0.24199
2266.28,0.23625
2243.13,0.19945
2219.99,0.23199
2196.84,0.22777
2173.7,0.21806
2150.55,0.20546
2127.41,0.21768
2104.26,0.23245
2081.12,0.23078
2057.97,0.22580
2034.83,0.22206
2011.68,0.23013
1988.54,0.23415
1965.39,0.22451
1942.25,0.22250
1919.1,0.22403
1895.96,0.20980
1872.81,0.19300
1849.67,0.17544
1826.52,0.11681
1803.38,0.07069
1780.23,0.09281
1757.09,0.07067
1733.94,0.04012
1710.8,0.04471
1687.65,0.04702
1664.51,0.03712
1641.36,0.03913
1618.22,0.04369
1595.07,0.04760
1571.93,0.05744
1548.78,0.05965
1525.64,0.06036
1502.49,0.05233
1479.35,0.04195
1456.2,0.03415
1433.06,0.03546
1409.91,0.03880
1386.77,0.03960
1363.62,0.04333
1340.48,0.05104
1317.33,0.05073
1294.19,0.05328
1271.04,0.05044
1247.9,0.04518
1224.75,0.04355
1201.61,0.04066
1178.46,0.03901
1155.32,0.03707
1132.17,0.03750
1109.03,0.04016
1085.88,0.03740
1062.74,0.04245
1039.59,0.04037
1016.45,0.04287
993.304,0.04610
970.159,0.04697
947.014,0.06188
923.869,0.06365
900.724,0.07099
877.579,0.03866
854.434,0.05418
831.289,0.05001
808.144,0.05835
784.999,0.06413
761.854,0.05195
738.709,0.04849
715.565,0.03379
692.42,0.05302
669.275,0.05260
646.13,0.04849
622.985,0.04463
599.84,0.03829

File: Rug_Pad_IS_S_220908_R7.dpt
7497.03,0.49824
7473.89,0.50598
7450.74,0.49800
7427.6,0.50768
7404.45,0.49347
7381.31,0.50794
7358.16,0.49482
7335.02,0.49470
7311.87,0.49219
7288.73,0.49363
7265.58,0.48290
7242.44,0.48485
7219.29,0.47665
7196.15,0.47555
7173,0.47459
7149.86,0.47684
7126.71,0.46586
7103.57,0.47161
7080.42,0.46327
7057.28,0.46881
7034.13,0.46275
7010.99,0.46917
6987.84,0.47434
6964.7,0.47156
6941.55,0.46829
6918.41,0.47415
6895.26,0.47600
6872.12,0.47611
6848.97,0.47914
6825.83,0.47875
6802.68,0.47762
6779.54,0.48418
6756.39,0.48027
6733.25,0.48021
6710.1,0.47962
6686.96,0.48716
6663.82,0.48944
6640.67,0.49124
6617.53,0.48908
6594.38,0.49056
6571.24,0.48950
6548.09,0.49324
6524.95,0.48853
6501.8,0.49484
6478.66,0.48985
6455.51,0.49330
6432.37,0.49503
6409.22,0.49217
6386.08,0.49424
6362.93,0.49309
6339.79,0.48939
6316.64,0.49413
6293.5,0.49136
6270.35,0.49694
6247.21,0.49590
6224.06,0.49449
6200.92,0.49529
6177.77,0.49450
6154.63,0.49611
6131.48,0.49300
6108.34,0.48824
6085.19,0.48500
6062.05,0.48164
6038.9,0.47876
6015.76,0.47214
5992.61,0.46676
5969.47,0.46084
5946.32,0.44821
5923.18,0.43177
5900.03,0.40382
5876.89,0.38686
5853.74,0.37077
5830.6,0.34840
5807.45,0.35307
5784.31,0.36724
5761.16,0.38052
5738.02,0.38154
5714.87,0.38034
5691.73,0.37866
5668.58,0.38425
5645.44,0.39012
5622.29,0.38529
5599.15,0.40308
5576,0.42499
5552.86,0.43572
5529.71,0.44310
5506.57,0.44507
5483.42,0.44735
5460.28,0.44702
5437.13,0.44762
5413.99,0.44818
5390.84,0.44821
5367.7,0.44725
5344.55,0.45001
5321.41,0.44938
5298.26,0.44867
5275.12,0.44866
5251.97,0.44224
5228.83,0.43863
5205.68,0.43520
5182.54,0.43332
5159.39,0.43248
5136.25,0.43484
5113.1,0.43587
5089.96,0.43720
5066.81,0.43931
5043.67,0.43980
5020.52,0.44018
4997.38,0.43926
4974.23,0.43736
4951.09,0.43448
4927.94,0.42999
4904.8,0.42890
4881.65,0.42663
4858.51,0.42497
4835.36,0.42291
4812.22,0.42261
4789.07,0.41923
4765.93,0.41688
4742.78,0.41402
4719.64,0.40739
4696.49,0.40159
4673.35,0.40075
4650.2,0.39349
4627.06,0.38115
4603.92,0.38192
4580.77,0.38732
4557.63,0.39297
4534.48,0.38891
4511.34,0.38412
4488.19,0.38168
4465.05,0.37037
4441.9,0.34659
4418.76,0.30906
4395.61,0.27387
4372.47,0.25125
4349.32,0.23277
4326.18,0.22406
4303.03,0.23427
4279.89,0.23358
4256.74,0.23443
4233.6,0.24298
4210.45,0.25656
4187.31,0.26470
4164.16,0.26553
4141.02,0.27599
4117.87,0.28256
4094.73,0.27936
4071.58,0.26361
4048.44,0.26597
4025.29,0.27268
4002.15,0.27299
3979,0.27119
3955.86,0.26800
3932.71,0.27275
3909.57,0.28547
3886.42,0.29201
3863.28,0.30157
3840.13,0.31007
3816.99,0.31475
3793.84,0.31917
3770.7,0.31795
3747.55,0.31848
3724.41,0.31464
3701.26,0.30002
3678.12,0.26059
3654.97,0.22577
3631.83,0.18597
3608.68,0.14734
3585.54,0.12394
3562.39,0.10504
3539.25,0.09323
3516.1,0.08425
3492.96,0.07736
3469.81,0.07136
3446.67,0.06735
3423.52,0.06366
3400.38,0.06082
3377.23,0.06014
3354.09,0.05799
3330.94,0.05749
3307.8,0.05728
3284.65,0.05848
3261.51,0.06253
3238.36,0.06605
3215.22,0.07035
3192.07,0.07375
3168.93,0.07828
3145.78,0.08193
3122.64,0.08320
3099.49,0.08444
3076.35,0.07990
3053.2,0.07609
3030.06,0.06154
3006.91,0.05900
2983.77,0.04121
2960.62,0.02985
2937.48,0.02919
2914.33,0.03082
2891.19,0.03690
2868.04,0.03732
2844.9,0.03965
2821.75,0.07563
2798.61,0.09992
2775.46,0.11949
2752.32,0.12839
2729.17,0.11385
2706.03,0.14022
2682.88,0.14133
2659.74,0.14233
2636.59,0.13017
2613.45,0.12005
2590.3,0.11069
2567.16,0.10607
2544.02,0.09444
2520.87,0.07486
2497.73,0.10040
2474.58,0.15407
2451.44,0.18511
2428.29,0.20256
2405.15,0.21213
2382,0.22522
2358.86,0.23199
2335.71,0.23368
2312.57,0.23758
2289.42,0.24242
2266.28,0.23668
2243.13,0.19955
2219.99,0.23259
2196.84,0.22865
2173.7,0.21868
2150.55,0.20540
2127.41,0.21836
2104.26,0.23319
2081.12,0.23138
2057.97,0.22614
2034.83,0.22247
2011.68,0.23046
1988.54,0.23473
1965.39,0.22488
1942.25,0.22344
1919.1,0.22469
1895.96,0.21012
1872.81,0.19331
1849.67,0.17576
1826.52,0.11719
1803.38,0.07051
1780.23,0.09303
1757.09,0.07079
1733.94,0.04027
1710.8,0.04448
1687.65,0.04707
1664.51,0.03710
1641.36,0.03944
1618.22,0.04352
1595.07,0.04788
1571.93,0.05800
1548.78,0.05951
1525.64,0.06048
1502.49,0.05267
1479.35,0.04187
1456.2,0.03356
1433.06,0.03556
1409.91,0.03834
1386.77,0.03932
1363.62,0.04379
1340.48,0.05082
1317.33,0.05032
1294.19,0.05291
1271.04,0.05028
1247.9,0.04536
1224.75,0.04330
1201.61,0.04072
1178.46,0.03916
1155.32,0.03767
1132.17,0.03733
1109.03,0.04000
1085.88,0.03618
1062.74,0.04250
1039.59,0.04092
1016.45,0.04325
993.304,0.04620
970.159,0.04641
947.014,0.06223
923.869,0.06333
900.724,0.07084
877.579,0.03790
854.434,0.05432
831.289,0.05036
808.144,0.05811
784.999,0.06472
761.854,0.05175
738.709,0.04766
715.565,0.03340
692.42,0.05343
669.275,0.05191
646.13,0.04764
622.985,0.04586
599.84,0.04000

File: Rug_Pad_IS_S_220908_R8.dpt
7497.03,0.49005
7473.89,0.50897
7450.74,0.50435
7427.6,0.49652
7404.45,0.50447
7381.31,0.50290
7358.16,0.49462
7335.02,0.49314
7311.87,0.49228
7288.73,0.48646
7265.58,0.47728
7242.44,0.47550
7219.29,0.47765
7196.15,0.47588
7173,0.47277
7149.86,0.46864
7126.71,0.47620
7103.57,0.47342
7080.42,0.47057
7057.28,0.46037
7034.13,0.46896
7010.99,0.46793
6987.84,0.46768
6964.7,0.46575
6941.55,0.47050
6918.41,0.46609
6895.26,0.47193
6872.12,0.47887
6848.97,0.47418
6825.83,0.47892
6802.68,0.48018
6779.54,0.47654
6756.39,0.47737
6733.25,0.47717
6710.1,0.48245
6686.96,0.48432
6663.82,0.49163
6640.67,0.48698
6617.53,0.49056
6594.38,0.48890
6571.24,0.49081
6548.09,0.49165
6524.95,0.49446
6501.8,0.49050
6478.66,0.49604
6455.51,0.49762
6432.37,0.49556
6409.22,0.49566
6386.08,0.49191
6362.93,0.49612
6339.79,0.49307
6316.64,0.49433
6293.5,0.49459
6270.35,0.49605
6247.21,0.49395
6224.06,0.49505
6200.92,0.49633
6177.77,0.49757
6154.63,0.49618
6131.48,0.49225
6108.34,0.48588
6085.19,0.48771
6062.05,0.48328
6038.9,0.47897
6015.76,0.47210
5992.61,0.46585
5969.47,0.45853
5946.32,0.44637
5923.18,0.43486
5900.03,0.40442
5876.89,0.38783
5853.74,0.36964
5830.6,0.34642
5807.45,0.35220
5784.31,0.36876
5761.16,0.38112
5738.02,0.38409
5714.87,0.37967
5691.73,0.37935
5668.58,0.38538
5645.44,0.39254
5622.29,0.38668
5599.15,0.40201
5576,0.42446
5552.86,0.43606
5529.71,0.44187
5506.57,0.44577
5483.42,0.44763
5460.28,0.44970
5437.13,0.44743
5413.99,0.44735
5390.84,0.44750
5367.7,0.44664
5344.55,0.44880
5321.41,0.44640
5298.26,0.44877
5275.12,0.44850
5251.97,0.44263
5228.83,0.43836
5205.68,0.43557
5182.54,0.43360
5159.39,0.43380
5136.25,0.43530
5113.1,0.43676
5089.96,0.43850
5066.81,0.43938
5043.67,0.43886
5020.52,0.43977
4997.38,0.43985
4974.23,0.43720
4951.09,0.43469
4927.94,0.43032
4904.8,0.42930
4881.65,0.42710
4858.51,0.42601
4835.36,0.42316
4812.22,0.42097
4789.07,0.41992
4765.93,0.41648
4742.78,0.41465
4719.64,0.40860
4696.49,0.40257
4673.35,0.40012
4650.2,0.39313
4627.06,0.38096
4603.92,0.38191
4580.77,0.38733
4557.63,0.39320
4534.48,0.38943
4511.34,0.38388
4488.19,0.38140
4465.05,0.37058
4441.9,0.34639
4418.76,0.30840
4395.61,0.27305
4372.47,0.25126
4349.32,0.23313
4326.18,0.22393
4303.03,0.23422
4279.89,0.23307
4256.74,0.23440
4233.6,0.24295
4210.45,0.25656
4187.31,0.26495
4164.16,0.26561
4141.02,0.27650
4117.87,0.28260
4094.73,0.27969
4071.58,0.26423
4048.44,0.26613
4025.29,0.27240
4002.15,0.27324
3979,0.27117
3955.86,0.26887
3932.71,0.27273
3909.57,0.28607
3886.42,0.29179
3863.28,0.30170
3840.13,0.31021
3816.99,0.31518
3793.84,0.31971
3770.7,0.31841
3747.55,0.31759
3724.41,0.31474
3701.26,0.30146
3678.12,0.26195
3654.97,0.22677
3631.83,0.18765
3608.68,0.14820
3585.54,0.12448
3562.39,0.10656
3539.25,0.09344
3516.1,0.08455
3492.96,0.07750
3469.81,0.07146
3446.67,0.06676
3423.52,0.06349
3400.38,0.06151
3377.23,0.05926
3354.09,0.05871
3330.94,0.05787
3307.8,0.05778
3284.65,0.05911
3261.51,0.06177
3238.36,0.06657
3215.22,0.06989
3192.07,0.07365
3168.93,0.07771
3145.78,0.08150
3122.64,0.08453
3099.49,0.08441
3076.35,0.08045
3053.2,0.07675
3030.06,0.06175
3006.91,0.05930
2983.77,0.04151
2960.62,0.02979
2937.48,0.02915
2914.33,0.03107
2891.19,0.03682
2868.04,0.03714
2844.9,0.03935
2821.75,0.07533
2798.61,0.09957
2775.46,0.11966
2752.32,0.12838
2729.17,0.11339
2706.03,0.14040
2682.88,0.14223
2659.74,0.14264
2636.59,0.13027
2613.45,0.12035
2590.3,0.11108
2567.16,0.10620
2544.02,0.09444
2520.87,0.07481
2497.73,0.10036
2474.58,0.15386
2451.44,0.18575
2428.29,0.20207
2405.15,0.21178
2382,0.22492
2358.86,0.23223
2335.71,0.23442
2312.57,0.23752
2289.42,0.24269
2266.28,0.23741
2243.13,0.20014
2219.99,0.23276
2196.84,0.22872
2173.7,0.21879
2150.55,0.20586
2127.41,0.21867
2104.26,0.23368
2081.12,0.23202
2057.97,0.22689
2034.83,0.22221
2011.68,0.23100
1988.54,0.23497
1965.39,0.22533
1942.25,0.22316
1919.1,0.22503
1895.96,0.21019
1872.81,0.19345
1849.67,0.17568
1826.52,0.11678
1803.38,0.07055
1780.23,0.09301
1757.09,0.07074
1733.94,0.03994
1710.8,0.04478
1687.65,0.04722
1664.51,0.03717
1641.36,0.03951
1618.22,0.04408
1595.07,0.04744
1571.93,0.05740
1548.78,0.05987
1525.64,0.06087
1502.49,0.05249
1479.35,0.04208
1456.2,0.03393
1433.06,0.03564
1409.91,0.03843
1386.77,0.03922
1363.62,0.04376
1340.48,0.05110
1317.33,0.05067
1294.19,0.05265
1271.04,0.05030
1247.9,0.04545
1224.75,0.04373
1201.61,0.04137
1178.46,0.03931
1155.32,0.03785
1132.17,0.03770
1109.03,0.04037
1085.88,0.03728
1062.74,0.04223
1039.59,0.04008
1016.45,0.04243
993.304,0.04606
970.159,0.04706
947.014,0.06204
923.869,0.06340
900.724,0.07059
877.579,0.03813
854.434,0.05381
831.289,0.04962
808.144,0.05826
784.999,0.06464
761.854,0.05255
738.709,0.04823
715.565,0.03302
692.42,0.05342
669.275,0.05213
646.13,0.04940
622.985,0.04254
599.84,0.03945

File: Rug_Pad_IS_T_220908_R4.dpt
7497.03,0.02658
7473.89,0.03343
7450.74,0.03189
7427.6,0.02380
7404.45,0.02545
7381.31,0.02709
7358.16,0.01474
7335.02,0.02761
7311.87,0.02656
7288.73,0.02274
7265.58,0.02216
7242.44,0.01968
7219.29,0.02461
7196.15,0.02817
7173,0.02747
7149.86,0.02679
7126.71,0.02155
7103.57,0.03148
7080.42,0.02586
7057.28,0.02548
7034.13,0.02308
7010.99,0.02454
6987.84,0.02738
6964.7,0.02239
6941.55,0.01817
6918.41,0.02536
6895.26,0.01909
6872.12,0.02134
6848.97,0.02305
6825.83,0.02107
6802.68,0.02366
6779.54,0.02708
6756.39,0.02607
6733.25,0.02520
6710.1,0.02118
6686.96,0.02776
6663.82,0.02538
6640.67,0.02307
6617.53,0.02148
6594.38,0.01706
6571.24,0.02474
6548.09,0.02505
6524.95,0.01903
6501.8,0.02401
6478.66,0.02497
6455.51,0.02110
6432.37,0.01884
6409.22,0.02299
6386.08,0.02029
6362.93,0.02182
6339.79,0.02424
6316.64,0.02570
6293.5,0.02472
6270.35,0.02248
6247.21,0.02285
6224.06,0.02336
6200.92,0.02021
6177.77,0.02480
6154.63,0.02001
6131.48,0.02129
6108.34,0.02318
6085.19,0.02236
6062.05,0.02124
6038.9,0.02036
6015.76,0.02265
5992.61,0.02276
5969.47,0.02077
5946.32,0.02025
5923.18,0.02364
5900.03,0.01968
5876.89,0.02207
5853.74,0.02332
5830.6,0.02444
5807.45,0.02168
5784.31,0.02128
5761.16,0.02299
5738.02,0.02095
5714.87,0.02137
5691.73,0.02226
5668.58,0.02241
5645.44,0.02006
5622.29,0.01986
5599.15,0.02257
5576,0.02149
5552.86,0.02238
5529.71,0.02133
5506.57,0.02166
5483.42,0.02224
5460.28,0.02175
5437.13,0.02111
5413.99,0.02138
5390.84,0.02142
5367.7,0.02198
5344.55,0.02243
5321.41,0.02270
5298.26,0.02326
5275.12,0.02175
5251.97,0.02201
5228.83,0.02172
5205.68,0.02210
5182.54,0.02252
5159.39,0.02230
5136.25,0.02171
5113.1,0.02443
5089.96,0.02259
5066.81,0.02135
5043.67,0.02176
5020.52,0.02296
4997.38,0.02302
4974.23,0.02067
4951.09,0.02156
4927.94,0.02258
4904.8,0.02240
4881.65,0.02093
4858.51,0.02257
4835.36,0.02239
4812.22,0.02307
4789.07,0.02282
4765.93,0.02203
4742.78,0.02128
4719.64,0.02058
4696.49,0.02267
4673.35,0.02182
4650.2,0.02188
4627.06,0.02167
4603.92,0.02249
4580.77,0.02218
4557.63,0.02217
4534.48,0.02165
4511.34,0.02290
4488.19,0.02253
4465.05,0.02168
4441.9,0.02145
4418.76,0.02310
4395.61,0.02169
4372.47,0.02214
4349.32,0.02142
4326.18,0.02133
4303.03,0.02227
4279.89,0.02277
4256.74,0.02227
4233.6,0.02301
4210.45,0.02204
4187.31,0.02236
4164.16,0.02296
4141.02,0.02301
4117.87,0.02181
4094.73,0.02263
4071.58,0.02228
4048.44,0.02245
4025.29,0.02236
4002.15,0.02249
3979,0.02231
3955.86,0.02189
3932.71,0.02198
3909.57,0.02216
3886.42,0.02202
3863.28,0.02276
3840.13,0.02263
3816.99,0.02217
3793.84,0.02250
3770.7,0.02250
3747.55,0.02222
3724.41,0.02236
3701.26,0.02229
3678.12,0.02212
3654.97,0.02185
3631.83,0.02187
3608.68,0.02118
3585.54,0.02163
3562.39,0.02114
3539.25,0.02081
3516.1,0.02023
3492.96,0.02072
3469.81,0.02069
3446.67,0.02012
3423.52,0.02046
3400.38,0.01995
3377.23,0.01948
3354.09,0.02067
3330.94,0.02065
3307.8,0.02054
3284.65,0.02025
3261.51,0.02055
3238.36,0.02029
3215.22,0.02036
3192.07,0.02020
3168.93,0.02057
3145.78,0.02076
3122.64,0.02039
3099.49,0.02032
3076.35,0.02043
3053.2,0.02012
3030.06,0.02016
3006.91,0.02022
2983.77,0.01995
2960.62,0.01920
2937.48,0.01946
2914.33,0.01991
2891.19,0.01984
2868.04,0.02020
2844.9,0.02062
2821.75,0.02068
2798.61,0.02062
2775.46,0.02052
2752.32,0.02007
2729.17,0.02136
2706.03,0.02127
2682.88,0.02107
2659.74,0.02099
2636.59,0.02083
2613.45,0.02094
2590.3,0.02088
2567.16,0.02071
2544.02,0.02100
2520.87,0.02160
2497.73,0.02135
2474.58,0.02085
2451.44,0.02122
2428.29,0.02123
2405.15,0.02087
2382,0.02090
2358.86,0.02082
2335.71,0.02093
2312.57,0.02102
2289.42,0.02069
2266.28,0.02083
2243.13,0.02089
2219.99,0.02084
2196.84,0.02088
2173.7,0.02071
2150.55,0.02047
2127.41,0.02071
2104.26,0.02073
2081.12,0.02069
2057.97,0.02075
2034.83,0.02065
2011.68,0.02054
1988.54,0.02038
1965.39,0.02041
1942.25,0.02056
1919.1,0.02026
1895.96,0.02031
1872.81,0.02023
1849.67,0.01972
1826.52,0.01975
1803.38,0.01930
1780.23,0.01868
1757.09,0.01733
1733.94,0.01945
1710.8,0.02040
1687.65,0.01932
1664.51,0.01843
1641.36,0.01828
1618.22,0.01867
1595.07,0.01868
1571.93,0.01829
1548.78,0.01799
1525.64,0.01846
1502.49,0.01865
1479.35,0.01805
1456.2,0.01845
1433.06,0.01877
1409.91,0.01811
1386.77,0.01794
1363.62,0.01811
1340.48,0.01762
1317.33,0.01687
1294.19,0.01746
1271.04,0.01928
1247.9,0.02001
1224.75,0.01934
1201.61,0.01808
1178.46,0.01810
1155.32,0.01748
1132.17,0.01752
1109.03,0.01876
1085.88,0.01753
1062.74,0.01929
1039.59,0.01946
1016.45,0.01955
993.304,0.02135
970.159,0.01978
947.014,0.01982
923.869,0.01918
900.724,0.01871
877.579,0.01916
854.434,0.01916
831.289,0.01862
808.144,0.01918
784.999,0.01935
761.854,0.01801
738.709,0.01835
715.565,0.01750
692.42,0.01830
669.275,0.01763
646.13,0.01708
622.985,0.01553
599.84,0.01314