Folder: fsri_materials_database/01_Data/Rug_Pad/FTIR/IS (part 3)

File: Rug_Pad_IS_T_220908_R5.dpt
7497.03,0.03006
7473.89,0.02977
7450.74,0.02609
7427.6,0.02296
7404.45,0.02868
7381.31,0.02091
7358.16,0.02689
7335.02,0.02364
7311.87,0.02496
7288.73,0.03219
7265.58,0.02931
7242.44,0.02511
7219.29,0.02112
7196.15,0.02339
7173,0.02544
7149.86,0.02825
7126.71,0.02441
7103.57,0.02695
7080.42,0.02560
7057.28,0.02781
7034.13,0.02411
7010.99,0.02509
6987.84,0.02923
6964.7,0.02385
6941.55,0.02569
6918.41,0.01918
6895.26,0.02330
6872.12,0.02203
6848.97,0.02271
6825.83,0.02394
6802.68,0.02520
6779.54,0.02513
6756.39,0.02408
6733.25,0.02472
6710.1,0.02162
6686.96,0.02408
6663.82,0.02530
6640.67,0.02082
6617.53,0.02038
6594.38,0.02269
6571.24,0.02206
6548.09,0.01571
6524.95,0.02065
6501.8,0.02074
6478.66,0.02310
6455.51,0.02249
6432.37,0.01972
6409.22,0.02026
6386.08,0.02133
6362.93,0.02390
6339.79,0.02234
6316.64,0.01973
6293.5,0.02082
6270.35,0.02481
6247.21,0.02333
6224.06,0.02018
6200.92,0.02175
6177.77,0.02429
6154.63,0.02224
6131.48,0.02433
6108.34,0.02464
6085.19,0.02388
6062.05,0.01995
6038.9,0.01819
6015.76,0.01866
5992.61,0.01898
5969.47,0.02530
5946.32,0.02335
5923.18,0.02205
5900.03,0.02148
5876.89,0.02054
5853.74,0.02249
5830.6,0.02209
5807.45,0.02465
5784.31,0.02235
5761.16,0.02263
5738.02,0.02150
5714.87,0.02174
5691.73,0.02313
5668.58,0.02136
5645.44,0.02184
5622.29,0.02222
5599.15,0.02160
5576,0.02069
5552.86,0.02208
5529.71,0.02216
5506.57,0.02078
5483.42,0.02338
5460.28,0.02246
5437.13,0.02377
5413.99,0.02228
5390.84,0.02337
5367.7,0.02286
5344.55,0.02334
5321.41,0.02378
5298.26,0.02234
5275.12,0.02223
5251.97,0.02345
5228.83,0.02177
5205.68,0.02172
5182.54,0.02282
5159.39,0.02129
5136.25,0.02173
5113.1,0.02163
5089.96,0.02275
5066.81,0.02203
5043.67,0.02244
5020.52,0.02250
4997.38,0.02228
4974.23,0.02230
4951.09,0.02315
4927.94,0.02306
4904.8,0.02265
4881.65,0.02188
4858.51,0.02201
4835.36,0.02277
4812.22,0.02258
4789.07,0.02327
4765.93,0.02299
4742.78,0.02331
4719.64,0.02286
4696.49,0.02272
4673.35,0.02305
4650.2,0.02282
4627.06,0.02335
4603.92,0.02242
4580.77,0.02358
4557.63,0.02295
4534.48,0.02190
4511.34,0.02255
4488.19,0.02214
4465.05,0.02238
4441.9,0.02240
4418.76,0.02280
4395.61,0.02378
4372.47,0.02234
4349.32,0.02323
4326.18,0.02223
4303.03,0.02271
4279.89,0.02321
4256.74,0.02351
4233.6,0.02286
4210.45,0.02349
4187.31,0.02257
4164.16,0.02360
4141.02,0.02259
4117.87,0.02227
4094.73,0.02197
4071.58,0.02290
4048.44,0.02291
4025.29,0.02309
4002.15,0.02285
3979,0.02348
3955.86,0.02307
3932.71,0.02313
3909.57,0.02254
3886.42,0.02276
3863.28,0.02337
3840.13,0.02337
3816.99,0.02376
3793.84,0.02275
3770.7,0.02352
3747.55,0.02330
3724.41,0.02214
3701.26,0.02243
3678.12,0.02202
3654.97,0.02213
3631.83,0.02252
3608.68,0.02239
3585.54,0.02220
3562.39,0.02088
3539.25,0.02157
3516.1,0.02116
3492.96,0.02071
3469.81,0.02097
3446.67,0.02091
3423.52,0.02013
3400.38,0.02118
3377.23,0.02039
3354.09,0.02093
3330.94,0.02012
3307.8,0.02034
3284.65,0.02049
3261.51,0.02039
3238.36,0.02018
3215.22,0.02051
3192.07,0.02147
3168.93,0.02113
3145.78,0.02142
3122.64,0.02113
3099.49,0.02106
3076.35,0.02116
3053.2,0.02095
3030.06,0.02139
3006.91,0.02051
2983.77,0.02024
2960.62,0.01981
2937.48,0.01995
2914.33,0.02093
2891.19,0.02090
2868.04,0.02067
2844.9,0.02145
2821.75,0.02175
2798.61,0.02168
2775.46,0.02184
2752.32,0.02112
2729.17,0.02144
2706.03,0.02135
2682.88,0.02147
2659.74,0.02183
2636.59,0.02198
2613.45,0.02172
2590.3,0.02194
2567.16,0.02159
2544.02,0.02187
2520.87,0.02146
2497.73,0.02137
2474.58,0.02140
2451.44,0.02178
2428.29,0.02153
2405.15,0.02201
2382,0.02158
2358.86,0.02179
2335.71,0.02169
2312.57,0.02174
2289.42,0.02122
2266.28,0.02159
2243.13,0.02129
2219.99,0.02123
2196.84,0.02119
2173.7,0.02139
2150.55,0.02130
2127.41,0.02146
2104.26,0.02129
2081.12,0.02120
2057.97,0.02147
2034.83,0.02164
2011.68,0.02116
1988.54,0.02141
1965.39,0.02106
1942.25,0.02103
1919.1,0.02112
1895.96,0.02128
1872.81,0.02070
1849.67,0.02083
1826.52,0.02055
1803.38,0.02006
1780.23,0.01934
1757.09,0.01801
1733.94,0.02018
1710.8,0.02097
1687.65,0.01973
1664.51,0.01898
1641.36,0.01877
1618.22,0.01937
1595.07,0.01899
1571.93,0.01870
1548.78,0.01857
1525.64,0.01902
1502.49,0.01917
1479.35,0.01852
1456.2,0.01880
1433.06,0.01891
1409.91,0.01863
1386.77,0.01849
1363.62,0.01830
1340.48,0.01827
1317.33,0.01688
1294.19,0.01827
1271.04,0.01982
1247.9,0.02050
1224.75,0.01992
1201.61,0.01832
1178.46,0.01837
1155.32,0.01777
1132.17,0.01837
1109.03,0.01965
1085.88,0.01889
1062.74,0.01989
1039.59,0.01987
1016.45,0.01922
993.304,0.02118
970.159,0.02079
947.014,0.02012
923.869,0.01987
900.724,0.01976
877.579,0.02013
854.434,0.01966
831.289,0.01902
808.144,0.01904
784.999,0.01931
761.854,0.01770
738.709,0.01843
715.565,0.01867
692.42,0.01826
669.275,0.01716
646.13,0.01578
622.985,0.01661
599.84,0.01538