Folder: fsri_materials_database/01_Data/Rug_Pad/FTIR/IS

Note: README.md
# Materials and Products Database
### Repository of materials and products properties and fire test data to improve fire modeling and fire investigation.

This project was supported in part by Award No. 2019-DU-BX-0018, awarded by the National Institute of Justice, Office of Justice Programs, U.S. Department of Justice. The opinions, findings, and conclusions or recommendations expressed in this publication / program / exhibition are those of the author(s) and do not necessarily reflect those of the Department of Justice.

***
***

__Cite this database:__ "McKinnon, M., Weinschenk, C., Dow, N., DiDomizio, M., and Madrzykowski, D. Materials and Products Database (Version 1.0.0), Fire Safety Research Institute, UL Research Institutes. Columbia, MD 21045, 2023."

__Cite the Technical Reference Guide:__ "McKinnon, M., Weinschenk, C., and Madrzykowski, D. Materials and Products Database - Technical Reference Guide, Fire Safety Research Institute, UL Research Institutes. Columbia, MD 21045, 2023."

__Cite the User Guide:__ "McKinnon, M., and Weinschenk, C. Materials and Products Database - User Guide, Fire Safety Research Institute, UL Research Institutes. Columbia, MD 21045, 2023."

***
***

## Database Structure

## 01_Data/
Raw data generated from each apparatus are included here in plain-text format. The data is organized first by material, next by the short name of test apparatus used, and where applicable additional filtering by test settings.

### Test Apparatus and Data File Structure
- __Cone Calorimeter__ (Cone)
    + Data file structure includes the material, the short name for the apparatus, heat flux setting and scan/scalar, date of test, and replicate number. Scan is for the raw output data and scalar is for the initial conditions and high-level test parameters. 
        * Example: __MDF_Cone_HF25scalar_210323_R1__ stands for the first replicate of scalar data generated from a medium density fiber board test in cone calorimeter exposed to 25 kW/m<sup>2</sup> on March 23, 2021.
    + A _Cone_Notes.csv_ is generated for each material from the __plot_Cone_data.py__ script. For materials whose experiments deviated from typical behavior relevant pictures are included in the respective material directory.
- __Fourier Transform Infrared Spectrometer__ (FTIR)
    + The FTIR directory contains subdirectories for the Attenuated Total Reflectance method (ATR) and the Integrating Sphere (IS)
    + Data file structure for the ATR experiment files includes the material, the abbreviated name for the apparatus, date of test, and replicate number. 
        * Example: __MDF_ATR_210323_R5__ stands for the fifth replicate of data collected with the ATR accessory conducted on June 8, 2021.
    + Data file structure for the IS experiment files includes the material, the abbreviated name for the apparatus, the measurand, whether the test is a sample measurement or standard reference, date of test, and replicate number.
        * Example: __OSB_IS_REFLECT_MEAS_2

File: Rug_Pad_IS_S_220908_R1.dpt
7497.03,0.49964
7473.89,0.50906
7450.74,0.50177
7427.6,0.50162
7404.45,0.49913
7381.31,0.49600
7358.16,0.49315
7335.02,0.48573
7311.87,0.48287
7288.73,0.48210
7265.58,0.48470
7242.44,0.47752
7219.29,0.47352
7196.15,0.47069
7173,0.47727
7149.86,0.47460
7126.71,0.47819
7103.57,0.46718
7080.42,0.46971
7057.28,0.46860
7034.13,0.46273
7010.99,0.46101
6987.84,0.45935
6964.7,0.46331
6941.55,0.46676
6918.41,0.47199
6895.26,0.47538
6872.12,0.47191
6848.97,0.47078
6825.83,0.47118
6802.68,0.47381
6779.54,0.47644
6756.39,0.47948
6733.25,0.47661
6710.1,0.47795
6686.96,0.48105
6663.82,0.48000
6640.67,0.48040
6617.53,0.48529
6594.38,0.48581
6571.24,0.48717
6548.09,0.48736
6524.95,0.48952
6501.8,0.49079
6478.66,0.49134
6455.51,0.49232
6432.37,0.49239
6409.22,0.49306
6386.08,0.48991
6362.93,0.49166
6339.79,0.49006
6316.64,0.48793
6293.5,0.49393
6270.35,0.49343
6247.21,0.49432
6224.06,0.49274
6200.92,0.49546
6177.77,0.49366
6154.63,0.49136
6131.48,0.49017
6108.34,0.48393
6085.19,0.48478
6062.05,0.48076
6038.9,0.47859
6015.76,0.47023
5992.61,0.46672
5969.47,0.45632
5946.32,0.44587
5923.18,0.43405
5900.03,0.40158
5876.89,0.38332
5853.74,0.36943
5830.6,0.34530
5807.45,0.35276
5784.31,0.36574
5761.16,0.37881
5738.02,0.38125
5714.87,0.38033
5691.73,0.38042
5668.58,0.38367
5645.44,0.39135
5622.29,0.38524
5599.15,0.40086
5576,0.42209
5552.86,0.43441
5529.71,0.43998
5506.57,0.44179
5483.42,0.44542
5460.28,0.44583
5437.13,0.44432
5413.99,0.44545
5390.84,0.44511
5367.7,0.44786
5344.55,0.44592
5321.41,0.44384
5298.26,0.44358
5275.12,0.44184
5251.97,0.43437
5228.83,0.42586
5205.68,0.42139
5182.54,0.41761
5159.39,0.41957
5136.25,0.42023
5113.1,0.42352
5089.96,0.42613
5066.81,0.42909
5043.67,0.42955
5020.52,0.43052
4997.38,0.43230
4974.23,0.43118
4951.09,0.42937
4927.94,0.42570
4904.8,0.42646
4881.65,0.42430
4858.51,0.42170
4835.36,0.42041
4812.22,0.41931
4789.07,0.41521
4765.93,0.41392
4742.78,0.41217
4719.64,0.40456
4696.49,0.40016
4673.35,0.39756
4650.2,0.39099
4627.06,0.37789
4603.92,0.37981
4580.77,0.38455
4557.63,0.39040
4534.48,0.38738
4511.34,0.38180
4488.19,0.37998
4465.05,0.36851
4441.9,0.34498
4418.76,0.30741
4395.61,0.27243
4372.47,0.25030
4349.32,0.23218
4326.18,0.22306
4303.03,0.23280
4279.89,0.23238
4256.74,0.23396
4233.6,0.24232
4210.45,0.25597
4187.31,0.26282
4164.16,0.26379
4141.02,0.27429
4117.87,0.28071
4094.73,0.27685
4071.58,0.26197
4048.44,0.26377
4025.29,0.26999
4002.15,0.27076
3979,0.26850
3955.86,0.26647
3932.71,0.27038
3909.57,0.28233
3886.42,0.28906
3863.28,0.29798
3840.13,0.30632
3816.99,0.31077
3793.84,0.31468
3770.7,0.31194
3747.55,0.31100
3724.41,0.30676
3701.26,0.28974
3678.12,0.24669
3654.97,0.20663
3631.83,0.16576
3608.68,0.13069
3585.54,0.11086
3562.39,0.09487
3539.25,0.08466
3516.1,0.07630
3492.96,0.07115
3469.81,0.06591
3446.67,0.06219
3423.52,0.05869
3400.38,0.05790
3377.23,0.05607
3354.09,0.05515
3330.94,0.05440
3307.8,0.05451
3284.65,0.05633
3261.51,0.05889
3238.36,0.06297
3215.22,0.06701
3192.07,0.06996
3168.93,0.07416
3145.78,0.07738
3122.64,0.07972
3099.49,0.08005
3076.35,0.07707
3053.2,0.07362
3030.06,0.06022
3006.91,0.05814
2983.77,0.04043
2960.62,0.02958
2937.48,0.02898
2914.33,0.03064
2891.19,0.03630
2868.04,0.03671
2844.9,0.03932
2821.75,0.07463
2798.61,0.09783
2775.46,0.11719
2752.32,0.12597
2729.17,0.11242
2706.03,0.13803
2682.88,0.13967
2659.74,0.14038
2636.59,0.12869
2613.45,0.11948
2590.3,0.10960
2567.16,0.10477
2544.02,0.09337
2520.87,0.07401
2497.73,0.09960
2474.58,0.15230
2451.44,0.18317
2428.29,0.20034
2405.15,0.20970
2382,0.22174
2358.86,0.23046
2335.71,0.23203
2312.57,0.23374
2289.42,0.23723
2266.28,0.23103
2243.13,0.19553
2219.99,0.22623
2196.84,0.22224
2173.7,0.21232
2150.55,0.20014
2127.41,0.21229
2104.26,0.22605
2081.12,0.22413
2057.97,0.21985
2034.83,0.21661
2011.68,0.22504
1988.54,0.22945
1965.39,0.22042
1942.25,0.21881
1919.1,0.22053
1895.96,0.20636
1872.81,0.19028
1849.67,0.17320
1826.52,0.11594
1803.38,0.07007
1780.23,0.09228
1757.09,0.07068
1733.94,0.03992
1710.8,0.04397
1687.65,0.04683
1664.51,0.03622
1641.36,0.03868
1618.22,0.04270
1595.07,0.04759
1571.93,0.05700
1548.78,0.05902
1525.64,0.06042
1502.49,0.05226
1479.35,0.04181
1456.2,0.03403
1433.06,0.03515
1409.91,0.03852
1386.77,0.03922
1363.62,0.04374
1340.48,0.05069
1317.33,0.05037
1294.19,0.05264
1271.04,0.05034
1247.9,0.04502
1224.75,0.04331
1201.61,0.04114
1178.46,0.03872
1155.32,0.03752
1132.17,0.03748
1109.03,0.03980
1085.88,0.03658
1062.74,0.04266
1039.59,0.04034
1016.45,0.04288
993.304,0.04629
970.159,0.04663
947.014,0.06109
923.869,0.06286
900.724,0.06914
877.579,0.03798
854.434,0.05365
831.289,0.04919
808.144,0.05640
784.999,0.06181
761.854,0.05061
738.709,0.04693
715.565,0.03279
692.42,0.05205
669.275,0.05037
646.13,0.04743
622.985,0.04380
599.84,0.03613

File: Rug_Pad_IS_S_220908_R2.dpt
7497.03,0.50112
7473.89,0.49317
7450.74,0.50224
7427.6,0.49889
7404.45,0.50629
7381.31,0.49624
7358.16,0.49683
7335.02,0.49374
7311.87,0.48932
7288.73,0.48604
7265.58,0.48823
7242.44,0.47552
7219.29,0.48097
7196.15,0.47687
7173,0.47278
7149.86,0.47842
7126.71,0.47325
7103.57,0.47356
7080.42,0.46507
7057.28,0.46669
7034.13,0.46807
7010.99,0.46601
6987.84,0.47171
6964.7,0.46320
6941.55,0.46726
6918.41,0.46908
6895.26,0.47306
6872.12,0.47100
6848.97,0.47339
6825.83,0.47294
6802.68,0.47727
6779.54,0.47555
6756.39,0.48363
6733.25,0.47860
6710.1,0.47964
6686.96,0.48038
6663.82,0.48423
6640.67,0.48605
6617.53,0.48441
6594.38,0.49111
6571.24,0.49112
6548.09,0.48912
6524.95,0.49104
6501.8,0.49294
6478.66,0.49527
6455.51,0.49217
6432.37,0.49029
6409.22,0.49414
6386.08,0.49313
6362.93,0.49200
6339.79,0.49316
6316.64,0.49339
6293.5,0.49341
6270.35,0.49421
6247.21,0.49391
6224.06,0.49873
6200.92,0.49615
6177.77,0.49535
6154.63,0.49431
6131.48,0.48946
6108.34,0.48477
6085.19,0.48793
6062.05,0.48411
6038.9,0.48102
6015.76,0.47156
5992.61,0.46607
5969.47,0.45847
5946.32,0.44949
5923.18,0.43306
5900.03,0.40296
5876.89,0.38641
5853.74,0.37106
5830.6,0.34940
5807.45,0.35249
5784.31,0.36828
5761.16,0.38276
5738.02,0.38185
5714.87,0.38246
5691.73,0.37774
5668.58,0.38364
5645.44,0.39077
5622.29,0.38619
5599.15,0.40307
5576,0.42489
5552.86,0.43542
5529.71,0.44228
5506.57,0.44314
5483.42,0.44612
5460.28,0.44705
5437.13,0.44671
5413.99,0.44584
5390.84,0.44689
5367.7,0.44774
5344.55,0.44852
5321.41,0.44711
5298.26,0.44713
5275.12,0.44506
5251.97,0.43660
5228.83,0.43033
5205.68,0.42615
5182.54,0.42252
5159.39,0.42361
5136.25,0.42698
5113.1,0.42894
5089.96,0.43106
5066.81,0.43374
5043.67,0.43512
5020.52,0.43506
4997.38,0.43569
4974.23,0.43342
4951.09,0.43135
4927.94,0.42908
4904.8,0.42789
4881.65,0.42609
4858.51,0.42512
4835.36,0.42219
4812.22,0.42044
4789.07,0.41847
4765.93,0.41657
4742.78,0.41531
4719.64,0.40669
4696.49,0.39996
4673.35,0.40050
4650.2,0.39240
4627.06,0.38012
4603.92,0.38111
4580.77,0.38673
4557.63,0.39196
4534.48,0.38988
4511.34,0.38365
4488.19,0.38128
4465.05,0.37078
4441.9,0.34682
4418.76,0.30819
4395.61,0.27411
4372.47,0.25214
4349.32,0.23326
4326.18,0.22411
4303.03,0.23471
4279.89,0.23266
4256.74,0.23536
4233.6,0.24296
4210.45,0.25657
4187.31,0.26444
4164.16,0.26566
4141.02,0.27542
4117.87,0.28157
4094.73,0.27875
4071.58,0.26341
4048.44,0.26483
4025.29,0.27169
4002.15,0.27236
3979,0.27048
3955.86,0.26727
3932.71,0.27246
3909.57,0.28440
3886.42,0.29024
3863.28,0.30002
3840.13,0.30846
3816.99,0.31251
3793.84,0.31666
3770.7,0.31535
3747.55,0.31341
3724.41,0.30943
3701.26,0.29428
3678.12,0.25234
3654.97,0.21383
3631.83,0.17271
3608.68,0.13658
3585.54,0.11473
3562.39,0.09839
3539.25,0.08706
3516.1,0.07925
3492.96,0.07313
3469.81,0.06792
3446.67,0.06394
3423.52,0.06125
3400.38,0.05867
3377.23,0.05769
3354.09,0.05651
3330.94,0.05647
3307.8,0.05539
3284.65,0.05715
3261.51,0.05903
3238.36,0.06350
3215.22,0.06802
3192.07,0.07098
3168.93,0.07523
3145.78,0.07908
3122.64,0.08073
3099.49,0.08176
3076.35,0.07841
3053.2,0.07412
3030.06,0.06090
3006.91,0.05842
2983.77,0.04090
2960.62,0.02975
2937.48,0.02890
2914.33,0.03066
2891.19,0.03664
2868.04,0.03690
2844.9,0.03954
2821.75,0.07521
2798.61,0.09872
2775.46,0.11839
2752.32,0.12694
2729.17,0.11278
2706.03,0.13905
2682.88,0.14080
2659.74,0.14181
2636.59,0.12948
2613.45,0.12005
2590.3,0.11015
2567.16,0.10595
2544.02,0.09416
2520.87,0.07492
2497.73,0.09993
2474.58,0.15309
2451.44,0.18426
2428.29,0.20132
2405.15,0.21109
2382,0.22378
2358.86,0.22977
2335.71,0.23236
2312.57,0.23569
2289.42,0.23964
2266.28,0.23391
2243.13,0.19748
2219.99,0.22900
2196.84,0.22478
2173.7,0.21543
2150.55,0.20296
2127.41,0.21482
2104.26,0.22889
2081.12,0.22695
2057.97,0.22251
2034.83,0.21924
2011.68,0.22754
1988.54,0.23211
1965.39,0.22252
1942.25,0.22103
1919.1,0.22244
1895.96,0.20829
1872.81,0.19195
1849.67,0.17475
1826.52,0.11628
1803.38,0.07035
1780.23,0.09265
1757.09,0.07087
1733.94,0.04033
1710.8,0.04464
1687.65,0.04696
1664.51,0.03643
1641.36,0.03889
1618.22,0.04323
1595.07,0.04761
1571.93,0.05706
1548.78,0.05935
1525.64,0.06036
1502.49,0.05237
1479.35,0.04198
1456.2,0.03366
1433.06,0.03557
1409.91,0.03843
1386.77,0.03976
1363.62,0.04372
1340.48,0.05100
1317.33,0.05055
1294.19,0.05301
1271.04,0.05058
1247.9,0.04580
1224.75,0.04369
1201.61,0.04087
1178.46,0.03867
1155.32,0.03743
1132.17,0.03772
1109.03,0.04033
1085.88,0.03699
1062.74,0.04254
1039.59,0.04083
1016.45,0.04315
993.304,0.04617
970.159,0.04637
947.014,0.06191
923.869,0.06328
900.724,0.07000
877.579,0.03830
854.434,0.05369
831.289,0.04970
808.144,0.05714
784.999,0.06236
761.854,0.05108
738.709,0.04681
715.565,0.03269
692.42,0.05168
669.275,0.05083
646.13,0.04693
622.985,0.04220
599.84,0.03721

File: Rug_Pad_IS_S_220908_R3.dpt
7497.03,0.49724
7473.89,0.50496
7450.74,0.49604
7427.6,0.50126
7404.45,0.49110
7381.31,0.50309
7358.16,0.48147
7335.02,0.49086
7311.87,0.48150
7288.73,0.47521
7265.58,0.48341
7242.44,0.47496
7219.29,0.47833
7196.15,0.46897
7173,0.47609
7149.86,0.47073
7126.71,0.46965
7103.57,0.47058
7080.42,0.46592
7057.28,0.46092
7034.13,0.46279
7010.99,0.47095
6987.84,0.47012
6964.7,0.47032
6941.55,0.46737
6918.41,0.47231
6895.26,0.46847
6872.12,0.47154
6848.97,0.47257
6825.83,0.47788
6802.68,0.47955
6779.54,0.47733
6756.39,0.48289
6733.25,0.47947
6710.1,0.48369
6686.96,0.48416
6663.82,0.48769
6640.67,0.48689
6617.53,0.48739
6594.38,0.48961
6571.24,0.48975
6548.09,0.49568
6524.95,0.48803
6501.8,0.49588
6478.66,0.49044
6455.51,0.49139
6432.37,0.49179
6409.22,0.49627
6386.08,0.48900
6362.93,0.49158
6339.79,0.49375
6316.64,0.49106
6293.5,0.49275
6270.35,0.49848
6247.21,0.49281
6224.06,0.49375
6200.92,0.49338
6177.77,0.49578
6154.63,0.49493
6131.48,0.49081
6108.34,0.48772
6085.19,0.48634
6062.05,0.48360
6038.9,0.48031
6015.76,0.47192
5992.61,0.46815
5969.47,0.45855
5946.32,0.44755
5923.18,0.43529
5900.03,0.40329
5876.89,0.38371
5853.74,0.37302
5830.6,0.34778
5807.45,0.35345
5784.31,0.36619
5761.16,0.38142
5738.02,0.38017
5714.87,0.37792
5691.73,0.38095
5668.58,0.38380
5645.44,0.39091
5622.29,0.38682
5599.15,0.40202
5576,0.42379
5552.86,0.43486
5529.71,0.44190
5506.57,0.44462
5483.42,0.44627
5460.28,0.44713
5437.13,0.44750
5413.99,0.44790
5390.84,0.44699
5367.7,0.44829
5344.55,0.44826
5321.41,0.44575
5298.26,0.44805
5275.12,0.44580
5251.97,0.43844
5228.83,0.43335
5205.68,0.42845
5182.54,0.42702
5159.39,0.42646
5136.25,0.42793
5113.1,0.43037
5089.96,0.43192
5066.81,0.43350
5043.67,0.43590
5020.52,0.43607
4997.38,0.43696
4974.23,0.43546
4951.09,0.43161
4927.94,0.42938
4904.8,0.42804
4881.65,0.42629
4858.51,0.42352
4835.36,0.42252
4812.22,0.42028
4789.07,0.41771
4765.93,0.41687
4742.78,0.41438
4719.64,0.40735
4696.49,0.40141
4673.35,0.39958
4650.2,0.39301
4627.06,0.38138
4603.92,0.38108
4580.77,0.38617
4557.63,0.39200
4534.48,0.38882
4511.34,0.38398
4488.19,0.38068
4465.05,0.37052
4441.9,0.34587
4418.76,0.30899
4395.61,0.27370
4372.47,0.25253
4349.32,0.23296
4326.18,0.22353
4303.03,0.23456
4279.89,0.23339
4256.74,0.23465
4233.6,0.24286
4210.45,0.25657
4187.31,0.26431
4164.16,0.26508
4141.02,0.27546
4117.87,0.28248
4094.73,0.27900
4071.58,0.26324
4048.44,0.26513
4025.29,0.27172
4002.15,0.27211
3979,0.27067
3955.86,0.26682
3932.71,0.27165
3909.57,0.28510
3886.42,0.29125
3863.28,0.29971
3840.13,0.30820
3816.99,0.31361
3793.84,0.31717
3770.7,0.31589
3747.55,0.31475
3724.41,0.31106
3701.26,0.29657
3678.12,0.25566
3654.97,0.21782
3631.83,0.17636
3608.68,0.14000
3585.54,0.11730
3562.39,0.10079
3539.25,0.08898
3516.1,0.08036
3492.96,0.07388
3469.81,0.06864
3446.67,0.06490
3423.52,0.06237
3400.38,0.05982
3377.23,0.05795
3354.09,0.05713
3330.94,0.05648
3307.8,0.05592
3284.65,0.05704
3261.51,0.06073
3238.36,0.06498
3215.22,0.06791
3192.07,0.07250
3168.93,0.07603
3145.78,0.07974
3122.64,0.08179
3099.49,0.08215
3076.35,0.07919
3053.2,0.07498
3030.06,0.06118
3006.91,0.05914
2983.77,0.04067
2960.62,0.02992
2937.48,0.02909
2914.33,0.03011
2891.19,0.03685
2868.04,0.03690
2844.9,0.03934
2821.75,0.07521
2798.61,0.09867
2775.46,0.11857
2752.32,0.12734
2729.17,0.11366
2706.03,0.13963
2682.88,0.14125
2659.74,0.14211
2636.59,0.13003
2613.45,0.12027
2590.3,0.11093
2567.16,0.10580
2544.02,0.09432
2520.87,0.07423
2497.73,0.10009
2474.58,0.15333
2451.44,0.18482
2428.29,0.20165
2405.15,0.21122
2382,0.22392
2358.86,0.23098
2335.71,0.23255
2312.57,0.23584
2289.42,0.24057
2266.28,0.23470
2243.13,0.19829
2219.99,0.23014
2196.84,0.22578
2173.7,0.21616
2150.55,0.20357
2127.41,0.21573
2104.26,0.23021
2081.12,0.22813
2057.97,0.22372
2034.83,0.21977
2011.68,0.22843
1988.54,0.23231
1965.39,0.22348
1942.25,0.22127
1919.1,0.22339
1895.96,0.20893
1872.81,0.19219
1849.67,0.17486
1826.52,0.11647
1803.38,0.07043
1780.23,0.09263
1757.09,0.07036
1733.94,0.04039
1710.8,0.04433
1687.65,0.04716
1664.51,0.03640
1641.36,0.03890
1618.22,0.04358
1595.07,0.04766
1571.93,0.05767
1548.78,0.05923
1525.64,0.06058
1502.49,0.05200
1479.35,0.04199
1456.2,0.03396
1433.06,0.03559
1409.91,0.03847
1386.77,0.03910
1363.62,0.04352
1340.48,0.05096
1317.33,0.05036
1294.19,0.05293
1271.04,0.05049
1247.9,0.04546
1224.75,0.04384
1201.61,0.04081
1178.46,0.03883
1155.32,0.03711
1132.17,0.03746
1109.03,0.03995
1085.88,0.03669
1062.74,0.04216
1039.59,0.03993
1016.45,0.04230
993.304,0.04624
970.159,0.04678
947.014,0.06193
923.869,0.06307
900.724,0.07054
877.579,0.03789
854.434,0.05409
831.289,0.04967
808.144,0.05828
784.999,0.06402
761.854,0.05127
738.709,0.04667
715.565,0.03295
692.42,0.05248
669.275,0.05154
646.13,0.04697
622.985,0.04188
599.84,0.03552

File: Rug_Pad_IS_S_220908_R4.dpt
7497.03,0.50990
7473.89,0.49952
7450.74,0.50424
7427.6,0.49825
7404.45,0.50407
7381.31,0.49273
7358.16,0.48770
7335.02,0.48916
7311.87,0.47928
7288.73,0.48501
7265.58,0.48187
7242.44,0.47982
7219.29,0.47131
7196.15,0.47005
7173,0.46745
7149.86,0.47418
7126.71,0.47122
7103.57,0.47102
7080.42,0.47598
7057.28,0.46802
7034.13,0.46946
7010.99,0.47036
6987.84,0.47191
6964.7,0.47216
6941.55,0.47027
6918.41,0.46421
6895.26,0.47427
6872.12,0.47108
6848.97,0.46941
6825.83,0.47955
6802.68,0.47799
6779.54,0.47866
6756.39,0.48405
6733.25,0.47732
6710.1,0.48254
6686.96,0.48392
6663.82,0.48312
6640.67,0.49053
6617.53,0.48720
6594.38,0.49075
6571.24,0.49229
6548.09,0.49129
6524.95,0.49347
6501.8,0.49630
6478.66,0.49154
6455.51,0.48953
6432.37,0.49718
6409.22,0.49557
6386.08,0.49894
6362.93,0.49226
6339.79,0.49611
6316.64,0.49595
6293.5,0.49529
6270.35,0.49761
6247.21,0.49571
6224.06,0.49577
6200.92,0.49386
6177.77,0.49731
6154.63,0.49436
6131.48,0.49228
6108.34,0.48577
6085.19,0.48767
6062.05,0.48397
6038.9,0.48155
6015.76,0.47261
5992.61,0.46942
5969.47,0.45842
5946.32,0.45126
5923.18,0.43321
5900.03,0.40527
5876.89,0.38641
5853.74,0.37297
5830.6,0.34813
5807.45,0.35415
5784.31,0.36819
5761.16,0.38302
5738.02,0.38377
5714.87,0.37963
5691.73,0.38179
5668.58,0.38457
5645.44,0.39383
5622.29,0.38816
5599.15,0.40381
5576,0.42500
5552.86,0.43400
5529.71,0.44200
5506.57,0.44619
5483.42,0.44881
5460.28,0.44865
5437.13,0.44762
5413.99,0.44819
5390.84,0.44809
5367.7,0.44792
5344.55,0.44961
5321.41,0.44757
5298.26,0.44953
5275.12,0.44758
5251.97,0.44093
5228.83,0.43473
5205.68,0.43005
5182.54,0.42804
5159.39,0.42998
5136.25,0.43117
5113.1,0.43285
5089.96,0.43597
5066.81,0.43559
5043.67,0.43793
5020.52,0.43873
4997.38,0.43859
4974.23,0.43614
4951.09,0.43266
4927.94,0.43137
4904.8,0.42953
4881.65,0.42680
4858.51,0.42534
4835.36,0.42429
4812.22,0.42305
4789.07,0.41958
4765.93,0.41711
4742.78,0.41513
4719.64,0.40803
4696.49,0.40211
4673.35,0.40034
4650.2,0.39309
4627.06,0.38093
4603.92,0.38276
4580.77,0.38732
4557.63,0.39316
4534.48,0.38967
4511.34,0.38519
4488.19,0.38208
4465.05,0.37144
4441.9,0.34747
4418.76,0.30907
4395.61,0.27425
4372.47,0.25258
4349.32,0.23351
4326.18,0.22455
4303.03,0.23464
4279.89,0.23413
4256.74,0.23579
4233.6,0.24332
4210.45,0.25722
4187.31,0.26504
4164.16,0.26539
4141.02,0.27628
4117.87,0.28287
4094.73,0.27926
4071.58,0.26484
4048.44,0.26617
4025.29,0.27247
4002.15,0.27290
3979,0.27117
3955.86,0.26850
3932.71,0.27259
3909.57,0.28496
3886.42,0.29205
3863.28,0.30158
3840.13,0.30894
3816.99,0.31476
3793.84,0.31807
3770.7,0.31752
3747.55,0.31662
3724.41,0.31307
3701.26,0.29853
3678.12,0.25782
3654.97,0.22063
3631.83,0.17998
3608.68,0.14283
3585.54,0.11996
3562.39,0.10292
3539.25,0.08988
3516.1,0.08195
3492.96,0.07550
3469.81,0.06986
3446.67,0.06545
3423.52,0.06217
3400.38,0.05968
3377.23,0.05842
3354.09,0.05772
3330.94,0.05597
3307.8,0.05667
3284.65,0.05789
3261.51,0.06139
3238.36,0.06491
3215.22,0.06871
3192.07,0.07243
3168.93,0.07664
3145.78,0.08045
3122.64,0.08276
3099.49,0.08329
3076.35,0.07952
3053.2,0.07527
3030.06,0.06142
3006.91,0.05860
2983.77,0.04104
2960.62,0.02951
2937.48,0.02895
2914.33,0.03100
2891.19,0.03671
2868.04,0.03742
2844.9,0.03995
2821.75,0.07505
2798.61,0.09912
2775.46,0.11942
2752.32,0.12789
2729.17,0.11397
2706.03,0.13986
2682.88,0.14150
2659.74,0.14208
2636.59,0.12960
2613.45,0.12061
2590.3,0.11082
2567.16,0.10607
2544.02,0.09453
2520.87,0.07476
2497.73,0.10001
2474.58,0.15359
2451.44,0.18535
2428.29,0.20193
2405.15,0.21198
2382,0.22512
2358.86,0.23185
2335.71,0.23385
2312.57,0.23696
2289.42,0.24155
2266.28,0.23566
2243.13,0.19893
2219.99,0.23088
2196.84,0.22722
2173.7,0.21739
2150.55,0.20449
2127.41,0.21724
2104.26,0.23179
2081.12,0.23045
2057.97,0.22491
2034.83,0.22146
2011.68,0.22947
1988.54,0.23376
1965.39,0.22410
1942.25,0.22249
1919.1,0.22420
1895.96,0.20942
1872.81,0.19311
1849.67,0.17544
1826.52,0.11696
1803.38,0.07087
1780.23,0.09277
1757.09,0.07081
1733.94,0.04068
1710.8,0.04459
1687.65,0.04728
1664.51,0.03687
1641.36,0.03942
1618.22,0.04335
1595.07,0.04795
1571.93,0.05778
1548.78,0.05958
1525.64,0.06036
1502.49,0.05232
1479.35,0.04234
1456.2,0.03395
1433.06,0.03533
1409.91,0.03847
1386.77,0.03951
1363.62,0.04361
1340.48,0.05097
1317.33,0.05038
1294.19,0.05304
1271.04,0.05033
1247.9,0.04557
1224.75,0.04342
1201.61,0.04085
1178.46,0.03900
1155.32,0.03741
1132.17,0.03781
1109.03,0.03991
1085.88,0.03670
1062.74,0.04218
1039.59,0.04043
1016.45,0.04266
993.304,0.04614
970.159,0.04713
947.014,0.06172
923.869,0.06323
900.724,0.07076
877.579,0.03802
854.434,0.05403
831.289,0.04921
808.144,0.05752
784.999,0.06345
761.854,0.05186
738.709,0.04801
715.565,0.03295
692.42,0.05339
669.275,0.05219
646.13,0.04696
622.985,0.04255
599.84,0.03718