Folder: fsri_materials_database/01_Data/Cotton_Raw/Cone

Note: README.md
# Materials and Products Database
### Repository of materials and products properties and fire test data to improve fire modeling and fire investigation.

This project was supported in part by Award No. 2019-DU-BX-0018, awarded by the National Institute of Justice, Office of Justice Programs, U.S. Department of Justice. The opinions, findings, and conclusions or recommendations expressed in this publication / program / exhibition are those of the author(s) and do not necessarily reflect those of the Department of Justice.

***
***

__Cite this database:__ "McKinnon, M., Weinschenk, C., Dow, N., DiDomizio, M., and Madrzykowski, D. Materials and Products Database (Version 1.0.0), Fire Safety Research Institute, UL Research Institutes. Columbia, MD 21045, 2023."

__Cite the Technical Reference Guide:__ "McKinnon, M., Weinschenk, C., and Madrzykowski, D. Materials and Products Database - Technical Reference Guide, Fire Safety Research Institute, UL Research Institutes. Columbia, MD 21045, 2023."

__Cite the User Guide:__ "McKinnon, M., and Weinschenk, C. Materials and Products Database - User Guide, Fire Safety Research Institute, UL Research Institutes. Columbia, MD 21045, 2023."

***
***

## Database Structure

## 01_Data/
Raw data generated from each apparatus are included here in plain-text format. The data is organized first by material, next by the short name of test apparatus used, and where applicable additional filtering by test settings.

### Test Apparatus and Data File Structure
- __Cone Calorimeter__ (Cone)
    + Data file structure includes the material, the short name for the apparatus, heat flux setting and scan/scalar, date of test, and replicate number. Scan is for the raw output data and scalar is for the initial conditions and high-level test parameters. 
        * Example: __MDF_Cone_HF25scalar_210323_R1__ stands for the first replicate of scalar data generated from a medium density fiber board test in cone calorimeter exposed to 25 kW/m<sup>2</sup> on March 23, 2021.
    + A _Cone_Notes.csv_ is generated for each material from the __plot_Cone_data.py__ script. For materials whose experiments deviated from typical behavior relevant pictures are included in the respective material directory.
- __Fourier Transform Infrared Spectrometer__ (FTIR)
    + The FTIR directory contains subdirectories for the Attenuated Total Reflectance method (ATR) and the Integrating Sphere (IS)
    + Data file structure for the ATR experiment files includes the material, the abbreviated name for the apparatus, date of test, and replicate number. 
        * Example: __MDF_ATR_210323_R5__ stands for the fifth replicate of data collected with the ATR accessory conducted on June 8, 2021.
    + Data file structure for the IS experiment files includes the material, the abbreviated name for the apparatus, the measurand, whether the test is a sample measurement or standard reference, date of test, and replicate number.
        * Example: __OSB_IS_REFLECT_MEAS_2

File: Cotton_Raw_HRRPUA_25.csv
Time after Ignition,Cotton_Raw_R1,Cotton_Raw_R2,Cotton_Raw_R3,Mean,Std. Dev.
0.0,15.1,24.9,17.1,19.0,5.2
0.5,22.8,30.3,23.2,25.4,4.3
1.0,29.0,35.4,26.4,30.3,4.7
1.5,34.9,39.3,31.6,35.2,3.8
2.0,39.3,42.0,35.8,39.0,3.1
2.5,42.7,44.9,38.4,42.0,3.3
3.0,46.2,47.7,42.3,45.4,2.8
3.5,48.8,48.8,44.0,47.2,2.7
4.0,50.0,51.7,46.0,49.2,2.9
4.5,52.3,53.3,47.7,51.1,3.0
5.0,53.5,53.6,48.9,52.0,2.7
5.5,53.1,55.1,49.6,52.6,2.8
6.0,54.4,57.1,50.2,53.9,3.5
6.5,55.4,58.0,51.4,54.9,3.4
7.0,54.4,58.5,51.6,54.8,3.4
7.5,56.0,60.0,51.3,55.7,4.4
8.0,55.8,59.5,52.1,55.8,3.7
8.5,56.0,60.9,52.1,56.4,4.4
9.0,57.3,61.0,53.3,57.2,3.9
9.5,57.4,62.1,53.9,57.8,4.1
10.0,56.2,61.7,53.6,57.2,4.1
10.5,56.9,60.9,53.5,57.1,3.7
11.0,57.5,62.7,55.7,58.7,3.6
11.5,58.2,62.2,54.5,58.3,3.8
12.0,58.5,61.6,55.0,58.4,3.3
12.5,59.2,63.0,54.9,59.0,4.0
13.0,58.4,62.8,56.1,59.1,3.4
13.5,59.8,62.8,56.8,59.8,3.0
14.0,59.0,61.6,57.6,59.4,2.0
14.5,60.1,62.4,57.5,60.0,2.4
15.0,60.6,62.4,57.5,60.2,2.5
15.5,60.5,61.1,57.8,59.8,1.8
16.0,59.1,61.6,58.5,59.7,1.7
16.5,61.7,61.8,57.5,60.3,2.5
17.0,60.2,62.1,58.0,60.1,2.1
17.5,60.1,60.7,58.5,59.8,1.2
18.0,59.9,61.9,59.2,60.3,1.4
18.5,59.9,61.9,59.0,60.2,1.5
19.0,59.9,61.3,59.3,60.2,1.0
19.5,60.3,61.0,59.6,60.3,0.7
20.0,59.8,60.7,59.1,59.9,0.8
20.5,59.0,61.2,59.4,59.9,1.2
21.0,57.4,62.2,58.7,59.5,2.5
21.5,57.6,61.1,59.0,59.2,1.8
22.0,57.0,60.2,58.2,58.4,1.6
22.5,57.9,61.7,57.6,59.0,2.3
23.0,56.7,61.5,58.0,58.8,2.5
23.5,56.0,62.7,58.1,58.9,3.4
24.0,56.2,62.3,57.5,58.6,3.2
24.5,56.8,61.7,57.9,58.8,2.5
25.0,55.3,62.2,57.6,58.4,3.5
25.5,55.1,62.3,57.5,58.3,3.7
26.0,54.7,61.9,56.9,57.9,3.7
26.5,54.8,62.0,56.4,57.7,3.8
27.0,53.8,61.6,57.0,57.4,3.9
27.5,53.3,61.9,57.0,57.4,4.3
28.0,53.6,61.1,57.0,57.2,3.8
28.5,52.1,61.2,56.6,56.6,4.5
29.0,52.1,61.1,56.1,56.4,4.5
29.5,52.0,60.7,55.8,56.2,4.4
30.0,52.0,61.4,55.6,56.3,4.8
30.5,50.2,60.6,56.3,55.7,5.2
31.0,49.6,60.6,56.1,55.4,5.5
31.5,49.5,59.8,55.1,54.8,5.2
32.0,50.1,59.5,55.1,54.9,4.7
32.5,50.0,59.5,55.8,55.1,4.8
33.0,49.2,59.1,54.5,54.3,5.0
33.5,49.2,59.5,54.2,54.3,5.2
34.0,48.8,60.4,54.3,54.5,5.8
34.5,49.0,60.4,53.9,54.4,5.7
35.0,49.1,60.1,53.2,54.2,5.6
35.5,49.1,59.3,53.3,53.9,5.2
36.0,48.2,59.0,53.7,53.6,5.4
36.5,47.8,59.5,53.3,53.5,5.9
37.0,47.7,59.5,54.1,53.8,5.9
37.5,47.9,59.2,54.5,53.9,5.7
38.0,47.0,58.6,54.1,53.2,5.9
38.5,47.4,59.1,53.9,53.5,5.9
39.0,47.2,59.1,54.2,53.5,6.0
39.5,46.8,58.4,54.6,53.3,5.9
40.0,46.8,58.4,54.7,53.3,5.9
40.5,45.4,58.4,55.6,53.1,6.9
41.0,45.2,58.4,54.1,52.5,6.7
41.5,44.9,58.3,54.2,52.5,6.9
42.0,44.5,56.9,54.3,51.9,6.6
42.5,44.5,58.1,54.4,52.3,7.0
43.0,44.2,57.2,53.2,51.5,6.7
43.5,44.5,57.3,53.8,51.9,6.7
44.0,43.4,57.6,53.1,51.4,7.3
44.5,43.1,56.9,53.7,51.2,7.2
45.0,42.8,55.8,54.0,50.9,7.0
45.5,42.8,55.6,53.1,50.5,6.8
46.0,42.2,56.1,53.7,50.7,7.4
46.5,41.8,56.9,52.1,50.3,7.7
47.0,41.6,55.7,52.4,49.9,7.3
47.5,41.1,56.4,52.3,49.9,7.9
48.0,40.8,56.1,51.2,49.4,7.8
48.5,40.3,56.7,51.4,49.4,8.4
49.0,40.2,55.4,50.0,48.5,7.7
49.5,39.1,55.2,49.6,48.0,8.1
50.0,38.8,55.3,49.6,47.9,8.4
50.5,39.0,56.2,48.9,48.0,8.6
51.0,38.4,55.2,48.1,47.2,8.4
51.5,38.0,55.6,48.2,47.3,8.8
52.0,38.3,54.1,48.3,46.9,8.0
52.5,37.4,54.9,47.2,46.5,8.7
53.0,38.1,54.1,47.6,46.6,8.1
53.5,38.1,53.1,46.8,46.0,7.5
54.0,37.3,53.8,46.5,45.9,8.3
54.5,37.8,53.6,45.8,45.8,7.9
55.0,37.4,52.5,45.0,45.0,7.5
55.5,37.4,52.9,44.5,44.9,7.7
56.0,38.1,52.6,44.8,45.1,7.3
56.5,38.2,52.3,44.4,45.0,7.1
57.0,38.6,51.8,44.4,44.9,6.6
57.5,38.3,52.1,43.1,44.5,7.0
58.0,38.2,51.6,42.8,44.2,6.8
58.5,37.7,51.8,42.4,44.0,7.2
59.0,38.0,52.8,42.3,44.4,7.6
59.5,37.4,51.9,41.6,43.6,7.5
60.0,37.2,51.5,42.1,43.6,7.3
60.5,37.3,50.9,41.7,43.3,6.9
61.0,36.6,50.3,41.3,42.7,6.9
61.5,36.0,49.6,41.8,42.5,6.8
62.0,35.4,50.1,40.8,42.1,7.4
62.5,34.8,49.3,40.9,41.7,7.3
63.0,34.2,49.4,40.7,41.5,7.6
63.5,34.3,49.1,40.2,41.2,7.4
64.0,33.7,48.7,40.2,40.9,7.5
64.5,33.2,48.4,39.8,40.4,7.6
65.0,33.2,49.0,39.5,40.6,7.9
65.5,33.4,48.0,39.2,40.2,7.3
66.0,32.4,48.3,39.2,40.0,8.0
66.5,32.2,47.6,38.9,39.6,7.7
67.0,32.0,47.4,38.4,39.3,7.7
67.5,32.2,47.5,38.4,39.4,7.7
68.0,32.0,47.1,38.5,39.2,7.6
68.5,31.7,47.5,38.5,39.2,7.9
69.0,31.4,46.7,39.0,39.1,7.7
69.5,30.5,45.9,38.1,38.2,7.7
70.0,30.7,45.5,38.5,38.2,7.4
70.5,31.0,45.0,38.5,38.2,7.0
71.0,30.7,45.4,38.5,38.2,7.3
71.5,29.9,45.1,38.7,37.9,7.6
72.0,30.3,44.4,39.2,37.9,7.1
72.5,30.0,44.7,39.2,38.0,7.4
73.0,30.1,43.8,38.7,37.6,6.9
73.5,29.7,43.1,39.4,37.4,6.9
74.0,29.8,42.5,38.9,37.1,6.6
74.5,29.5,41.8,38.4,36.6,6.4
75.0,29.1,41.0,38.4,36.2,6.2
75.5,29.1,40.4,38.3,35.9,6.0
76.0,28.8,40.1,38.3,35.7,6.1
76.5,29.0,40.3,38.2,35.8,6.0
77.0,29.1,39.5,37.9,35.5,5.6
77.5,29.3,39.7,38.4,35.8,5.7
78.0,29.0,39.7,38.4,35.7,5.9
78.5,29.1,38.9,38.2,35.4,5.5
79.0,28.7,38.7,38.4,35.3,5.7
79.5,29.0,38.7,37.1,35.0,5.2
80.0,28.6,39.6,36.8,35.0,5.7
80.5,29.1,39.3,36.1,34.8,5.2
81.0,29.1,38.8,35.5,34.4,4.9
81.5,29.2,38.7,35.3,34.4,4.8
82.0,28.9,39.1,34.6,34.2,5.1
82.5,29.7,37.7,34.5,34.0,4.0
83.0,28.5,37.7,34.2,33.5,4.6
83.5,29.0,37.6,33.7,33.4,4.3
84.0,29.0,37.1,33.1,33.1,4.1
84.5,29.3,36.9,32.7,32.9,3.8
85.0,28.9,36.9,32.4,32.7,4.0
85.5,28.9,37.1,32.4,32.8,4.1
86.0,29.1,36.1,31.4,32.2,3.6
86.5,29.0,36.4,31.6,32.3,3.7
87.0,29.0,36.5,31.4,32.3,3.8
87.5,28.9,36.2,31.0,32.0,3.8
88.0,28.9,36.0,30.3,31.7,3.8
88.5,29.6,37.1,30.6,32.4,4.1
89.0,29.3,36.3,30.3,32.0,3.8
89.5,29.1,36.1,30.6,31.9,3.7
90.0,29.4,36.3,30.0,31.9,3.8
90.5,29.8,36.0,30.1,32.0,3.5
91.0,29.6,35.6,30.1,31.8,3.4
91.5,29.7,36.0,30.1,31.9,3.5
92.0,29.7,36.1,30.2,32.0,3.6
92.5,30.0,35.8,30.1,32.0,3.3
93.0,30.1,35.7,29.9,31.9,3.3
93.5,30.1,35.8,29.4,31.8,3.5
94.0,29.7,35.8,29.8,31.7,3.5
94.5,29.8,35.3,29.0,31.4,3.4
95.0,29.7,36.1,28.6,31.5,4.1
95.5,29.7,35.6,28.3,31.2,3.9
96.0,29.6,34.9,28.4,31.0,3.4
96.5,29.6,35.1,28.0,30.9,3.7
97.0,29.4,35.5,27.4,30.8,4.2
97.5,29.4,35.2,27.5,30.7,4.0
98.0,28.9,35.3,26.7,30.3,4.5
98.5,29.2,34.7,26.3,30.1,4.2
99.0,28.5,35.0,25.8,29.8,4.7
99.5,29.3,34.9,25.9,30.0,4.5
100.0,28.4,34.7,25.6,29.6,4.6
100.5,28.5,35.0,25.2,29.6,5.0
101.0,28.5,34.5,25.6,29.6,4.5
101.5,28.4,34.1,,31.2,4.0
102.0,28.0,33.7,,30.8,4.1
102.5,27.8,33.1,,30.5,3.7
103.0,27.3,32.2,,29.7,3.5
103.5,27.6,31.2,,29.4,2.6
104.0,26.8,,,26.8,
104.5,26.2,,,26.2,
105.0,26.1,,,26.1,
105.5,25.7,,,25.7,
106.0,25.4,,,25.4,

File: Cotton_Raw_HRRPUA_35.csv
Time after Ignition,Cotton_Raw_R1,Cotton_Raw_R2,Cotton_Raw_R3,Mean,Std. Dev.
0.0,24.9,23.3,27.1,25.1,1.9
0.5,30.6,28.4,33.4,30.8,2.5
1.0,36.1,32.6,39.7,36.1,3.6
1.5,40.6,36.7,43.9,40.4,3.7
2.0,42.9,39.9,46.6,43.1,3.3
2.5,46.6,43.0,49.8,46.4,3.4
3.0,49.1,46.8,52.2,49.4,2.7
3.5,50.4,48.7,53.8,51.0,2.6
4.0,51.7,50.5,54.8,52.3,2.2
4.5,52.7,52.8,56.5,54.0,2.1
5.0,53.6,53.8,57.3,54.9,2.1
5.5,54.1,55.2,56.0,55.1,1.0
6.0,55.3,57.1,58.2,56.9,1.4
6.5,56.4,59.4,57.1,57.7,1.6
7.0,55.5,59.5,58.1,57.7,2.0
7.5,56.3,62.7,57.7,58.9,3.3
8.0,56.1,64.1,56.9,59.0,4.4
8.5,56.7,64.7,57.5,59.6,4.4
9.0,57.5,67.1,57.8,60.8,5.4
9.5,58.0,67.8,56.8,60.9,6.0
10.0,57.8,68.8,57.3,61.3,6.5
10.5,59.7,69.2,57.7,62.2,6.2
11.0,59.0,70.2,57.1,62.1,7.1
11.5,59.5,71.2,57.7,62.8,7.3
12.0,61.3,70.8,57.3,63.1,6.9
12.5,62.1,71.0,58.7,63.9,6.4
13.0,62.7,70.9,58.2,63.9,6.4
13.5,63.2,71.3,58.8,64.4,6.3
14.0,64.1,72.5,59.9,65.5,6.4
14.5,64.3,71.9,61.9,66.0,5.2
15.0,65.9,71.2,63.3,66.8,4.0
15.5,66.1,71.8,64.1,67.3,4.0
16.0,66.6,72.4,65.8,68.3,3.6
16.5,65.9,71.6,68.0,68.5,2.9
17.0,66.0,74.0,70.1,70.0,4.0
17.5,67.0,71.8,72.8,70.5,3.1
18.0,66.6,72.5,74.7,71.3,4.2
18.5,66.8,72.4,75.2,71.5,4.3
19.0,67.2,72.1,78.0,72.5,5.4
19.5,66.2,71.8,77.2,71.7,5.5
20.0,66.5,71.8,78.9,72.4,6.2
20.5,66.4,71.3,80.9,72.9,7.4
21.0,66.7,71.4,81.6,73.2,7.6
21.5,64.7,70.9,82.6,72.8,9.1
22.0,65.3,70.9,81.6,72.6,8.3
22.5,66.4,71.9,83.4,73.9,8.7
23.0,65.5,71.3,81.7,72.8,8.2
23.5,65.0,69.1,82.5,72.2,9.2
24.0,65.3,70.2,81.8,72.4,8.5
24.5,64.7,70.3,84.2,73.1,10.0
25.0,65.2,69.5,82.9,72.5,9.2
25.5,63.5,69.3,81.3,71.4,9.1
26.0,63.5,68.1,82.8,71.5,10.1
26.5,63.4,68.0,83.4,71.6,10.5
27.0,63.3,68.3,82.2,71.3,9.7
27.5,61.9,67.9,84.2,71.3,11.5
28.0,62.9,67.2,83.7,71.3,11.0
28.5,61.3,67.1,81.8,70.1,10.6
29.0,61.6,67.1,83.2,70.6,11.2
29.5,59.9,66.3,82.2,69.5,11.5
30.0,60.5,67.3,83.1,70.3,11.6
30.5,60.4,66.7,83.2,70.1,11.8
31.0,59.5,67.0,82.8,69.8,11.9
31.5,58.2,65.9,82.2,68.8,12.2
32.0,59.1,65.0,82.4,68.8,12.1
32.5,57.9,65.1,82.6,68.5,12.7
33.0,58.2,65.8,81.5,68.5,11.9
33.5,57.3,64.2,82.0,67.8,12.7
34.0,56.2,65.2,81.6,67.7,12.9
34.5,55.2,63.7,81.8,66.9,13.6
35.0,55.3,64.4,81.7,67.1,13.4
35.5,55.5,62.4,81.4,66.4,13.4
36.0,55.8,62.0,81.8,66.6,13.6
36.5,56.1,63.1,81.1,66.7,12.9
37.0,55.0,62.7,81.0,66.2,13.4
37.5,55.6,61.5,81.4,66.2,13.5
38.0,54.4,62.0,80.5,65.6,13.4
38.5,55.1,62.5,80.6,66.1,13.2
39.0,54.5,61.8,80.3,65.5,13.3
39.5,54.9,60.8,80.3,65.4,13.3
40.0,55.4,60.1,79.2,64.9,12.6
40.5,54.6,61.0,79.5,65.1,12.9
41.0,54.8,61.3,80.2,65.4,13.2
41.5,54.8,60.3,78.2,64.4,12.2
42.0,54.2,60.1,79.8,64.7,13.4
42.5,53.7,59.5,78.6,63.9,13.1
43.0,54.2,60.5,79.0,64.6,12.9
43.5,53.5,60.3,77.5,63.8,12.4
44.0,54.0,59.6,79.4,64.3,13.4
44.5,52.5,59.5,78.1,63.4,13.2
45.0,52.7,59.8,78.1,63.5,13.1
45.5,51.6,59.5,78.8,63.3,14.0
46.0,52.0,58.4,77.9,62.8,13.5
46.5,51.3,59.0,77.3,62.5,13.3
47.0,51.5,58.9,77.0,62.5,13.1
47.5,51.4,58.0,76.8,62.1,13.2
48.0,51.0,59.7,76.8,62.5,13.1
48.5,50.8,59.6,76.4,62.3,13.0
49.0,49.5,59.6,77.4,62.2,14.1
49.5,49.7,58.9,77.8,62.1,14.3
50.0,49.7,58.6,76.9,61.7,13.9
50.5,49.7,57.7,77.2,61.5,14.1
51.0,48.6,58.0,75.7,60.7,13.7
51.5,49.3,57.8,76.4,61.2,13.9
52.0,49.1,57.6,77.7,61.5,14.7
52.5,49.0,57.7,76.4,61.0,14.0
53.0,49.6,57.1,78.0,61.6,14.7
53.5,49.4,56.7,76.5,60.9,14.0
54.0,48.3,56.3,76.8,60.4,14.7
54.5,48.3,56.1,75.9,60.1,14.2
55.0,48.5,57.2,74.2,59.9,13.1
55.5,47.6,55.6,76.8,60.0,15.1
56.0,46.8,56.2,76.3,59.8,15.1
56.5,46.6,55.7,76.3,59.5,15.2
57.0,46.2,55.0,75.8,59.0,15.2
57.5,46.1,55.2,75.8,59.1,15.2
58.0,45.7,54.8,75.4,58.6,15.2
58.5,45.5,55.3,76.3,59.0,15.8
59.0,44.6,54.2,75.9,58.2,16.1
59.5,44.5,54.4,75.6,58.1,15.9
60.0,43.3,54.8,75.9,58.0,16.5
60.5,43.1,53.8,75.7,57.5,16.6
61.0,42.6,54.3,76.3,57.7,17.1
61.5,42.7,53.6,75.9,57.4,16.9
62.0,42.1,52.6,76.4,57.0,17.6
62.5,41.6,52.5,75.4,56.5,17.2
63.0,41.3,52.4,77.1,56.9,18.3
63.5,41.8,50.6,75.0,55.8,17.2
64.0,41.0,51.1,75.5,55.9,17.7
64.5,41.3,50.5,74.2,55.3,17.0
65.0,41.3,50.4,73.4,55.0,16.5
65.5,40.5,50.1,72.3,54.3,16.3
66.0,39.8,48.9,72.8,53.9,17.0
66.5,39.9,49.2,73.0,54.0,17.1
67.0,40.1,48.9,72.4,53.8,16.7
67.5,40.1,48.6,72.9,53.9,17.0
68.0,39.8,49.2,71.1,53.4,16.1
68.5,39.0,49.0,72.0,53.3,16.9
69.0,39.6,48.0,72.7,53.4,17.2
69.5,39.0,47.9,71.6,52.8,16.9
70.0,39.1,47.6,72.1,52.9,17.1
70.5,38.8,47.9,70.6,52.4,16.4
71.0,39.0,48.4,70.9,52.8,16.4
71.5,38.3,47.4,70.0,51.9,16.3
72.0,38.1,47.3,69.5,51.6,16.1
72.5,37.9,47.7,70.0,51.9,16.5
73.0,38.1,46.1,69.7,51.3,16.4
73.5,37.2,46.4,68.7,50.8,16.2
74.0,37.2,45.4,68.2,50.2,16.0
74.5,38.0,45.5,68.2,50.5,15.7
75.0,37.4,45.6,67.9,50.3,15.8
75.5,37.3,44.4,67.8,49.9,15.9
76.0,37.1,44.3,66.2,49.2,15.1
76.5,37.3,43.7,66.7,49.2,15.4
77.0,36.8,44.5,65.9,49.0,15.1
77.5,36.9,43.8,66.9,49.2,15.7
78.0,36.8,42.8,65.6,48.4,15.2
78.5,37.0,42.5,66.9,48.8,15.9
79.0,37.2,42.0,66.1,48.4,15.4
79.5,37.2,42.0,65.5,48.2,15.1
80.0,37.2,41.6,65.4,48.0,15.2
80.5,37.3,41.0,65.1,47.8,15.1
81.0,37.1,41.4,64.3,47.6,14.6
81.5,37.3,40.3,64.8,47.4,15.1
82.0,37.2,40.2,63.7,47.0,14.5
82.5,37.0,39.7,63.9,46.9,14.8
83.0,37.3,38.9,62.7,46.3,14.2
83.5,37.7,39.0,62.7,46.5,14.1
84.0,36.9,38.8,63.9,46.5,15.1
84.5,36.8,37.9,63.2,46.0,14.9
85.0,37.0,38.3,63.5,46.3,14.9
85.5,37.4,37.2,63.0,45.9,14.8
86.0,37.7,37.5,62.7,46.0,14.5
86.5,36.4,36.7,62.6,45.2,15.0
87.0,37.2,36.4,63.0,45.5,15.1
87.5,36.6,36.6,62.8,45.4,15.1
88.0,37.1,35.9,62.5,45.2,15.0
88.5,37.2,35.7,63.2,45.3,15.5
89.0,37.7,35.0,62.7,45.1,15.3
89.5,37.4,34.7,62.5,44.9,15.3
90.0,37.2,33.8,62.1,44.4,15.5
90.5,37.3,33.9,62.1,44.5,15.4
91.0,36.9,33.0,61.8,43.9,15.6
91.5,37.0,32.7,62.1,43.9,15.8
92.0,37.1,31.9,62.1,43.7,16.2
92.5,36.7,31.1,62.4,43.4,16.7
93.0,37.6,30.3,61.1,43.0,16.1
93.5,37.6,30.0,62.6,43.4,17.0
94.0,37.2,29.2,60.8,42.4,16.4
94.5,36.7,29.5,61.3,42.5,16.7
95.0,37.1,29.2,59.8,42.0,15.9
95.5,36.9,28.9,60.9,42.3,16.7
96.0,37.8,28.5,59.9,42.0,16.1
96.5,37.3,28.0,58.9,41.4,15.8
97.0,36.9,28.2,58.9,41.3,15.8
97.5,37.1,28.4,59.3,41.6,15.9
98.0,36.3,27.9,57.5,40.6,15.3
98.5,36.7,27.7,58.5,41.0,15.8
99.0,36.7,,57.9,47.3,15.0
99.5,36.1,,56.7,46.4,14.6
100.0,36.1,,56.6,46.4,14.5
100.5,36.2,,56.4,46.3,14.3
101.0,36.3,,56.6,46.5,14.3
101.5,36.2,,55.1,45.7,13.3
102.0,37.1,,54.7,45.9,12.5
102.5,37.3,,55.0,46.1,12.6
103.0,37.1,,54.7,45.9,12.5
103.5,37.3,,54.6,45.9,12.2
104.0,37.2,,53.3,45.3,11.4
104.5,37.4,,53.2,45.3,11.2
105.0,37.6,,52.3,44.9,10.4
105.5,37.9,,52.1,45.0,10.1
106.0,37.1,,51.8,44.4,10.4
106.5,37.7,,52.8,45.2,10.7
107.0,37.8,,52.1,44.9,10.1
107.5,37.4,,50.9,44.2,9.6
108.0,37.6,,51.8,44.7,10.1
108.5,37.0,,52.0,44.5,10.6
109.0,36.9,,52.0,44.4,10.7
109.5,36.8,,51.4,44.1,10.3
110.0,36.9,,51.0,43.9,10.0
110.5,37.0,,50.9,44.0,9.8
111.0,36.6,,50.9,43.8,10.1
111.5,36.7,,50.6,43.7,9.8
112.0,36.7,,50.3,43.5,9.6
112.5,36.2,,50.1,43.1,9.8
113.0,36.8,,50.4,43.6,9.6
113.5,36.2,,49.2,42.7,9.1
114.0,35.9,,49.2,42.6,9.4
114.5,36.7,,48.6,42.6,8.4
115.0,35.8,,48.2,42.0,8.8
115.5,35.5,,47.2,41.3,8.3
116.0,35.2,,47.6,41.4,8.7
116.5,35.5,,47.0,41.2,8.1
117.0,35.4,,47.5,41.5,8.5
117.5,34.6,,46.7,40.7,8.6
118.0,34.6,,46.4,40.5,8.4
118.5,34.7,,45.7,40.2,7.8
119.0,34.8,,45.8,40.3,7.8
119.5,34.2,,45.2,39.7,7.8
120.0,34.0,,45.3,39.7,8.0
120.5,34.7,,44.2,39.4,6.7
121.0,34.0,,44.7,39.3,7.6
121.5,33.5,,43.7,38.6,7.2
122.0,33.9,,43.5,38.7,6.8
122.5,33.8,,43.8,38.8,7.1
123.0,34.1,,43.7,38.9,6.9
123.5,33.3,,43.4,38.4,7.1
124.0,33.5,,43.1,38.3,6.8
124.5,33.5,,42.2,37.9,6.1
125.0,33.3,,41.6,37.5,5.9
125.5,32.8,,42.0,37.4,6.5
126.0,32.7,,41.7,37.2,6.4
126.5,32.9,,40.5,36.7,5.4
127.0,32.3,,40.6,36.5,5.9
127.5,32.0,,40.4,36.2,5.9
128.0,32.1,,39.5,35.8,5.2
128.5,31.7,,39.3,35.5,5.4
129.0,31.2,,39.0,35.1,5.5
129.5,31.4,,38.4,34.9,5.0
130.0,31.2,,38.2,34.7,4.9
130.5,30.4,,38.5,34.5,5.8
131.0,29.9,,38.1,34.0,5.8
131.5,30.1,,38.1,34.1,5.7
132.0,29.6,,37.7,33.7,5.8
132.5,30.0,,38.3,34.1,5.9
133.0,28.9,,38.1,33.5,6.5
133.5,28.9,,37.8,33.4,6.3
134.0,29.2,,37.4,33.3,5.8
134.5,28.9,,37.3,33.1,6.0
135.0,28.2,,37.0,32.6,6.2
135.5,28.4,,36.5,32.5,5.8
136.0,28.3,,36.1,32.2,5.5
136.5,27.9,,36.2,32.0,5.9
137.0,27.4,,35.4,31.4,5.6
137.5,27.7,,35.3,31.5,5.4
138.0,27.4,,34.8,31.1,5.2
138.5,26.9,,34.1,30.5,5.1
139.0,27.1,,33.8,30.4,4.7
139.5,26.6,,33.4,30.0,4.8
140.0,26.2,,,26.2,
140.5,26.3,,,26.3,
141.0,26.1,,,26.1,
141.5,25.9,,,25.9,
142.0,25.3,,,25.3,
142.5,25.6,,,25.6,
143.0,25.4,,,25.4,
143.5,25.3,,,25.3,
144.0,25.6,,,25.6,
144.5,25.2,,,25.2,
144.75,25.2,,,25.2,

File: Cotton_Raw_HRRPUA_50.csv
Time after Ignition,Cotton_Raw_R1,Cotton_Raw_R2,Cotton_Raw_R3,Mean,Std. Dev.
0.0,26.6,28.6,27.1,27.5,1.1
0.5,36.2,35.9,34.6,35.6,0.8
1.0,42.6,44.2,41.3,42.7,1.5
1.5,50.2,50.2,49.2,49.9,0.6
2.0,53.6,56.3,54.7,54.9,1.3
2.5,59.3,60.0,59.8,59.7,0.4
3.0,62.8,63.6,62.9,63.1,0.4
3.5,66.2,66.8,66.9,66.6,0.4
4.0,69.4,68.5,68.1,68.6,0.7
4.5,70.1,70.9,71.3,70.8,0.6
5.0,72.5,72.7,72.3,72.5,0.2
5.5,73.7,72.5,73.2,73.1,0.6
6.0,75.1,73.4,75.1,74.6,1.0
6.5,75.9,73.0,77.3,75.4,2.2
7.0,75.2,74.2,77.6,75.7,1.8
7.5,77.4,75.2,80.7,77.8,2.8
8.0,76.1,76.1,81.7,78.0,3.2
8.5,78.3,74.5,82.3,78.4,3.9
9.0,79.5,76.3,83.3,79.7,3.5
9.5,82.2,77.3,84.4,81.3,3.7
10.0,82.5,78.9,86.5,82.6,3.8
10.5,84.2,79.8,86.3,83.4,3.4
11.0,87.9,80.5,88.3,85.6,4.4
11.5,86.7,82.0,89.9,86.2,4.0
12.0,89.3,83.0,90.9,87.7,4.2
12.5,91.8,84.2,91.4,89.2,4.3
13.0,93.1,85.7,91.8,90.2,4.0
13.5,92.1,87.1,93.4,90.9,3.3
14.0,92.0,86.1,93.7,90.6,4.0
14.5,92.9,88.4,93.5,91.6,2.8
15.0,94.9,89.5,94.5,93.0,3.0
15.5,94.3,90.4,93.4,92.7,2.0
16.0,93.0,90.7,93.1,92.3,1.4
16.5,95.9,90.9,93.3,93.4,2.5
17.0,96.1,91.4,93.1,93.5,2.4
17.5,94.1,93.6,94.1,93.9,0.3
18.0,92.9,92.7,92.4,92.7,0.3
18.5,92.5,92.5,91.4,92.1,0.6
19.0,91.9,91.7,91.8,91.8,0.1
19.5,91.5,92.7,93.3,92.5,1.0
20.0,91.8,93.2,91.0,92.0,1.1
20.5,90.6,93.6,91.0,91.7,1.6
21.0,90.2,94.9,91.2,92.1,2.5
21.5,90.8,93.1,89.9,91.3,1.6
22.0,89.8,93.3,88.8,90.7,2.3
22.5,86.5,91.3,88.0,88.6,2.5
23.0,87.3,92.3,87.5,89.0,2.8
23.5,85.2,93.5,86.1,88.3,4.5
24.0,86.1,91.2,86.8,88.0,2.8
24.5,85.2,92.6,86.1,88.0,4.0
25.0,83.6,91.4,84.4,86.4,4.3
25.5,83.7,91.7,85.2,86.9,4.3
26.0,83.6,90.5,84.4,86.1,3.8
26.5,81.6,88.5,83.6,84.6,3.5
27.0,81.7,88.4,83.9,84.7,3.5
27.5,83.4,87.3,83.1,84.6,2.3
28.0,81.8,88.4,84.4,84.9,3.3
28.5,80.8,86.6,83.6,83.7,2.9
29.0,79.3,86.0,82.8,82.7,3.4
29.5,77.9,86.6,82.7,82.4,4.4
30.0,78.1,83.6,81.8,81.2,2.8
30.5,77.9,85.9,82.4,82.1,4.0
31.0,76.4,84.6,82.3,81.1,4.2
31.5,75.8,85.5,82.0,81.1,4.9
32.0,76.0,85.6,81.4,81.0,4.9
32.5,75.6,85.0,82.5,81.0,4.9
33.0,73.2,84.9,81.3,79.8,6.0
33.5,73.4,84.7,81.7,80.0,5.8
34.0,74.3,83.3,81.5,79.7,4.7
34.5,74.0,83.4,81.7,79.7,5.0
35.0,72.5,83.0,81.2,78.9,5.6
35.5,71.9,85.9,80.2,79.3,7.1
36.0,72.4,83.1,81.5,79.0,5.8
36.5,71.8,85.0,80.7,79.2,6.7
37.0,71.9,83.6,81.6,79.0,6.3
37.5,71.5,83.6,82.6,79.2,6.7
38.0,71.9,84.4,82.4,79.6,6.7
38.5,72.0,82.7,80.5,78.4,5.7
39.0,70.2,82.8,81.9,78.3,7.1
39.5,70.6,81.7,81.4,77.9,6.3
40.0,71.2,81.9,82.8,78.6,6.4
40.5,70.8,81.0,83.1,78.3,6.6
41.0,69.7,81.4,84.2,78.4,7.7
41.5,69.3,79.8,83.2,77.4,7.2
42.0,69.8,79.7,84.0,77.8,7.3
42.5,69.7,79.4,83.0,77.4,6.9
43.0,70.1,78.4,83.7,77.4,6.8
43.5,69.1,78.9,83.7,77.3,7.4
44.0,69.7,78.6,84.1,77.5,7.3
44.5,68.5,78.2,83.2,76.6,7.5
45.0,69.6,77.1,84.0,76.9,7.2
45.5,68.4,77.5,85.8,77.2,8.7
46.0,68.8,75.9,84.1,76.3,7.6
46.5,68.7,77.2,84.8,76.9,8.1
47.0,67.8,76.7,84.2,76.2,8.2
47.5,68.2,76.6,85.6,76.8,8.7
48.0,68.4,75.6,84.7,76.2,8.1
48.5,67.3,74.4,84.1,75.3,8.4
49.0,67.1,74.2,85.5,75.6,9.3
49.5,67.7,74.2,84.6,75.5,8.5
50.0,67.5,74.1,86.2,75.9,9.5
50.5,68.7,73.8,84.2,75.6,7.9
51.0,67.9,73.0,84.5,75.1,8.5
51.5,67.7,71.7,84.5,74.7,8.7
52.0,67.7,73.5,84.0,75.1,8.3
52.5,67.6,71.2,85.7,74.8,9.6
53.0,68.7,71.9,85.5,75.4,8.9
53.5,68.3,72.6,84.6,75.2,8.5
54.0,68.4,71.8,85.1,75.1,8.8
54.5,68.4,71.4,84.1,74.6,8.3
55.0,67.7,70.8,84.0,74.2,8.7
55.5,67.7,68.7,83.5,73.3,8.8
56.0,68.1,69.7,85.0,74.3,9.3
56.5,68.2,70.3,83.9,74.1,8.5
57.0,69.7,69.3,84.1,74.4,8.4
57.5,68.3,67.9,83.1,73.1,8.7
58.0,68.7,67.6,82.5,72.9,8.3
58.5,69.2,67.5,82.9,73.2,8.4
59.0,69.1,68.1,81.4,72.9,7.4
59.5,70.0,67.9,81.2,73.0,7.1
60.0,68.8,67.4,79.4,71.9,6.5
60.5,68.8,67.6,80.3,72.2,7.0
61.0,67.3,66.4,78.5,70.7,6.8
61.5,69.2,66.2,77.6,71.0,5.9
62.0,67.5,64.8,77.7,70.0,6.8
62.5,67.4,65.3,76.1,69.6,5.7
63.0,67.8,65.9,75.9,69.8,5.3
63.5,67.0,66.4,75.6,69.7,5.1
64.0,67.5,65.2,73.6,68.8,4.3
64.5,67.1,65.5,73.8,68.8,4.4
65.0,66.1,66.8,73.4,68.8,4.0
65.5,67.3,65.7,70.9,68.0,2.7
66.0,66.0,65.7,71.1,67.6,3.0
66.5,64.9,65.4,69.6,66.7,2.6
67.0,65.4,65.9,69.2,66.8,2.1
67.5,65.1,65.7,68.3,66.4,1.7
68.0,64.1,65.1,69.2,66.1,2.7
68.5,64.8,66.3,68.2,66.5,1.7
69.0,63.3,64.7,67.6,65.2,2.2
69.5,62.5,64.0,66.9,64.5,2.2
70.0,62.5,63.8,65.8,64.0,1.6
70.5,63.3,63.9,64.0,63.7,0.4
71.0,62.2,63.3,62.9,62.8,0.6
71.5,61.7,62.6,61.7,62.0,0.5
72.0,60.8,63.0,60.4,61.4,1.4
72.5,59.9,62.8,59.3,60.7,1.9
73.0,60.0,62.2,59.3,60.5,1.5
73.5,59.1,62.3,57.1,59.5,2.6
74.0,57.5,61.5,55.7,58.2,2.9
74.5,57.3,60.2,55.0,57.5,2.6
75.0,55.9,60.3,53.5,56.6,3.5
75.5,55.2,59.9,52.6,55.9,3.7
76.0,54.3,60.4,51.1,55.3,4.7
76.5,52.9,59.0,49.6,53.8,4.8
77.0,53.6,58.7,48.7,53.7,5.0
77.5,51.6,59.2,47.5,52.8,5.9
78.0,50.0,59.1,46.4,51.8,6.6
78.5,50.3,58.1,45.1,51.2,6.6
79.0,49.0,58.1,44.9,50.6,6.8
79.5,49.0,57.7,44.0,50.2,7.0
80.0,48.3,57.8,42.6,49.6,7.7
80.5,47.1,56.6,42.1,48.6,7.4
81.0,46.6,57.3,40.3,48.1,8.6
81.5,46.6,56.0,38.8,47.1,8.6
82.0,46.3,55.6,37.5,46.5,9.1
82.5,45.5,56.6,36.1,46.1,10.2
83.0,44.8,55.6,35.4,45.3,10.1
83.5,44.2,55.8,34.1,44.7,10.9
84.0,43.0,54.9,33.4,43.8,10.8
84.5,42.8,54.3,32.8,43.3,10.8
85.0,42.2,54.1,31.6,42.6,11.2
85.5,41.9,55.3,31.1,42.8,12.1
86.0,41.2,54.5,30.6,42.1,12.0
86.5,41.0,53.3,31.0,41.8,11.2
87.0,40.0,54.2,30.5,41.6,12.0
87.5,39.5,53.3,30.3,41.0,11.6
88.0,38.5,52.6,29.9,40.3,11.4
88.5,39.6,52.5,,46.0,9.2
89.0,38.4,51.3,,44.9,9.1
89.5,38.1,50.4,,44.3,8.7
90.0,37.1,50.5,,43.8,9.5
90.5,37.5,50.0,,43.7,8.9
91.0,37.2,48.4,,42.8,7.9
91.5,36.8,48.5,,42.6,8.3
92.0,36.3,48.4,,42.3,8.5
92.5,35.9,47.8,,41.9,8.5
93.0,35.8,46.9,,41.3,7.9
93.5,35.1,45.7,,40.4,7.5
94.0,35.0,45.3,,40.1,7.3
94.5,34.1,45.9,,40.0,8.3
95.0,33.9,45.3,,39.6,8.1
95.5,33.6,44.4,,39.0,7.7
96.0,33.0,44.0,,38.5,7.8
96.5,33.0,42.6,,37.8,6.8
97.0,32.4,41.8,,37.1,6.7
97.5,32.2,41.5,,36.9,6.6