Folder: fsri_materials_database/01_Data/Cotton_Raw/Cone (part 2)

File: Cotton_Raw_HRRPUA_75.csv
Time after Ignition,Cotton_Raw_R1,Cotton_Raw_R2,Cotton_Raw_R3,Mean,Std. Dev.
0.0,18.8,19.5,25.1,21.2,3.5
0.5,26.8,32.2,32.9,30.6,3.3
1.0,35.7,42.4,44.3,40.8,4.5
1.5,46.8,53.1,53.7,51.2,3.8
2.0,56.5,61.0,64.3,60.6,3.9
2.5,64.3,67.7,71.1,67.7,3.4
3.0,73.6,73.8,80.3,75.9,3.8
3.5,81.9,78.6,84.8,81.8,3.1
4.0,87.0,83.3,90.2,86.8,3.5
4.5,92.8,87.5,95.9,92.1,4.3
5.0,100.0,91.1,101.7,97.6,5.7
5.5,102.5,93.4,105.2,100.4,6.2
6.0,107.9,95.0,109.1,104.0,7.8
6.5,107.6,97.8,113.1,106.1,7.7
7.0,110.8,99.7,114.2,108.2,7.6
7.5,115.9,100.4,116.7,111.0,9.2
8.0,115.3,103.4,118.4,112.4,7.9
8.5,115.8,108.7,120.9,115.1,6.1
9.0,117.7,107.0,121.0,115.2,7.3
9.5,118.3,110.1,122.6,117.0,6.4
10.0,120.7,112.3,123.7,118.9,5.9
10.5,117.8,111.6,124.8,118.1,6.6
11.0,116.3,111.9,122.8,117.0,5.5
11.5,117.5,114.3,126.9,119.5,6.5
12.0,116.7,117.5,126.3,120.2,5.3
12.5,116.0,115.3,126.6,119.3,6.3
13.0,114.5,118.1,125.3,119.3,5.5
13.5,113.5,116.8,123.4,117.9,5.0
14.0,114.1,120.5,123.9,119.5,5.0
14.5,112.4,119.5,124.8,118.9,6.2
15.0,110.5,118.0,125.6,118.1,7.6
15.5,111.5,120.7,122.8,118.4,6.0
16.0,110.0,117.6,125.6,117.7,7.8
16.5,109.8,118.7,122.5,117.0,6.5
17.0,108.3,120.0,121.7,116.7,7.3
17.5,106.6,119.1,121.1,115.6,7.9
18.0,107.7,120.1,122.3,116.7,7.8
18.5,106.2,117.2,122.3,115.2,8.3
19.0,104.6,118.4,120.9,114.6,8.7
19.5,104.7,119.8,120.9,115.1,9.0
20.0,104.1,120.0,122.2,115.5,9.8
20.5,103.4,118.5,118.9,113.6,8.8
21.0,103.9,117.8,120.3,114.0,8.9
21.5,102.9,118.9,119.7,113.8,9.5
22.0,102.8,116.7,117.4,112.3,8.2
22.5,103.7,116.8,120.4,113.6,8.8
23.0,103.3,116.2,119.6,113.0,8.6
23.5,103.5,117.9,118.1,113.2,8.4
24.0,103.3,115.6,117.3,112.1,7.7
24.5,102.4,116.6,119.0,112.7,8.9
25.0,102.5,115.6,116.9,111.7,7.9
25.5,101.7,115.8,115.8,111.1,8.1
26.0,102.6,114.8,116.8,111.4,7.7
26.5,101.7,116.1,115.9,111.2,8.3
27.0,100.6,115.7,114.4,110.3,8.4
27.5,100.1,114.6,115.6,110.1,8.7
28.0,99.1,116.1,114.8,110.0,9.4
28.5,97.6,114.5,114.7,109.0,9.8
29.0,99.4,114.4,114.6,109.5,8.7
29.5,99.4,115.0,113.0,109.1,8.5
30.0,97.6,113.2,113.5,108.1,9.1
30.5,97.4,113.0,113.5,107.9,9.2
31.0,98.2,113.8,113.3,108.4,8.9
31.5,97.1,112.6,112.7,107.5,8.9
32.0,95.6,112.9,113.6,107.4,10.2
32.5,96.8,111.9,113.7,107.5,9.2
33.0,96.1,112.9,110.2,106.4,9.1
33.5,95.2,112.7,111.6,106.5,9.8
34.0,96.0,110.8,110.1,105.7,8.4
34.5,94.0,112.0,110.4,105.5,10.0
35.0,95.8,111.1,109.4,105.4,8.4
35.5,93.5,109.4,106.7,103.2,8.5
36.0,93.9,112.0,106.1,104.0,9.2
36.5,93.9,107.8,104.2,102.0,7.2
37.0,93.4,108.8,102.2,101.4,7.7
37.5,94.1,109.7,102.6,102.1,7.8
38.0,92.2,108.3,101.1,100.5,8.1
38.5,95.1,107.5,98.8,100.5,6.4
39.0,91.5,108.6,96.9,99.0,8.7
39.5,93.2,107.9,96.0,99.1,7.8
40.0,91.1,107.5,92.7,97.1,9.0
40.5,92.9,107.3,92.9,97.7,8.3
41.0,92.9,107.8,88.9,96.5,9.9
41.5,91.8,107.7,86.8,95.4,10.9
42.0,90.5,107.7,84.5,94.3,12.0
42.5,92.5,108.2,82.8,94.5,12.8
43.0,92.3,107.8,81.1,93.7,13.4
43.5,91.4,109.1,79.2,93.2,15.0
44.0,89.6,108.5,77.6,91.9,15.6
44.5,91.5,108.2,76.9,92.2,15.7
45.0,92.6,108.5,75.5,92.2,16.5
45.5,92.0,109.9,73.4,91.7,18.2
46.0,91.2,109.2,72.4,90.9,18.4
46.5,93.2,108.2,70.7,90.7,18.9
47.0,95.6,109.2,69.1,91.3,20.4
47.5,94.5,106.6,66.2,89.1,20.7
48.0,96.1,108.6,64.9,89.9,22.5
48.5,97.3,108.8,62.7,89.6,24.0
49.0,97.5,108.8,60.7,89.0,25.1
49.5,98.0,107.7,60.2,88.7,25.1
50.0,97.9,106.2,58.6,87.5,25.4
50.5,99.0,107.7,56.0,87.5,27.7
51.0,98.5,107.4,54.7,86.9,28.2
51.5,99.8,108.1,53.9,87.2,29.2
52.0,96.7,107.5,52.7,85.6,29.0
52.5,98.8,106.7,50.4,85.3,30.5
53.0,99.8,107.8,49.5,85.7,31.6
53.5,100.8,106.0,48.2,85.0,32.0
54.0,100.1,107.1,46.4,84.5,33.2
54.5,99.3,104.2,44.9,82.8,32.9
55.0,99.9,103.3,43.4,82.2,33.7
55.5,100.8,100.5,41.6,81.0,34.1
56.0,99.5,101.8,40.4,80.6,34.8
56.5,100.7,99.2,39.6,79.8,34.9
57.0,102.2,97.3,37.8,79.1,35.8
57.5,99.5,96.8,36.6,77.6,35.6
58.0,100.7,95.8,36.3,77.6,35.9
58.5,100.9,95.0,34.4,76.8,36.8
59.0,101.8,93.7,,97.7,5.8
59.5,97.9,92.1,,95.0,4.1
60.0,99.0,89.5,,94.2,6.7
60.5,100.0,89.0,,94.5,7.8
61.0,98.0,88.6,,93.3,6.7
61.5,99.1,85.9,,92.5,9.4
62.0,98.1,84.3,,91.2,9.8
62.5,97.5,82.5,,90.0,10.7
63.0,97.2,80.5,,88.8,11.8
63.5,98.1,78.7,,88.4,13.8
64.0,96.2,77.8,,87.0,13.0
64.5,98.2,74.1,,86.1,17.1
65.0,95.7,72.5,,84.1,16.4
65.5,95.0,71.8,,83.4,16.4
66.0,93.8,69.7,,81.7,17.0
66.5,93.3,68.6,,80.9,17.5
67.0,93.2,68.2,,80.7,17.7
67.5,93.1,69.2,,81.2,16.9
68.0,91.4,65.3,,78.4,18.4
68.5,90.3,66.4,,78.3,16.9
69.0,91.5,65.9,,78.7,18.1
69.5,89.6,64.9,,77.2,17.5
70.0,88.8,63.9,,76.4,17.6
70.5,86.6,62.2,,74.4,17.3
71.0,87.0,62.3,,74.6,17.5
71.5,84.8,60.8,,72.8,17.0
72.0,84.6,60.2,,72.4,17.2
72.5,82.7,59.0,,70.9,16.7
73.0,82.2,58.8,,70.5,16.6
73.5,82.0,58.7,,70.4,16.5
74.0,82.3,57.4,,69.9,17.6
74.5,81.4,57.0,,69.2,17.3
75.0,80.3,55.8,,68.1,17.3
75.5,78.0,55.3,,66.7,16.1
76.0,79.1,54.9,,67.0,17.1
76.5,78.8,53.4,,66.1,17.9
77.0,77.9,54.2,,66.1,16.8
77.5,76.9,54.7,,65.8,15.7
78.0,76.1,53.3,,64.7,16.1
78.5,75.2,52.6,,63.9,15.9
79.0,74.8,52.1,,63.5,16.1
79.5,73.7,51.1,,62.4,16.0
80.0,73.8,50.9,,62.4,16.2
80.5,72.6,49.9,,61.3,16.0
81.0,71.3,50.1,,60.7,15.0
81.5,71.2,48.9,,60.0,15.8
82.0,70.9,49.1,,60.0,15.4
82.5,70.3,49.4,,59.8,14.8
83.0,68.5,47.6,,58.1,14.7
83.5,69.4,47.2,,58.3,15.7
84.0,67.9,46.9,,57.4,14.9
84.5,67.7,46.1,,56.9,15.3
85.0,66.7,45.7,,56.2,14.8
85.5,66.3,44.1,,55.2,15.7
86.0,66.0,43.5,,54.8,15.9
86.5,65.7,42.8,,54.3,16.1
87.0,64.3,43.0,,53.6,15.0
87.5,65.4,42.0,,53.7,16.6
88.0,63.6,41.0,,52.3,16.0
88.5,64.3,40.6,,52.5,16.8
89.0,61.7,40.1,,50.9,15.3
89.5,62.1,39.8,,50.9,15.7
90.0,60.9,39.3,,50.1,15.3
90.5,61.2,38.2,,49.7,16.2
91.0,59.0,38.1,,48.5,14.8
91.5,59.9,38.3,,49.1,15.3
92.0,59.4,37.7,,48.6,15.3
92.5,58.7,37.2,,48.0,15.2
93.0,57.0,36.7,,46.8,14.4
93.5,57.3,35.8,,46.5,15.2
94.0,56.0,35.6,,45.8,14.4
94.5,55.0,34.5,,44.8,14.4
95.0,54.8,34.9,,44.9,14.1
95.5,54.0,34.0,,44.0,14.1
96.0,53.4,33.0,,43.2,14.4
96.5,52.6,32.7,,42.7,14.1
97.0,51.9,32.6,,42.3,13.7
97.5,51.2,32.6,,41.9,13.2
98.0,49.6,32.1,,40.8,12.4
98.5,50.6,,,50.6,
99.0,49.0,,,49.0,
99.5,48.4,,,48.4,
100.0,47.8,,,47.8,
100.5,47.2,,,47.2,
101.0,46.8,,,46.8,
101.5,46.1,,,46.1,
102.0,45.0,,,45.0,
102.5,45.3,,,45.3,
103.0,44.1,,,44.1,
103.5,43.4,,,43.4,
104.0,43.0,,,43.0,
104.5,42.5,,,42.5,
105.0,42.4,,,42.4,
105.5,41.5,,,41.5,
106.0,41.6,,,41.6,
106.5,41.2,,,41.2,
107.0,41.3,,,41.3,
107.5,41.0,,,41.0,
108.0,40.2,,,40.2,
108.5,39.8,,,39.8,
109.0,39.6,,,39.6,
109.5,39.3,,,39.3,
110.0,39.3,,,39.3,
110.5,39.0,,,39.0,
111.0,39.2,,,39.2,
111.5,38.1,,,38.1,
112.0,38.1,,,38.1,