Folder: fsri_materials_database/01_Data/LDPE/FTIR/IS (part 2)

File: LDPE_IS_S_220831_R5.dpt
7497.03,0.48530
7473.89,0.49116
7450.74,0.48683
7427.6,0.48018
7404.45,0.48540
7381.31,0.47676
7358.16,0.46527
7335.02,0.45186
7311.87,0.42890
7288.73,0.40336
7265.58,0.36917
7242.44,0.33149
7219.29,0.28762
7196.15,0.22714
7173,0.17899
7149.86,0.25740
7126.71,0.26881
7103.57,0.24897
7080.42,0.22843
7057.28,0.20530
7034.13,0.22292
7010.99,0.22421
6987.84,0.24530
6964.7,0.24678
6941.55,0.25600
6918.41,0.28270
6895.26,0.29610
6872.12,0.31026
6848.97,0.32500
6825.83,0.34426
6802.68,0.36702
6779.54,0.37978
6756.39,0.40213
6733.25,0.41297
6710.1,0.42098
6686.96,0.43639
6663.82,0.43555
6640.67,0.44406
6617.53,0.45347
6594.38,0.45134
6571.24,0.44739
6548.09,0.45062
6524.95,0.44431
6501.8,0.43578
6478.66,0.43290
6455.51,0.46983
6432.37,0.48326
6409.22,0.49164
6386.08,0.50101
6362.93,0.50777
6339.79,0.51093
6316.64,0.51562
6293.5,0.51746
6270.35,0.51841
6247.21,0.51952
6224.06,0.51551
6200.92,0.51413
6177.77,0.50700
6154.63,0.50364
6131.48,0.49271
6108.34,0.48956
6085.19,0.48521
6062.05,0.47844
6038.9,0.46308
6015.76,0.44313
5992.61,0.42010
5969.47,0.38318
5946.32,0.33581
5923.18,0.26863
5900.03,0.20248
5876.89,0.14004
5853.74,0.07814
5830.6,0.06124
5807.45,0.05889
5784.31,0.05559
5761.16,0.05869
5738.02,0.06478
5714.87,0.07729
5691.73,0.06509
5668.58,0.05882
5645.44,0.06833
5622.29,0.08099
5599.15,0.09411
5576,0.09297
5552.86,0.08593
5529.71,0.08674
5506.57,0.08578
5483.42,0.08795
5460.28,0.09652
5437.13,0.10022
5413.99,0.11054
5390.84,0.12899
5367.7,0.14190
5344.55,0.15792
5321.41,0.16432
5298.26,0.16059
5275.12,0.16186
5251.97,0.16228
5228.83,0.16043
5205.68,0.15925
5182.54,0.15909
5159.39,0.16032
5136.25,0.16634
5113.1,0.16503
5089.96,0.16525
5066.81,0.16790
5043.67,0.17269
5020.52,0.16877
4997.38,0.16100
4974.23,0.14582
4951.09,0.16183
4927.94,0.17097
4904.8,0.17168
4881.65,0.16594
4858.51,0.16934
4835.36,0.19095
4812.22,0.20665
4789.07,0.21888
4765.93,0.23062
4742.78,0.24216
4719.64,0.25323
4696.49,0.25852
4673.35,0.24556
4650.2,0.25227
4627.06,0.24927
4603.92,0.24164
4580.77,0.22853
4557.63,0.20875
4534.48,0.18420
4511.34,0.15824
4488.19,0.13132
4465.05,0.10563
4441.9,0.07978
4418.76,0.06218
4395.61,0.05751
4372.47,0.05677
4349.32,0.05645
4326.18,0.05650
4303.03,0.05673
4279.89,0.05724
4256.74,0.05638
4233.6,0.05686
4210.45,0.05647
4187.31,0.05657
4164.16,0.05636
4141.02,0.05712
4117.87,0.05675
4094.73,0.05667
4071.58,0.05700
4048.44,0.05687
4025.29,0.05690
4002.15,0.05645
3979,0.05719
3955.86,0.05699
3932.71,0.05694
3909.57,0.05735
3886.42,0.05710
3863.28,0.05646
3840.13,0.05728
3816.99,0.05701
3793.84,0.05738
3770.7,0.05778
3747.55,0.05797
3724.41,0.05756
3701.26,0.05698
3678.12,0.05741
3654.97,0.05662
3631.83,0.05689
3608.68,0.05582
3585.54,0.05693
3562.39,0.05789
3539.25,0.05956
3516.1,0.06001
3492.96,0.05959
3469.81,0.05791
3446.67,0.05659
3423.52,0.05622
3400.38,0.05609
3377.23,0.05511
3354.09,0.05574
3330.94,0.05636
3307.8,0.05663
3284.65,0.05598
3261.51,0.05607
3238.36,0.05540
3215.22,0.05538
3192.07,0.05457
3168.93,0.05396
3145.78,0.05431
3122.64,0.05345
3099.49,0.05352
3076.35,0.05199
3053.2,0.05215
3030.06,0.05093
3006.91,0.04959
2983.77,0.04746
2960.62,0.04407
2937.48,0.03581
2914.33,0.08350
2891.19,0.06424
2868.04,0.05566
2844.9,0.07889
2821.75,0.06511
2798.61,0.06200
2775.46,0.06080
2752.32,0.06019
2729.17,0.05934
2706.03,0.05932
2682.88,0.05867
2659.74,0.05816
2636.59,0.05805
2613.45,0.05866
2590.3,0.05804
2567.16,0.05841
2544.02,0.05764
2520.87,0.05827
2497.73,0.05822
2474.58,0.05803
2451.44,0.05864
2428.29,0.05837
2405.15,0.05779
2382,0.05791
2358.86,0.05794
2335.71,0.05808
2312.57,0.05786
2289.42,0.05742
2266.28,0.05806
2243.13,0.05806
2219.99,0.05965
2196.84,0.06047
2173.7,0.05975
2150.55,0.05847
2127.41,0.06316
2104.26,0.06519
2081.12,0.06354
2057.97,0.05963
2034.83,0.05783
2011.68,0.05792
1988.54,0.06717
1965.39,0.06586
1942.25,0.06407
1919.1,0.06098
1895.96,0.05755
1872.81,0.07014
1849.67,0.08150
1826.52,0.07126
1803.38,0.06885
1780.23,0.07050
1757.09,0.06710
1733.94,0.05871
1710.8,0.05759
1687.65,0.05892
1664.51,0.05766
1641.36,0.05632
1618.22,0.05641
1595.07,0.05625
1571.93,0.05575
1548.78,0.05572
1525.64,0.05532
1502.49,0.05467
1479.35,0.05145
1456.2,0.05973
1433.06,0.05842
1409.91,0.05749
1386.77,0.05668
1363.62,0.05723
1340.48,0.05705
1317.33,0.05674
1294.19,0.05689
1271.04,0.05726
1247.9,0.05705
1224.75,0.05686
1201.61,0.05706
1178.46,0.05674
1155.32,0.05664
1132.17,0.05712
1109.03,0.05655
1085.88,0.05637
1062.74,0.05716
1039.59,0.05657
1016.45,0.05730
993.304,0.05779
970.159,0.05771
947.014,0.05795
923.869,0.05705
900.724,0.05704
877.579,0.05724
854.434,0.05683
831.289,0.05667
808.144,0.05704
784.999,0.05666
761.854,0.05620
738.709,0.05421
715.565,0.06194
692.42,0.05810
669.275,0.06184
646.13,0.08770
622.985,0.10971
599.84,0.09318

File: LDPE_IS_S_220831_R6.dpt
7497.03,0.48489
7473.89,0.49194
7450.74,0.48468
7427.6,0.48682
7404.45,0.48798
7381.31,0.48252
7358.16,0.45558
7335.02,0.45026
7311.87,0.42835
7288.73,0.39786
7265.58,0.36720
7242.44,0.33160
7219.29,0.29264
7196.15,0.22869
7173,0.16735
7149.86,0.25792
7126.71,0.26963
7103.57,0.25566
7080.42,0.22503
7057.28,0.20602
7034.13,0.22734
7010.99,0.23325
6987.84,0.24030
6964.7,0.24759
6941.55,0.26143
6918.41,0.28191
6895.26,0.29718
6872.12,0.30769
6848.97,0.32981
6825.83,0.34006
6802.68,0.36395
6779.54,0.39420
6756.39,0.39911
6733.25,0.41127
6710.1,0.42849
6686.96,0.43243
6663.82,0.43891
6640.67,0.44699
6617.53,0.45097
6594.38,0.45440
6571.24,0.44993
6548.09,0.45229
6524.95,0.44784
6501.8,0.43737
6478.66,0.43279
6455.51,0.47411
6432.37,0.48436
6409.22,0.49113
6386.08,0.49964
6362.93,0.50802
6339.79,0.51313
6316.64,0.51776
6293.5,0.51608
6270.35,0.52016
6247.21,0.52159
6224.06,0.51963
6200.92,0.51604
6177.77,0.51234
6154.63,0.50188
6131.48,0.49700
6108.34,0.48973
6085.19,0.48992
6062.05,0.47669
6038.9,0.46682
6015.76,0.44824
5992.61,0.42160
5969.47,0.38533
5946.32,0.33698
5923.18,0.26614
5900.03,0.20242
5876.89,0.14015
5853.74,0.07960
5830.6,0.06118
5807.45,0.05776
5784.31,0.05583
5761.16,0.05750
5738.02,0.06382
5714.87,0.07811
5691.73,0.06646
5668.58,0.05952
5645.44,0.07062
5622.29,0.08149
5599.15,0.09725
5576,0.09137
5552.86,0.08541
5529.71,0.08732
5506.57,0.08691
5483.42,0.08904
5460.28,0.09487
5437.13,0.10043
5413.99,0.11354
5390.84,0.12777
5367.7,0.14131
5344.55,0.15888
5321.41,0.16560
5298.26,0.16257
5275.12,0.16140
5251.97,0.16445
5228.83,0.15933
5205.68,0.16043
5182.54,0.15942
5159.39,0.15974
5136.25,0.16667
5113.1,0.16582
5089.96,0.16549
5066.81,0.16858
5043.67,0.17348
5020.52,0.16994
4997.38,0.16248
4974.23,0.14789
4951.09,0.16139
4927.94,0.17148
4904.8,0.17132
4881.65,0.16535
4858.51,0.17127
4835.36,0.19039
4812.22,0.20746
4789.07,0.21854
4765.93,0.23139
4742.78,0.24331
4719.64,0.25372
4696.49,0.25978
4673.35,0.24719
4650.2,0.25344
4627.06,0.25085
4603.92,0.24149
4580.77,0.22981
4557.63,0.20921
4534.48,0.18455
4511.34,0.15932
4488.19,0.13134
4465.05,0.10559
4441.9,0.08007
4418.76,0.06271
4395.61,0.05692
4372.47,0.05697
4349.32,0.05643
4326.18,0.05620
4303.03,0.05696
4279.89,0.05634
4256.74,0.05740
4233.6,0.05740
4210.45,0.05679
4187.31,0.05642
4164.16,0.05685
4141.02,0.05639
4117.87,0.05614
4094.73,0.05645
4071.58,0.05694
4048.44,0.05706
4025.29,0.05712
4002.15,0.05699
3979,0.05720
3955.86,0.05730
3932.71,0.05759
3909.57,0.05715
3886.42,0.05751
3863.28,0.05708
3840.13,0.05675
3816.99,0.05761
3793.84,0.05761
3770.7,0.05736
3747.55,0.05771
3724.41,0.05740
3701.26,0.05742
3678.12,0.05708
3654.97,0.05746
3631.83,0.05754
3608.68,0.05636
3585.54,0.05708
3562.39,0.05834
3539.25,0.05934
3516.1,0.06001
3492.96,0.05891
3469.81,0.05839
3446.67,0.05649
3423.52,0.05672
3400.38,0.05557
3377.23,0.05546
3354.09,0.05628
3330.94,0.05616
3307.8,0.05671
3284.65,0.05601
3261.51,0.05563
3238.36,0.05553
3215.22,0.05507
3192.07,0.05528
3168.93,0.05436
3145.78,0.05377
3122.64,0.05365
3099.49,0.05282
3076.35,0.05242
3053.2,0.05197
3030.06,0.05081
3006.91,0.04956
2983.77,0.04729
2960.62,0.04352
2937.48,0.03578
2914.33,0.08338
2891.19,0.06447
2868.04,0.05558
2844.9,0.07927
2821.75,0.06487
2798.61,0.06225
2775.46,0.06115
2752.32,0.05987
2729.17,0.05969
2706.03,0.05933
2682.88,0.05841
2659.74,0.05895
2636.59,0.05873
2613.45,0.05888
2590.3,0.05869
2567.16,0.05865
2544.02,0.05838
2520.87,0.05783
2497.73,0.05800
2474.58,0.05819
2451.44,0.05904
2428.29,0.05774
2405.15,0.05771
2382,0.05796
2358.86,0.05780
2335.71,0.05814
2312.57,0.05793
2289.42,0.05841
2266.28,0.05805
2243.13,0.05852
2219.99,0.05947
2196.84,0.06062
2173.7,0.05980
2150.55,0.05843
2127.41,0.06295
2104.26,0.06572
2081.12,0.06309
2057.97,0.05969
2034.83,0.05805
2011.68,0.05795
1988.54,0.06684
1965.39,0.06585
1942.25,0.06459
1919.1,0.06115
1895.96,0.05791
1872.81,0.07051
1849.67,0.08166
1826.52,0.07142
1803.38,0.06943
1780.23,0.07075
1757.09,0.06707
1733.94,0.05893
1710.8,0.05744
1687.65,0.05883
1664.51,0.05752
1641.36,0.05599
1618.22,0.05634
1595.07,0.05611
1571.93,0.05610
1548.78,0.05593
1525.64,0.05560
1502.49,0.05473
1479.35,0.05167
1456.2,0.05969
1433.06,0.05841
1409.91,0.05761
1386.77,0.05684
1363.62,0.05715
1340.48,0.05725
1317.33,0.05666
1294.19,0.05700
1271.04,0.05713
1247.9,0.05751
1224.75,0.05687
1201.61,0.05720
1178.46,0.05709
1155.32,0.05693
1132.17,0.05738
1109.03,0.05713
1085.88,0.05673
1062.74,0.05695
1039.59,0.05716
1016.45,0.05756
993.304,0.05756
970.159,0.05780
947.014,0.05757
923.869,0.05692
900.724,0.05712
877.579,0.05682
854.434,0.05787
831.289,0.05723
808.144,0.05736
784.999,0.05636
761.854,0.05672
738.709,0.05356
715.565,0.06334
692.42,0.05866
669.275,0.06334
646.13,0.08773
622.985,0.10996
599.84,0.08825

File: LDPE_IS_S_220831_R7.dpt
7497.03,0.48615
7473.89,0.48411
7450.74,0.48465
7427.6,0.48978
7404.45,0.48734
7381.31,0.47668
7358.16,0.46713
7335.02,0.45205
7311.87,0.42970
7288.73,0.40316
7265.58,0.37835
7242.44,0.33840
7219.29,0.29869
7196.15,0.23657
7173,0.17286
7149.86,0.25754
7126.71,0.26837
7103.57,0.24883
7080.42,0.22876
7057.28,0.20945
7034.13,0.22261
7010.99,0.23515
6987.84,0.23860
6964.7,0.24451
6941.55,0.25457
6918.41,0.28195
6895.26,0.29387
6872.12,0.31337
6848.97,0.32495
6825.83,0.33950
6802.68,0.36340
6779.54,0.38804
6756.39,0.39748
6733.25,0.41047
6710.1,0.42213
6686.96,0.43188
6663.82,0.44711
6640.67,0.44578
6617.53,0.45319
6594.38,0.45306
6571.24,0.45386
6548.09,0.44725
6524.95,0.44677
6501.8,0.44194
6478.66,0.43423
6455.51,0.47041
6432.37,0.48534
6409.22,0.49000
6386.08,0.50111
6362.93,0.50894
6339.79,0.51590
6316.64,0.51754
6293.5,0.52096
6270.35,0.51796
6247.21,0.51265
6224.06,0.52105
6200.92,0.51791
6177.77,0.50845
6154.63,0.50511
6131.48,0.49495
6108.34,0.49157
6085.19,0.48471
6062.05,0.47778
6038.9,0.46398
6015.76,0.44621
5992.61,0.42219
5969.47,0.38599
5946.32,0.33899
5923.18,0.26802
5900.03,0.20206
5876.89,0.13745
5853.74,0.07984
5830.6,0.06120
5807.45,0.05787
5784.31,0.05609
5761.16,0.05616
5738.02,0.06571
5714.87,0.07927
5691.73,0.06697
5668.58,0.05945
5645.44,0.06923
5622.29,0.08262
5599.15,0.09636
5576,0.09337
5552.86,0.08601
5529.71,0.08570
5506.57,0.08590
5483.42,0.08892
5460.28,0.09480
5437.13,0.10004
5413.99,0.11047
5390.84,0.12928
5367.7,0.14099
5344.55,0.15773
5321.41,0.16415
5298.26,0.16113
5275.12,0.16351
5251.97,0.16191
5228.83,0.15984
5205.68,0.15928
5182.54,0.15800
5159.39,0.16028
5136.25,0.16690
5113.1,0.16568
5089.96,0.16457
5066.81,0.16874
5043.67,0.17258
5020.52,0.17023
4997.38,0.16118
4974.23,0.14768
4951.09,0.16224
4927.94,0.17152
4904.8,0.17042
4881.65,0.16705
4858.51,0.17012
4835.36,0.19086
4812.22,0.20676
4789.07,0.21911
4765.93,0.23052
4742.78,0.24336
4719.64,0.25318
4696.49,0.25955
4673.35,0.24629
4650.2,0.25336
4627.06,0.25011
4603.92,0.24061
4580.77,0.23014
4557.63,0.20944
4534.48,0.18376
4511.34,0.16008
4488.19,0.13049
4465.05,0.10495
4441.9,0.07938
4418.76,0.06232
4395.61,0.05769
4372.47,0.05661
4349.32,0.05626
4326.18,0.05594
4303.03,0.05651
4279.89,0.05753
4256.74,0.05660
4233.6,0.05664
4210.45,0.05680
4187.31,0.05661
4164.16,0.05621
4141.02,0.05705
4117.87,0.05606
4094.73,0.05603
4071.58,0.05732
4048.44,0.05718
4025.29,0.05699
4002.15,0.05734
3979,0.05752
3955.86,0.05703
3932.71,0.05697
3909.57,0.05670
3886.42,0.05660
3863.28,0.05736
3840.13,0.05757
3816.99,0.05726
3793.84,0.05688
3770.7,0.05780
3747.55,0.05758
3724.41,0.05774
3701.26,0.05738
3678.12,0.05718
3654.97,0.05771
3631.83,0.05738
3608.68,0.05643
3585.54,0.05669
3562.39,0.05858
3539.25,0.05949
3516.1,0.05981
3492.96,0.05953
3469.81,0.05777
3446.67,0.05658
3423.52,0.05718
3400.38,0.05631
3377.23,0.05557
3354.09,0.05552
3330.94,0.05633
3307.8,0.05659
3284.65,0.05564
3261.51,0.05600
3238.36,0.05594
3215.22,0.05542
3192.07,0.05469
3168.93,0.05437
3145.78,0.05451
3122.64,0.05384
3099.49,0.05324
3076.35,0.05275
3053.2,0.05189
3030.06,0.05055
3006.91,0.04969
2983.77,0.04738
2960.62,0.04424
2937.48,0.03531
2914.33,0.08294
2891.19,0.06450
2868.04,0.05542
2844.9,0.07912
2821.75,0.06514
2798.61,0.06254
2775.46,0.06139
2752.32,0.06015
2729.17,0.05934
2706.03,0.05902
2682.88,0.05914
2659.74,0.05873
2636.59,0.05870
2613.45,0.05864
2590.3,0.05860
2567.16,0.05841
2544.02,0.05818
2520.87,0.05818
2497.73,0.05814
2474.58,0.05822
2451.44,0.05888
2428.29,0.05824
2405.15,0.05864
2382,0.05836
2358.86,0.05792
2335.71,0.05801
2312.57,0.05805
2289.42,0.05763
2266.28,0.05807
2243.13,0.05822
2219.99,0.05994
2196.84,0.06028
2173.7,0.05997
2150.55,0.05850
2127.41,0.06342
2104.26,0.06520
2081.12,0.06349
2057.97,0.05976
2034.83,0.05803
2011.68,0.05807
1988.54,0.06683
1965.39,0.06625
1942.25,0.06450
1919.1,0.06093
1895.96,0.05789
1872.81,0.07041
1849.67,0.08184
1826.52,0.07168
1803.38,0.06888
1780.23,0.07080
1757.09,0.06723
1733.94,0.05881
1710.8,0.05791
1687.65,0.05896
1664.51,0.05784
1641.36,0.05622
1618.22,0.05630
1595.07,0.05595
1571.93,0.05603
1548.78,0.05541
1525.64,0.05539
1502.49,0.05500
1479.35,0.05185
1456.2,0.05978
1433.06,0.05860
1409.91,0.05754
1386.77,0.05661
1363.62,0.05718
1340.48,0.05701
1317.33,0.05717
1294.19,0.05736
1271.04,0.05719
1247.9,0.05714
1224.75,0.05722
1201.61,0.05698
1178.46,0.05723
1155.32,0.05669
1132.17,0.05684
1109.03,0.05712
1085.88,0.05667
1062.74,0.05683
1039.59,0.05686
1016.45,0.05735
993.304,0.05711
970.159,0.05724
947.014,0.05740
923.869,0.05696
900.724,0.05726
877.579,0.05655
854.434,0.05754
831.289,0.05693
808.144,0.05654
784.999,0.05750
761.854,0.05578
738.709,0.05375
715.565,0.06335
692.42,0.05787
669.275,0.06277
646.13,0.08871
622.985,0.10814
599.84,0.09070

File: LDPE_IS_S_220831_R8.dpt
7497.03,0.48972
7473.89,0.49196
7450.74,0.48627
7427.6,0.49397
7404.45,0.49068
7381.31,0.47834
7358.16,0.46478
7335.02,0.44930
7311.87,0.42554
7288.73,0.40299
7265.58,0.37269
7242.44,0.33546
7219.29,0.29898
7196.15,0.23347
7173,0.17193
7149.86,0.25425
7126.71,0.27710
7103.57,0.25456
7080.42,0.22707
7057.28,0.21745
7034.13,0.22158
7010.99,0.23237
6987.84,0.24855
6964.7,0.24286
6941.55,0.25418
6918.41,0.27932
6895.26,0.29579
6872.12,0.31253
6848.97,0.32919
6825.83,0.34117
6802.68,0.36699
6779.54,0.38823
6756.39,0.39960
6733.25,0.41099
6710.1,0.42666
6686.96,0.43322
6663.82,0.44260
6640.67,0.45160
6617.53,0.45205
6594.38,0.45853
6571.24,0.45552
6548.09,0.45147
6524.95,0.45091
6501.8,0.44289
6478.66,0.43427
6455.51,0.47337
6432.37,0.49065
6409.22,0.49866
6386.08,0.50645
6362.93,0.50969
6339.79,0.52255
6316.64,0.52281
6293.5,0.52090
6270.35,0.52255
6247.21,0.52164
6224.06,0.51950
6200.92,0.51883
6177.77,0.51781
6154.63,0.50663
6131.48,0.49632
6108.34,0.49191
6085.19,0.48794
6062.05,0.47958
6038.9,0.46968
6015.76,0.44937
5992.61,0.42191
5969.47,0.38462
5946.32,0.34339
5923.18,0.27129
5900.03,0.20321
5876.89,0.14018
5853.74,0.07800
5830.6,0.05992
5807.45,0.05912
5784.31,0.05488
5761.16,0.05660
5738.02,0.06434
5714.87,0.07872
5691.73,0.06640
5668.58,0.05708
5645.44,0.06863
5622.29,0.08196
5599.15,0.09533
5576,0.09399
5552.86,0.08581
5529.71,0.08869
5506.57,0.08678
5483.42,0.08693
5460.28,0.09636
5437.13,0.10201
5413.99,0.11039
5390.84,0.12923
5367.7,0.13940
5344.55,0.16131
5321.41,0.16546
5298.26,0.16206
5275.12,0.16261
5251.97,0.16240
5228.83,0.16262
5205.68,0.16027
5182.54,0.16032
5159.39,0.16211
5136.25,0.16864
5113.1,0.16681
5089.96,0.16482
5066.81,0.16757
5043.67,0.17457
5020.52,0.16957
4997.38,0.16279
4974.23,0.14772
4951.09,0.16313
4927.94,0.17266
4904.8,0.17220
4881.65,0.16728
4858.51,0.17023
4835.36,0.19065
4812.22,0.20826
4789.07,0.21988
4765.93,0.23343
4742.78,0.24463
4719.64,0.25407
4696.49,0.26160
4673.35,0.24670
4650.2,0.25447
4627.06,0.25191
4603.92,0.24115
4580.77,0.23129
4557.63,0.21096
4534.48,0.18545
4511.34,0.16013
4488.19,0.13180
4465.05,0.10611
4441.9,0.07998
4418.76,0.06369
4395.61,0.05817
4372.47,0.05774
4349.32,0.05594
4326.18,0.05628
4303.03,0.05730
4279.89,0.05618
4256.74,0.05653
4233.6,0.05699
4210.45,0.05701
4187.31,0.05711
4164.16,0.05718
4141.02,0.05695
4117.87,0.05683
4094.73,0.05667
4071.58,0.05768
4048.44,0.05716
4025.29,0.05649
4002.15,0.05751
3979,0.05750
3955.86,0.05741
3932.71,0.05690
3909.57,0.05737
3886.42,0.05742
3863.28,0.05733
3840.13,0.05750
3816.99,0.05732
3793.84,0.05730
3770.7,0.05779
3747.55,0.05791
3724.41,0.05791
3701.26,0.05748
3678.12,0.05782
3654.97,0.05780
3631.83,0.05735
3608.68,0.05653
3585.54,0.05714
3562.39,0.05894
3539.25,0.06044
3516.1,0.06016
3492.96,0.05917
3469.81,0.05859
3446.67,0.05717
3423.52,0.05674
3400.38,0.05634
3377.23,0.05545
3354.09,0.05576
3330.94,0.05624
3307.8,0.05651
3284.65,0.05701
3261.51,0.05597
3238.36,0.05609
3215.22,0.05564
3192.07,0.05486
3168.93,0.05476
3145.78,0.05426
3122.64,0.05372
3099.49,0.05335
3076.35,0.05241
3053.2,0.05178
3030.06,0.05143
3006.91,0.04986
2983.77,0.04778
2960.62,0.04400
2937.48,0.03558
2914.33,0.08338
2891.19,0.06457
2868.04,0.05579
2844.9,0.07969
2821.75,0.06537
2798.61,0.06275
2775.46,0.06168
2752.32,0.06031
2729.17,0.05976
2706.03,0.05970
2682.88,0.05949
2659.74,0.05911
2636.59,0.05866
2613.45,0.05863
2590.3,0.05878
2567.16,0.05817
2544.02,0.05860
2520.87,0.05824
2497.73,0.05847
2474.58,0.05844
2451.44,0.05878
2428.29,0.05860
2405.15,0.05850
2382,0.05832
2358.86,0.05797
2335.71,0.05852
2312.57,0.05809
2289.42,0.05855
2266.28,0.05841
2243.13,0.05826
2219.99,0.05992
2196.84,0.06041
2173.7,0.06035
2150.55,0.05929
2127.41,0.06343
2104.26,0.06598
2081.12,0.06315
2057.97,0.05987
2034.83,0.05847
2011.68,0.05796
1988.54,0.06695
1965.39,0.06646
1942.25,0.06482
1919.1,0.06137
1895.96,0.05831
1872.81,0.07091
1849.67,0.08201
1826.52,0.07192
1803.38,0.06930
1780.23,0.07086
1757.09,0.06771
1733.94,0.05891
1710.8,0.05809
1687.65,0.05902
1664.51,0.05799
1641.36,0.05659
1618.22,0.05682
1595.07,0.05647
1571.93,0.05610
1548.78,0.05555
1525.64,0.05559
1502.49,0.05510
1479.35,0.05154
1456.2,0.05978
1433.06,0.05865
1409.91,0.05781
1386.77,0.05676
1363.62,0.05746
1340.48,0.05741
1317.33,0.05705
1294.19,0.05765
1271.04,0.05743
1247.9,0.05731
1224.75,0.05771
1201.61,0.05737
1178.46,0.05727
1155.32,0.05772
1132.17,0.05730
1109.03,0.05696
1085.88,0.05601
1062.74,0.05689
1039.59,0.05699
1016.45,0.05817
993.304,0.05719
970.159,0.05700
947.014,0.05790
923.869,0.05740
900.724,0.05638
877.579,0.05730
854.434,0.05732
831.289,0.05724
808.144,0.05709
784.999,0.05679
761.854,0.05642
738.709,0.05466
715.565,0.06284
692.42,0.05864
669.275,0.06217
646.13,0.08766
622.985,0.10994
599.84,0.09109