Folder: fsri_materials_database/01_Data/LDPE/FTIR/IS

Note: README.md
# Materials and Products Database
### Repository of materials and products properties and fire test data to improve fire modeling and fire investigation.

This project was supported in part by Award No. 2019-DU-BX-0018, awarded by the National Institute of Justice, Office of Justice Programs, U.S. Department of Justice. The opinions, findings, and conclusions or recommendations expressed in this publication / program / exhibition are those of the author(s) and do not necessarily reflect those of the Department of Justice.

***
***

__Cite this database:__ "McKinnon, M., Weinschenk, C., Dow, N., DiDomizio, M., and Madrzykowski, D. Materials and Products Database (Version 1.0.0), Fire Safety Research Institute, UL Research Institutes. Columbia, MD 21045, 2023."

__Cite the Technical Reference Guide:__ "McKinnon, M., Weinschenk, C., and Madrzykowski, D. Materials and Products Database - Technical Reference Guide, Fire Safety Research Institute, UL Research Institutes. Columbia, MD 21045, 2023."

__Cite the User Guide:__ "McKinnon, M., and Weinschenk, C. Materials and Products Database - User Guide, Fire Safety Research Institute, UL Research Institutes. Columbia, MD 21045, 2023."

***
***

## Database Structure

## 01_Data/
Raw data generated from each apparatus are included here in plain-text format. The data is organized first by material, next by the short name of test apparatus used, and where applicable additional filtering by test settings.

### Test Apparatus and Data File Structure
- __Cone Calorimeter__ (Cone)
    + Data file structure includes the material, the short name for the apparatus, heat flux setting and scan/scalar, date of test, and replicate number. Scan is for the raw output data and scalar is for the initial conditions and high-level test parameters. 
        * Example: __MDF_Cone_HF25scalar_210323_R1__ stands for the first replicate of scalar data generated from a medium density fiber board test in cone calorimeter exposed to 25 kW/m<sup>2</sup> on March 23, 2021.
    + A _Cone_Notes.csv_ is generated for each material from the __plot_Cone_data.py__ script. For materials whose experiments deviated from typical behavior relevant pictures are included in the respective material directory.
- __Fourier Transform Infrared Spectrometer__ (FTIR)
    + The FTIR directory contains subdirectories for the Attenuated Total Reflectance method (ATR) and the Integrating Sphere (IS)
    + Data file structure for the ATR experiment files includes the material, the abbreviated name for the apparatus, date of test, and replicate number. 
        * Example: __MDF_ATR_210323_R5__ stands for the fifth replicate of data collected with the ATR accessory conducted on June 8, 2021.
    + Data file structure for the IS experiment files includes the material, the abbreviated name for the apparatus, the measurand, whether the test is a sample measurement or standard reference, date of test, and replicate number.
        * Example: __OSB_IS_REFLECT_MEAS_2

File: LDPE_IS_S_220831_R1.dpt
7497.03,0.48825
7473.89,0.49460
7450.74,0.48962
7427.6,0.49336
7404.45,0.49089
7381.31,0.48061
7358.16,0.46908
7335.02,0.45154
7311.87,0.43404
7288.73,0.40663
7265.58,0.36448
7242.44,0.32734
7219.29,0.29541
7196.15,0.22972
7173,0.17374
7149.86,0.25809
7126.71,0.26699
7103.57,0.24920
7080.42,0.22999
7057.28,0.21487
7034.13,0.22381
7010.99,0.23063
6987.84,0.24684
6964.7,0.24593
6941.55,0.25285
6918.41,0.27737
6895.26,0.29426
6872.12,0.31540
6848.97,0.33159
6825.83,0.34713
6802.68,0.37017
6779.54,0.38549
6756.39,0.40051
6733.25,0.41297
6710.1,0.42658
6686.96,0.43361
6663.82,0.44439
6640.67,0.44785
6617.53,0.45686
6594.38,0.45975
6571.24,0.45261
6548.09,0.45195
6524.95,0.44582
6501.8,0.44036
6478.66,0.44037
6455.51,0.47252
6432.37,0.49106
6409.22,0.49869
6386.08,0.50667
6362.93,0.51007
6339.79,0.51882
6316.64,0.52339
6293.5,0.52466
6270.35,0.52223
6247.21,0.52279
6224.06,0.52148
6200.92,0.51863
6177.77,0.51496
6154.63,0.50666
6131.48,0.49896
6108.34,0.49429
6085.19,0.48654
6062.05,0.48167
6038.9,0.46869
6015.76,0.44783
5992.61,0.42519
5969.47,0.38775
5946.32,0.34176
5923.18,0.26851
5900.03,0.20675
5876.89,0.13997
5853.74,0.07945
5830.6,0.06259
5807.45,0.05827
5784.31,0.05491
5761.16,0.05682
5738.02,0.06248
5714.87,0.07899
5691.73,0.06507
5668.58,0.05806
5645.44,0.06898
5622.29,0.08095
5599.15,0.09511
5576,0.09389
5552.86,0.08685
5529.71,0.08921
5506.57,0.08619
5483.42,0.08905
5460.28,0.09614
5437.13,0.10020
5413.99,0.11245
5390.84,0.12958
5367.7,0.14047
5344.55,0.15968
5321.41,0.16514
5298.26,0.16238
5275.12,0.16247
5251.97,0.16577
5228.83,0.16123
5205.68,0.15959
5182.54,0.16056
5159.39,0.16132
5136.25,0.16671
5113.1,0.16487
5089.96,0.16597
5066.81,0.16951
5043.67,0.17484
5020.52,0.17043
4997.38,0.16428
4974.23,0.14678
4951.09,0.16345
4927.94,0.17073
4904.8,0.17074
4881.65,0.16777
4858.51,0.17027
4835.36,0.19101
4812.22,0.20735
4789.07,0.22002
4765.93,0.23270
4742.78,0.24385
4719.64,0.25440
4696.49,0.26056
4673.35,0.24742
4650.2,0.25402
4627.06,0.25224
4603.92,0.24211
4580.77,0.23035
4557.63,0.21083
4534.48,0.18513
4511.34,0.16022
4488.19,0.13279
4465.05,0.10546
4441.9,0.08068
4418.76,0.06287
4395.61,0.05780
4372.47,0.05762
4349.32,0.05674
4326.18,0.05562
4303.03,0.05640
4279.89,0.05690
4256.74,0.05719
4233.6,0.05621
4210.45,0.05668
4187.31,0.05689
4164.16,0.05645
4141.02,0.05684
4117.87,0.05698
4094.73,0.05693
4071.58,0.05667
4048.44,0.05709
4025.29,0.05755
4002.15,0.05770
3979,0.05691
3955.86,0.05772
3932.71,0.05712
3909.57,0.05656
3886.42,0.05773
3863.28,0.05707
3840.13,0.05784
3816.99,0.05754
3793.84,0.05747
3770.7,0.05794
3747.55,0.05789
3724.41,0.05762
3701.26,0.05774
3678.12,0.05780
3654.97,0.05740
3631.83,0.05670
3608.68,0.05674
3585.54,0.05697
3562.39,0.05831
3539.25,0.05951
3516.1,0.06025
3492.96,0.05890
3469.81,0.05830
3446.67,0.05685
3423.52,0.05688
3400.38,0.05676
3377.23,0.05571
3354.09,0.05639
3330.94,0.05681
3307.8,0.05676
3284.65,0.05686
3261.51,0.05632
3238.36,0.05580
3215.22,0.05479
3192.07,0.05466
3168.93,0.05455
3145.78,0.05370
3122.64,0.05368
3099.49,0.05336
3076.35,0.05248
3053.2,0.05143
3030.06,0.05110
3006.91,0.05006
2983.77,0.04770
2960.62,0.04437
2937.48,0.03586
2914.33,0.08368
2891.19,0.06485
2868.04,0.05579
2844.9,0.07983
2821.75,0.06554
2798.61,0.06205
2775.46,0.06164
2752.32,0.06072
2729.17,0.05991
2706.03,0.05958
2682.88,0.05928
2659.74,0.05908
2636.59,0.05900
2613.45,0.05883
2590.3,0.05846
2567.16,0.05833
2544.02,0.05828
2520.87,0.05850
2497.73,0.05857
2474.58,0.05859
2451.44,0.05892
2428.29,0.05838
2405.15,0.05823
2382,0.05825
2358.86,0.05804
2335.71,0.05785
2312.57,0.05811
2289.42,0.05859
2266.28,0.05863
2243.13,0.05839
2219.99,0.05976
2196.84,0.06091
2173.7,0.06014
2150.55,0.05882
2127.41,0.06384
2104.26,0.06603
2081.12,0.06351
2057.97,0.06007
2034.83,0.05810
2011.68,0.05828
1988.54,0.06730
1965.39,0.06618
1942.25,0.06463
1919.1,0.06139
1895.96,0.05825
1872.81,0.07071
1849.67,0.08185
1826.52,0.07180
1803.38,0.06947
1780.23,0.07089
1757.09,0.06771
1733.94,0.05907
1710.8,0.05794
1687.65,0.05921
1664.51,0.05764
1641.36,0.05645
1618.22,0.05631
1595.07,0.05637
1571.93,0.05624
1548.78,0.05556
1525.64,0.05549
1502.49,0.05520
1479.35,0.05221
1456.2,0.05994
1433.06,0.05874
1409.91,0.05764
1386.77,0.05678
1363.62,0.05738
1340.48,0.05761
1317.33,0.05745
1294.19,0.05741
1271.04,0.05757
1247.9,0.05758
1224.75,0.05744
1201.61,0.05727
1178.46,0.05746
1155.32,0.05798
1132.17,0.05722
1109.03,0.05701
1085.88,0.05656
1062.74,0.05740
1039.59,0.05763
1016.45,0.05789
993.304,0.05780
970.159,0.05730
947.014,0.05772
923.869,0.05848
900.724,0.05714
877.579,0.05672
854.434,0.05781
831.289,0.05728
808.144,0.05712
784.999,0.05669
761.854,0.05614
738.709,0.05392
715.565,0.06253
692.42,0.05756
669.275,0.06345
646.13,0.08674
622.985,0.10918
599.84,0.09019

File: LDPE_IS_S_220831_R2.dpt
7497.03,0.48285
7473.89,0.48670
7450.74,0.48528
7427.6,0.48348
7404.45,0.48366
7381.31,0.47173
7358.16,0.47460
7335.02,0.45218
7311.87,0.43033
7288.73,0.39490
7265.58,0.36870
7242.44,0.33577
7219.29,0.28382
7196.15,0.23101
7173,0.17943
7149.86,0.25481
7126.71,0.27242
7103.57,0.25157
7080.42,0.23289
7057.28,0.20717
7034.13,0.22378
7010.99,0.23358
6987.84,0.23703
6964.7,0.24352
6941.55,0.25439
6918.41,0.27832
6895.26,0.29298
6872.12,0.30965
6848.97,0.32669
6825.83,0.34184
6802.68,0.36788
6779.54,0.38228
6756.39,0.39538
6733.25,0.40683
6710.1,0.42236
6686.96,0.43213
6663.82,0.44358
6640.67,0.44663
6617.53,0.45164
6594.38,0.45201
6571.24,0.44827
6548.09,0.44865
6524.95,0.44563
6501.8,0.43703
6478.66,0.43806
6455.51,0.47079
6432.37,0.48661
6409.22,0.49500
6386.08,0.49841
6362.93,0.50873
6339.79,0.51469
6316.64,0.51467
6293.5,0.51622
6270.35,0.52042
6247.21,0.52214
6224.06,0.51745
6200.92,0.51623
6177.77,0.51142
6154.63,0.50192
6131.48,0.49468
6108.34,0.49021
6085.19,0.48313
6062.05,0.47920
6038.9,0.46520
6015.76,0.44467
5992.61,0.42281
5969.47,0.38463
5946.32,0.33816
5923.18,0.26696
5900.03,0.20529
5876.89,0.13971
5853.74,0.07915
5830.6,0.06381
5807.45,0.05574
5784.31,0.05617
5761.16,0.05471
5738.02,0.06338
5714.87,0.07683
5691.73,0.06559
5668.58,0.05671
5645.44,0.06824
5622.29,0.08316
5599.15,0.09298
5576,0.09282
5552.86,0.08491
5529.71,0.08809
5506.57,0.08880
5483.42,0.08679
5460.28,0.09411
5437.13,0.09981
5413.99,0.11316
5390.84,0.12920
5367.7,0.14192
5344.55,0.15636
5321.41,0.16486
5298.26,0.16154
5275.12,0.16329
5251.97,0.16343
5228.83,0.16046
5205.68,0.15987
5182.54,0.15955
5159.39,0.16032
5136.25,0.16740
5113.1,0.16472
5089.96,0.16391
5066.81,0.16880
5043.67,0.17319
5020.52,0.16959
4997.38,0.16102
4974.23,0.14794
4951.09,0.16220
4927.94,0.17197
4904.8,0.17104
4881.65,0.16720
4858.51,0.16898
4835.36,0.19045
4812.22,0.20701
4789.07,0.21788
4765.93,0.23123
4742.78,0.24254
4719.64,0.25161
4696.49,0.25961
4673.35,0.24602
4650.2,0.25332
4627.06,0.25127
4603.92,0.24095
4580.77,0.22962
4557.63,0.20953
4534.48,0.18428
4511.34,0.16006
4488.19,0.13149
4465.05,0.10593
4441.9,0.07986
4418.76,0.06342
4395.61,0.05783
4372.47,0.05659
4349.32,0.05678
4326.18,0.05635
4303.03,0.05707
4279.89,0.05705
4256.74,0.05705
4233.6,0.05615
4210.45,0.05618
4187.31,0.05699
4164.16,0.05716
4141.02,0.05647
4117.87,0.05614
4094.73,0.05703
4071.58,0.05669
4048.44,0.05758
4025.29,0.05727
4002.15,0.05728
3979,0.05682
3955.86,0.05759
3932.71,0.05729
3909.57,0.05757
3886.42,0.05708
3863.28,0.05702
3840.13,0.05716
3816.99,0.05761
3793.84,0.05726
3770.7,0.05796
3747.55,0.05756
3724.41,0.05833
3701.26,0.05667
3678.12,0.05723
3654.97,0.05667
3631.83,0.05635
3608.68,0.05642
3585.54,0.05700
3562.39,0.05801
3539.25,0.05934
3516.1,0.06049
3492.96,0.05911
3469.81,0.05829
3446.67,0.05651
3423.52,0.05606
3400.38,0.05624
3377.23,0.05630
3354.09,0.05566
3330.94,0.05609
3307.8,0.05626
3284.65,0.05645
3261.51,0.05624
3238.36,0.05603
3215.22,0.05476
3192.07,0.05413
3168.93,0.05458
3145.78,0.05434
3122.64,0.05342
3099.49,0.05316
3076.35,0.05231
3053.2,0.05199
3030.06,0.05136
3006.91,0.04961
2983.77,0.04739
2960.62,0.04410
2937.48,0.03570
2914.33,0.08297
2891.19,0.06429
2868.04,0.05573
2844.9,0.07885
2821.75,0.06507
2798.61,0.06222
2775.46,0.06117
2752.32,0.06058
2729.17,0.05947
2706.03,0.05897
2682.88,0.05859
2659.74,0.05856
2636.59,0.05842
2613.45,0.05850
2590.3,0.05863
2567.16,0.05827
2544.02,0.05855
2520.87,0.05823
2497.73,0.05792
2474.58,0.05802
2451.44,0.05830
2428.29,0.05789
2405.15,0.05850
2382,0.05833
2358.86,0.05823
2335.71,0.05757
2312.57,0.05784
2289.42,0.05779
2266.28,0.05812
2243.13,0.05850
2219.99,0.05984
2196.84,0.06023
2173.7,0.05991
2150.55,0.05871
2127.41,0.06308
2104.26,0.06555
2081.12,0.06294
2057.97,0.05954
2034.83,0.05817
2011.68,0.05812
1988.54,0.06643
1965.39,0.06620
1942.25,0.06421
1919.1,0.06102
1895.96,0.05765
1872.81,0.07043
1849.67,0.08183
1826.52,0.07138
1803.38,0.06914
1780.23,0.07047
1757.09,0.06733
1733.94,0.05856
1710.8,0.05740
1687.65,0.05868
1664.51,0.05758
1641.36,0.05622
1618.22,0.05628
1595.07,0.05622
1571.93,0.05593
1548.78,0.05519
1525.64,0.05538
1502.49,0.05491
1479.35,0.05170
1456.2,0.05989
1433.06,0.05850
1409.91,0.05757
1386.77,0.05680
1363.62,0.05731
1340.48,0.05728
1317.33,0.05674
1294.19,0.05690
1271.04,0.05677
1247.9,0.05706
1224.75,0.05713
1201.61,0.05701
1178.46,0.05751
1155.32,0.05720
1132.17,0.05624
1109.03,0.05728
1085.88,0.05656
1062.74,0.05716
1039.59,0.05762
1016.45,0.05729
993.304,0.05729
970.159,0.05771
947.014,0.05765
923.869,0.05722
900.724,0.05720
877.579,0.05644
854.434,0.05755
831.289,0.05659
808.144,0.05718
784.999,0.05649
761.854,0.05557
738.709,0.05364
715.565,0.06274
692.42,0.05809
669.275,0.06354
646.13,0.08755
622.985,0.10772
599.84,0.08957

File: LDPE_IS_S_220831_R3.dpt
7497.03,0.49291
7473.89,0.48665
7450.74,0.48167
7427.6,0.48373
7404.45,0.48957
7381.31,0.47613
7358.16,0.47276
7335.02,0.44998
7311.87,0.44155
7288.73,0.40288
7265.58,0.36493
7242.44,0.33590
7219.29,0.28851
7196.15,0.23600
7173,0.17204
7149.86,0.24912
7126.71,0.26962
7103.57,0.24632
7080.42,0.22735
7057.28,0.20668
7034.13,0.22477
7010.99,0.23125
6987.84,0.24395
6964.7,0.24176
6941.55,0.25539
6918.41,0.27790
6895.26,0.28831
6872.12,0.31184
6848.97,0.32566
6825.83,0.34062
6802.68,0.36860
6779.54,0.38795
6756.39,0.40172
6733.25,0.40680
6710.1,0.42339
6686.96,0.43349
6663.82,0.43726
6640.67,0.44869
6617.53,0.45259
6594.38,0.45454
6571.24,0.45335
6548.09,0.45217
6524.95,0.44751
6501.8,0.43490
6478.66,0.43095
6455.51,0.47159
6432.37,0.48952
6409.22,0.49402
6386.08,0.50367
6362.93,0.50931
6339.79,0.51412
6316.64,0.52196
6293.5,0.52268
6270.35,0.51993
6247.21,0.52176
6224.06,0.52066
6200.92,0.51796
6177.77,0.50870
6154.63,0.50603
6131.48,0.49807
6108.34,0.49286
6085.19,0.48569
6062.05,0.47972
6038.9,0.46864
6015.76,0.44932
5992.61,0.42125
5969.47,0.38788
5946.32,0.33784
5923.18,0.26689
5900.03,0.20408
5876.89,0.13957
5853.74,0.07863
5830.6,0.06205
5807.45,0.05863
5784.31,0.05696
5761.16,0.05597
5738.02,0.06590
5714.87,0.07965
5691.73,0.06602
5668.58,0.05906
5645.44,0.06975
5622.29,0.08174
5599.15,0.09446
5576,0.09059
5552.86,0.08559
5529.71,0.08817
5506.57,0.08702
5483.42,0.08507
5460.28,0.09616
5437.13,0.10006
5413.99,0.11183
5390.84,0.13002
5367.7,0.14184
5344.55,0.15975
5321.41,0.16494
5298.26,0.16209
5275.12,0.16274
5251.97,0.16318
5228.83,0.15998
5205.68,0.16016
5182.54,0.15873
5159.39,0.16093
5136.25,0.16649
5113.1,0.16507
5089.96,0.16481
5066.81,0.16823
5043.67,0.17188
5020.52,0.17051
4997.38,0.16224
4974.23,0.14809
4951.09,0.16286
4927.94,0.17129
4904.8,0.17263
4881.65,0.16655
4858.51,0.17054
4835.36,0.19041
4812.22,0.20819
4789.07,0.21973
4765.93,0.23152
4742.78,0.24392
4719.64,0.25336
4696.49,0.26050
4673.35,0.24693
4650.2,0.25349
4627.06,0.25137
4603.92,0.24177
4580.77,0.23005
4557.63,0.20961
4534.48,0.18481
4511.34,0.16004
4488.19,0.13178
4465.05,0.10614
4441.9,0.07977
4418.76,0.06261
4395.61,0.05743
4372.47,0.05745
4349.32,0.05637
4326.18,0.05617
4303.03,0.05665
4279.89,0.05681
4256.74,0.05679
4233.6,0.05607
4210.45,0.05710
4187.31,0.05693
4164.16,0.05710
4141.02,0.05643
4117.87,0.05652
4094.73,0.05727
4071.58,0.05786
4048.44,0.05709
4025.29,0.05812
4002.15,0.05758
3979,0.05727
3955.86,0.05741
3932.71,0.05726
3909.57,0.05742
3886.42,0.05699
3863.28,0.05732
3840.13,0.05738
3816.99,0.05710
3793.84,0.05724
3770.7,0.05769
3747.55,0.05772
3724.41,0.05732
3701.26,0.05777
3678.12,0.05808
3654.97,0.05706
3631.83,0.05659
3608.68,0.05666
3585.54,0.05717
3562.39,0.05828
3539.25,0.05990
3516.1,0.05924
3492.96,0.05977
3469.81,0.05751
3446.67,0.05714
3423.52,0.05651
3400.38,0.05583
3377.23,0.05534
3354.09,0.05568
3330.94,0.05622
3307.8,0.05645
3284.65,0.05642
3261.51,0.05586
3238.36,0.05643
3215.22,0.05480
3192.07,0.05526
3168.93,0.05441
3145.78,0.05459
3122.64,0.05369
3099.49,0.05308
3076.35,0.05312
3053.2,0.05157
3030.06,0.05146
3006.91,0.04977
2983.77,0.04712
2960.62,0.04451
2937.48,0.03608
2914.33,0.08303
2891.19,0.06451
2868.04,0.05620
2844.9,0.07926
2821.75,0.06529
2798.61,0.06203
2775.46,0.06095
2752.32,0.06001
2729.17,0.05963
2706.03,0.05959
2682.88,0.05915
2659.74,0.05905
2636.59,0.05867
2613.45,0.05868
2590.3,0.05835
2567.16,0.05796
2544.02,0.05815
2520.87,0.05836
2497.73,0.05785
2474.58,0.05791
2451.44,0.05856
2428.29,0.05823
2405.15,0.05820
2382,0.05808
2358.86,0.05801
2335.71,0.05816
2312.57,0.05799
2289.42,0.05811
2266.28,0.05833
2243.13,0.05853
2219.99,0.05994
2196.84,0.06025
2173.7,0.06029
2150.55,0.05881
2127.41,0.06322
2104.26,0.06517
2081.12,0.06329
2057.97,0.06012
2034.83,0.05840
2011.68,0.05801
1988.54,0.06699
1965.39,0.06612
1942.25,0.06474
1919.1,0.06103
1895.96,0.05768
1872.81,0.07034
1849.67,0.08175
1826.52,0.07155
1803.38,0.06930
1780.23,0.07094
1757.09,0.06727
1733.94,0.05893
1710.8,0.05777
1687.65,0.05907
1664.51,0.05756
1641.36,0.05617
1618.22,0.05653
1595.07,0.05618
1571.93,0.05586
1548.78,0.05587
1525.64,0.05563
1502.49,0.05481
1479.35,0.05182
1456.2,0.06000
1433.06,0.05865
1409.91,0.05753
1386.77,0.05696
1363.62,0.05739
1340.48,0.05754
1317.33,0.05718
1294.19,0.05728
1271.04,0.05775
1247.9,0.05721
1224.75,0.05729
1201.61,0.05713
1178.46,0.05671
1155.32,0.05666
1132.17,0.05686
1109.03,0.05691
1085.88,0.05639
1062.74,0.05741
1039.59,0.05689
1016.45,0.05714
993.304,0.05712
970.159,0.05708
947.014,0.05773
923.869,0.05765
900.724,0.05716
877.579,0.05734
854.434,0.05748
831.289,0.05755
808.144,0.05725
784.999,0.05651
761.854,0.05595
738.709,0.05373
715.565,0.06214
692.42,0.05786
669.275,0.06321
646.13,0.08850
622.985,0.10987
599.84,0.09199

File: LDPE_IS_S_220831_R4.dpt
7497.03,0.49170
7473.89,0.49152
7450.74,0.48305
7427.6,0.48767
7404.45,0.48785
7381.31,0.46842
7358.16,0.46187
7335.02,0.45854
7311.87,0.42602
7288.73,0.39715
7265.58,0.36304
7242.44,0.33366
7219.29,0.28775
7196.15,0.23385
7173,0.17309
7149.86,0.25045
7126.71,0.26798
7103.57,0.24259
7080.42,0.22377
7057.28,0.19995
7034.13,0.21895
7010.99,0.23240
6987.84,0.23947
6964.7,0.24021
6941.55,0.25526
6918.41,0.28002
6895.26,0.28857
6872.12,0.31297
6848.97,0.32569
6825.83,0.34117
6802.68,0.36405
6779.54,0.38365
6756.39,0.39848
6733.25,0.41395
6710.1,0.41926
6686.96,0.43151
6663.82,0.44140
6640.67,0.44887
6617.53,0.44639
6594.38,0.44791
6571.24,0.44997
6548.09,0.44755
6524.95,0.44293
6501.8,0.44044
6478.66,0.43088
6455.51,0.47018
6432.37,0.48640
6409.22,0.48675
6386.08,0.49858
6362.93,0.50766
6339.79,0.51500
6316.64,0.51570
6293.5,0.51794
6270.35,0.51786
6247.21,0.51733
6224.06,0.51475
6200.92,0.51009
6177.77,0.51196
6154.63,0.50176
6131.48,0.49145
6108.34,0.48791
6085.19,0.48537
6062.05,0.47783
6038.9,0.46321
6015.76,0.44764
5992.61,0.42247
5969.47,0.38242
5946.32,0.33663
5923.18,0.26585
5900.03,0.20150
5876.89,0.13843
5853.74,0.07849
5830.6,0.06148
5807.45,0.05701
5784.31,0.05698
5761.16,0.05710
5738.02,0.06441
5714.87,0.07634
5691.73,0.06383
5668.58,0.05934
5645.44,0.06677
5622.29,0.08085
5599.15,0.09487
5576,0.09185
5552.86,0.08283
5529.71,0.08757
5506.57,0.08567
5483.42,0.08654
5460.28,0.09499
5437.13,0.09994
5413.99,0.10987
5390.84,0.12996
5367.7,0.13965
5344.55,0.15848
5321.41,0.16386
5298.26,0.16110
5275.12,0.16212
5251.97,0.16246
5228.83,0.15779
5205.68,0.15865
5182.54,0.15688
5159.39,0.16032
5136.25,0.16635
5113.1,0.16463
5089.96,0.16367
5066.81,0.16776
5043.67,0.17297
5020.52,0.16899
4997.38,0.16060
4974.23,0.14636
4951.09,0.16080
4927.94,0.16999
4904.8,0.17078
4881.65,0.16552
4858.51,0.16986
4835.36,0.18978
4812.22,0.20573
4789.07,0.21782
4765.93,0.23078
4742.78,0.24138
4719.64,0.25222
4696.49,0.25791
4673.35,0.24489
4650.2,0.25168
4627.06,0.24852
4603.92,0.23907
4580.77,0.22872
4557.63,0.20779
4534.48,0.18345
4511.34,0.15784
4488.19,0.12969
4465.05,0.10516
4441.9,0.07885
4418.76,0.06228
4395.61,0.05756
4372.47,0.05689
4349.32,0.05613
4326.18,0.05599
4303.03,0.05697
4279.89,0.05626
4256.74,0.05659
4233.6,0.05582
4210.45,0.05619
4187.31,0.05628
4164.16,0.05635
4141.02,0.05701
4117.87,0.05632
4094.73,0.05621
4071.58,0.05609
4048.44,0.05686
4025.29,0.05711
4002.15,0.05676
3979,0.05701
3955.86,0.05692
3932.71,0.05642
3909.57,0.05669
3886.42,0.05647
3863.28,0.05656
3840.13,0.05685
3816.99,0.05724
3793.84,0.05729
3770.7,0.05745
3747.55,0.05664
3724.41,0.05758
3701.26,0.05745
3678.12,0.05689
3654.97,0.05714
3631.83,0.05626
3608.68,0.05636
3585.54,0.05650
3562.39,0.05817
3539.25,0.05943
3516.1,0.05961
3492.96,0.05886
3469.81,0.05784
3446.67,0.05633
3423.52,0.05609
3400.38,0.05614
3377.23,0.05532
3354.09,0.05536
3330.94,0.05607
3307.8,0.05563
3284.65,0.05655
3261.51,0.05585
3238.36,0.05557
3215.22,0.05515
3192.07,0.05490
3168.93,0.05472
3145.78,0.05422
3122.64,0.05346
3099.49,0.05237
3076.35,0.05241
3053.2,0.05187
3030.06,0.05100
3006.91,0.04912
2983.77,0.04734
2960.62,0.04333
2937.48,0.03558
2914.33,0.08279
2891.19,0.06408
2868.04,0.05579
2844.9,0.07883
2821.75,0.06500
2798.61,0.06188
2775.46,0.06057
2752.32,0.06000
2729.17,0.05969
2706.03,0.05897
2682.88,0.05864
2659.74,0.05854
2636.59,0.05836
2613.45,0.05846
2590.3,0.05793
2567.16,0.05825
2544.02,0.05814
2520.87,0.05796
2497.73,0.05814
2474.58,0.05768
2451.44,0.05831
2428.29,0.05772
2405.15,0.05780
2382,0.05805
2358.86,0.05787
2335.71,0.05759
2312.57,0.05754
2289.42,0.05746
2266.28,0.05753
2243.13,0.05743
2219.99,0.05910
2196.84,0.06022
2173.7,0.05954
2150.55,0.05813
2127.41,0.06302
2104.26,0.06515
2081.12,0.06271
2057.97,0.05942
2034.83,0.05744
2011.68,0.05777
1988.54,0.06627
1965.39,0.06577
1942.25,0.06416
1919.1,0.06066
1895.96,0.05762
1872.81,0.07004
1849.67,0.08119
1826.52,0.07091
1803.38,0.06844
1780.23,0.07030
1757.09,0.06672
1733.94,0.05851
1710.8,0.05690
1687.65,0.05858
1664.51,0.05703
1641.36,0.05610
1618.22,0.05575
1595.07,0.05583
1571.93,0.05590
1548.78,0.05489
1525.64,0.05486
1502.49,0.05466
1479.35,0.05156
1456.2,0.05958
1433.06,0.05837
1409.91,0.05753
1386.77,0.05669
1363.62,0.05712
1340.48,0.05672
1317.33,0.05674
1294.19,0.05704
1271.04,0.05693
1247.9,0.05712
1224.75,0.05683
1201.61,0.05651
1178.46,0.05622
1155.32,0.05674
1132.17,0.05666
1109.03,0.05694
1085.88,0.05693
1062.74,0.05651
1039.59,0.05727
1016.45,0.05735
993.304,0.05672
970.159,0.05674
947.014,0.05745
923.869,0.05694
900.724,0.05685
877.579,0.05725
854.434,0.05742
831.289,0.05740
808.144,0.05676
784.999,0.05679
761.854,0.05528
738.709,0.05366
715.565,0.06186
692.42,0.05771
669.275,0.06268
646.13,0.08792
622.985,0.10918
599.84,0.09066