Folder: fsri_materials_database/01_Data/PVC/FTIR/IS

Note: README.md
# Materials and Products Database
### Repository of materials and products properties and fire test data to improve fire modeling and fire investigation.

This project was supported in part by Award No. 2019-DU-BX-0018, awarded by the National Institute of Justice, Office of Justice Programs, U.S. Department of Justice. The opinions, findings, and conclusions or recommendations expressed in this publication / program / exhibition are those of the author(s) and do not necessarily reflect those of the Department of Justice.

***
***

__Cite this database:__ "McKinnon, M., Weinschenk, C., Dow, N., DiDomizio, M., and Madrzykowski, D. Materials and Products Database (Version 1.0.0), Fire Safety Research Institute, UL Research Institutes. Columbia, MD 21045, 2023."

__Cite the Technical Reference Guide:__ "McKinnon, M., Weinschenk, C., and Madrzykowski, D. Materials and Products Database - Technical Reference Guide, Fire Safety Research Institute, UL Research Institutes. Columbia, MD 21045, 2023."

__Cite the User Guide:__ "McKinnon, M., and Weinschenk, C. Materials and Products Database - User Guide, Fire Safety Research Institute, UL Research Institutes. Columbia, MD 21045, 2023."

***
***

## Database Structure

## 01_Data/
Raw data generated from each apparatus are included here in plain-text format. The data is organized first by material, next by the short name of test apparatus used, and where applicable additional filtering by test settings.

### Test Apparatus and Data File Structure
- __Cone Calorimeter__ (Cone)
    + Data file structure includes the material, the short name for the apparatus, heat flux setting and scan/scalar, date of test, and replicate number. Scan is for the raw output data and scalar is for the initial conditions and high-level test parameters. 
        * Example: __MDF_Cone_HF25scalar_210323_R1__ stands for the first replicate of scalar data generated from a medium density fiber board test in cone calorimeter exposed to 25 kW/m<sup>2</sup> on March 23, 2021.
    + A _Cone_Notes.csv_ is generated for each material from the __plot_Cone_data.py__ script. For materials whose experiments deviated from typical behavior relevant pictures are included in the respective material directory.
- __Fourier Transform Infrared Spectrometer__ (FTIR)
    + The FTIR directory contains subdirectories for the Attenuated Total Reflectance method (ATR) and the Integrating Sphere (IS)
    + Data file structure for the ATR experiment files includes the material, the abbreviated name for the apparatus, date of test, and replicate number. 
        * Example: __MDF_ATR_210323_R5__ stands for the fifth replicate of data collected with the ATR accessory conducted on June 8, 2021.
    + Data file structure for the IS experiment files includes the material, the abbreviated name for the apparatus, the measurand, whether the test is a sample measurement or standard reference, date of test, and replicate number.
        * Example: __OSB_IS_REFLECT_MEAS_2

File: PVC_IS_S_220818_R1.dpt
7497.03,0.10613
7473.89,0.11130
7450.74,0.11195
7427.6,0.10213
7404.45,0.11279
7381.31,0.10844
7358.16,0.11180
7335.02,0.11540
7311.87,0.10950
7288.73,0.11358
7265.58,0.11245
7242.44,0.10470
7219.29,0.10944
7196.15,0.10154
7173,0.10586
7149.86,0.11061
7126.71,0.10358
7103.57,0.10306
7080.42,0.10587
7057.28,0.10311
7034.13,0.10465
7010.99,0.10185
6987.84,0.10308
6964.7,0.10498
6941.55,0.10279
6918.41,0.10144
6895.26,0.10613
6872.12,0.10488
6848.97,0.10670
6825.83,0.10441
6802.68,0.10355
6779.54,0.10325
6756.39,0.11061
6733.25,0.10258
6710.1,0.10334
6686.96,0.10347
6663.82,0.10031
6640.67,0.09825
6617.53,0.10079
6594.38,0.10097
6571.24,0.09909
6548.09,0.10064
6524.95,0.09849
6501.8,0.09995
6478.66,0.10240
6455.51,0.10065
6432.37,0.09612
6409.22,0.09918
6386.08,0.10082
6362.93,0.09868
6339.79,0.09789
6316.64,0.09712
6293.5,0.09915
6270.35,0.09849
6247.21,0.10012
6224.06,0.09692
6200.92,0.09811
6177.77,0.09753
6154.63,0.09596
6131.48,0.09568
6108.34,0.09621
6085.19,0.09524
6062.05,0.09574
6038.9,0.09662
6015.76,0.09492
5992.61,0.09223
5969.47,0.09386
5946.32,0.09321
5923.18,0.09034
5900.03,0.08661
5876.89,0.08194
5853.74,0.07809
5830.6,0.07429
5807.45,0.07568
5784.31,0.08065
5761.16,0.08105
5738.02,0.07929
5714.87,0.07951
5691.73,0.07989
5668.58,0.08152
5645.44,0.08428
5622.29,0.08284
5599.15,0.08143
5576,0.08210
5552.86,0.08433
5529.71,0.08361
5506.57,0.08455
5483.42,0.08474
5460.28,0.08422
5437.13,0.08242
5413.99,0.08314
5390.84,0.08300
5367.7,0.08454
5344.55,0.08469
5321.41,0.08278
5298.26,0.08443
5275.12,0.08438
5251.97,0.08242
5228.83,0.08349
5205.68,0.08367
5182.54,0.08396
5159.39,0.08352
5136.25,0.08213
5113.1,0.08202
5089.96,0.08216
5066.81,0.08240
5043.67,0.08186
5020.52,0.08191
4997.38,0.08267
4974.23,0.08320
4951.09,0.08075
4927.94,0.08191
4904.8,0.08103
4881.65,0.08024
4858.51,0.08085
4835.36,0.08052
4812.22,0.08105
4789.07,0.08054
4765.93,0.08054
4742.78,0.07989
4719.64,0.08052
4696.49,0.07947
4673.35,0.07929
4650.2,0.07890
4627.06,0.07967
4603.92,0.07974
4580.77,0.07901
4557.63,0.07801
4534.48,0.07779
4511.34,0.07621
4488.19,0.07555
4465.05,0.07400
4441.9,0.07145
4418.76,0.06873
4395.61,0.06653
4372.47,0.06318
4349.32,0.06101
4326.18,0.06004
4303.03,0.06146
4279.89,0.06212
4256.74,0.06255
4233.6,0.06120
4210.45,0.06135
4187.31,0.06204
4164.16,0.06209
4141.02,0.06297
4117.87,0.06283
4094.73,0.06365
4071.58,0.06297
4048.44,0.06333
4025.29,0.06379
4002.15,0.06359
3979,0.06468
3955.86,0.06462
3932.71,0.06441
3909.57,0.06470
3886.42,0.06409
3863.28,0.06404
3840.13,0.06387
3816.99,0.06434
3793.84,0.06458
3770.7,0.06528
3747.55,0.06490
3724.41,0.06485
3701.26,0.06384
3678.12,0.06239
3654.97,0.06179
3631.83,0.06225
3608.68,0.06163
3585.54,0.06079
3562.39,0.06027
3539.25,0.06048
3516.1,0.06024
3492.96,0.05970
3469.81,0.05946
3446.67,0.05836
3423.52,0.05870
3400.38,0.05858
3377.23,0.05905
3354.09,0.05913
3330.94,0.05885
3307.8,0.05838
3284.65,0.05881
3261.51,0.05893
3238.36,0.05896
3215.22,0.05921
3192.07,0.05801
3168.93,0.05822
3145.78,0.05833
3122.64,0.05795
3099.49,0.05837
3076.35,0.05755
3053.2,0.05671
3030.06,0.05598
3006.91,0.05572
2983.77,0.05445
2960.62,0.05466
2937.48,0.05466
2914.33,0.05746
2891.19,0.05728
2868.04,0.05619
2844.9,0.05714
2821.75,0.05717
2798.61,0.05712
2775.46,0.05743
2752.32,0.05749
2729.17,0.05683
2706.03,0.05716
2682.88,0.05720
2659.74,0.05696
2636.59,0.05667
2613.45,0.05660
2590.3,0.05673
2567.16,0.05631
2544.02,0.05625
2520.87,0.05612
2497.73,0.05675
2474.58,0.05664
2451.44,0.05664
2428.29,0.05652
2405.15,0.05637
2382,0.05634
2358.86,0.05645
2335.71,0.05664
2312.57,0.05645
2289.42,0.05675
2266.28,0.05647
2243.13,0.05627
2219.99,0.05658
2196.84,0.05684
2173.7,0.05709
2150.55,0.05690
2127.41,0.05709
2104.26,0.05731
2081.12,0.05729
2057.97,0.05746
2034.83,0.05713
2011.68,0.05754
1988.54,0.05796
1965.39,0.05851
1942.25,0.05876
1919.1,0.05955
1895.96,0.05996
1872.81,0.06103
1849.67,0.06201
1826.52,0.06218
1803.38,0.06094
1780.23,0.05848
1757.09,0.05567
1733.94,0.05397
1710.8,0.05730
1687.65,0.06026
1664.51,0.06701
1641.36,0.07126
1618.22,0.07325
1595.07,0.07369
1571.93,0.07321
1548.78,0.08001
1525.64,0.07948
1502.49,0.07033
1479.35,0.06067
1456.2,0.06023
1433.06,0.06603
1409.91,0.08618
1386.77,0.08442
1363.62,0.07567
1340.48,0.06394
1317.33,0.06335
1294.19,0.06196
1271.04,0.05660
1247.9,0.06028
1224.75,0.06344
1201.61,0.06051
1178.46,0.06090
1155.32,0.06062
1132.17,0.05984
1109.03,0.05820
1085.88,0.05890
1062.74,0.05890
1039.59,0.05817
1016.45,0.05796
993.304,0.05655
970.159,0.05680
947.014,0.06011
923.869,0.05943
900.724,0.05852
877.579,0.06020
854.434,0.05874
831.289,0.05950
808.144,0.05890
784.999,0.05731
761.854,0.05674
738.709,0.05402
715.565,0.05123
692.42,0.05317
669.275,0.05496
646.13,0.05200
622.985,0.05623
599.84,0.06392

File: PVC_IS_S_220818_R2.dpt
7497.03,0.11096
7473.89,0.11335
7450.74,0.11459
7427.6,0.10009
7404.45,0.10337
7381.31,0.11422
7358.16,0.11663
7335.02,0.11672
7311.87,0.11036
7288.73,0.10423
7265.58,0.10358
7242.44,0.11162
7219.29,0.10476
7196.15,0.10356
7173,0.10682
7149.86,0.10804
7126.71,0.11059
7103.57,0.11373
7080.42,0.10368
7057.28,0.10065
7034.13,0.10778
7010.99,0.10678
6987.84,0.10435
6964.7,0.10379
6941.55,0.10234
6918.41,0.10498
6895.26,0.10289
6872.12,0.10703
6848.97,0.10540
6825.83,0.10244
6802.68,0.10280
6779.54,0.10380
6756.39,0.10468
6733.25,0.10550
6710.1,0.09926
6686.96,0.10699
6663.82,0.10340
6640.67,0.10176
6617.53,0.09879
6594.38,0.10163
6571.24,0.10319
6548.09,0.09930
6524.95,0.10142
6501.8,0.09856
6478.66,0.10308
6455.51,0.10129
6432.37,0.09589
6409.22,0.09629
6386.08,0.10068
6362.93,0.09687
6339.79,0.09790
6316.64,0.09864
6293.5,0.09798
6270.35,0.09540
6247.21,0.10088
6224.06,0.09748
6200.92,0.09674
6177.77,0.09765
6154.63,0.09652
6131.48,0.09643
6108.34,0.09624
6085.19,0.09510
6062.05,0.09466
6038.9,0.09291
6015.76,0.09143
5992.61,0.09440
5969.47,0.09349
5946.32,0.09088
5923.18,0.09016
5900.03,0.08749
5876.89,0.08212
5853.74,0.07720
5830.6,0.07232
5807.45,0.07589
5784.31,0.08019
5761.16,0.08219
5738.02,0.07743
5714.87,0.08082
5691.73,0.08006
5668.58,0.08391
5645.44,0.07984
5622.29,0.08177
5599.15,0.08407
5576,0.08337
5552.86,0.08486
5529.71,0.08431
5506.57,0.08395
5483.42,0.08327
5460.28,0.08270
5437.13,0.08448
5413.99,0.08225
5390.84,0.08366
5367.7,0.08434
5344.55,0.08350
5321.41,0.08307
5298.26,0.08459
5275.12,0.08336
5251.97,0.08355
5228.83,0.08176
5205.68,0.08379
5182.54,0.08346
5159.39,0.08238
5136.25,0.08160
5113.1,0.08245
5089.96,0.08227
5066.81,0.08255
5043.67,0.08286
5020.52,0.08228
4997.38,0.08243
4974.23,0.08102
4951.09,0.08165
4927.94,0.08157
4904.8,0.08126
4881.65,0.08258
4858.51,0.08162
4835.36,0.08050
4812.22,0.08111
4789.07,0.08109
4765.93,0.08035
4742.78,0.07892
4719.64,0.07981
4696.49,0.07897
4673.35,0.07859
4650.2,0.07930
4627.06,0.07924
4603.92,0.07860
4580.77,0.07867
4557.63,0.07810
4534.48,0.07766
4511.34,0.07640
4488.19,0.07562
4465.05,0.07392
4441.9,0.07132
4418.76,0.06924
4395.61,0.06652
4372.47,0.06277
4349.32,0.06063
4326.18,0.06048
4303.03,0.06115
4279.89,0.06171
4256.74,0.06175
4233.6,0.06100
4210.45,0.06164
4187.31,0.06190
4164.16,0.06178
4141.02,0.06238
4117.87,0.06300
4094.73,0.06265
4071.58,0.06265
4048.44,0.06320
4025.29,0.06332
4002.15,0.06366
3979,0.06431
3955.86,0.06428
3932.71,0.06400
3909.57,0.06415
3886.42,0.06411
3863.28,0.06486
3840.13,0.06439
3816.99,0.06408
3793.84,0.06440
3770.7,0.06506
3747.55,0.06474
3724.41,0.06592
3701.26,0.06365
3678.12,0.06171
3654.97,0.06265
3631.83,0.06210
3608.68,0.06121
3585.54,0.06032
3562.39,0.06044
3539.25,0.05932
3516.1,0.05982
3492.96,0.05950
3469.81,0.05944
3446.67,0.05939
3423.52,0.05906
3400.38,0.05891
3377.23,0.05898
3354.09,0.05922
3330.94,0.05873
3307.8,0.05769
3284.65,0.05833
3261.51,0.05818
3238.36,0.05900
3215.22,0.05820
3192.07,0.05871
3168.93,0.05823
3145.78,0.05882
3122.64,0.05846
3099.49,0.05793
3076.35,0.05725
3053.2,0.05651
3030.06,0.05594
3006.91,0.05484
2983.77,0.05422
2960.62,0.05495
2937.48,0.05480
2914.33,0.05705
2891.19,0.05673
2868.04,0.05641
2844.9,0.05714
2821.75,0.05653
2798.61,0.05721
2775.46,0.05752
2752.32,0.05699
2729.17,0.05705
2706.03,0.05677
2682.88,0.05716
2659.74,0.05693
2636.59,0.05677
2613.45,0.05627
2590.3,0.05630
2567.16,0.05613
2544.02,0.05644
2520.87,0.05583
2497.73,0.05637
2474.58,0.05682
2451.44,0.05650
2428.29,0.05660
2405.15,0.05657
2382,0.05587
2358.86,0.05592
2335.71,0.05627
2312.57,0.05649
2289.42,0.05642
2266.28,0.05578
2243.13,0.05610
2219.99,0.05649
2196.84,0.05694
2173.7,0.05671
2150.55,0.05711
2127.41,0.05703
2104.26,0.05724
2081.12,0.05710
2057.97,0.05719
2034.83,0.05720
2011.68,0.05739
1988.54,0.05765
1965.39,0.05825
1942.25,0.05855
1919.1,0.05919
1895.96,0.05995
1872.81,0.06085
1849.67,0.06175
1826.52,0.06202
1803.38,0.06061
1780.23,0.05846
1757.09,0.05546
1733.94,0.05424
1710.8,0.05744
1687.65,0.06071
1664.51,0.06674
1641.36,0.07134
1618.22,0.07297
1595.07,0.07387
1571.93,0.07304
1548.78,0.07953
1525.64,0.07960
1502.49,0.07044
1479.35,0.06016
1456.2,0.06037
1433.06,0.06609
1409.91,0.08623
1386.77,0.08440
1363.62,0.07530
1340.48,0.06367
1317.33,0.06299
1294.19,0.06219
1271.04,0.05660
1247.9,0.06053
1224.75,0.06348
1201.61,0.06023
1178.46,0.05968
1155.32,0.06089
1132.17,0.05975
1109.03,0.05784
1085.88,0.05908
1062.74,0.05915
1039.59,0.05856
1016.45,0.05796
993.304,0.05649
970.159,0.05626
947.014,0.05993
923.869,0.05905
900.724,0.05889
877.579,0.06009
854.434,0.05897
831.289,0.05836
808.144,0.05874
784.999,0.05719
761.854,0.05614
738.709,0.05379
715.565,0.05153
692.42,0.05319
669.275,0.05664
646.13,0.05195
622.985,0.05685
599.84,0.06748

File: PVC_IS_S_220818_R3.dpt
7497.03,0.10575
7473.89,0.11736
7450.74,0.10022
7427.6,0.11460
7404.45,0.11537
7381.31,0.11095
7358.16,0.10724
7335.02,0.11209
7311.87,0.11100
7288.73,0.11186
7265.58,0.10293
7242.44,0.11107
7219.29,0.10695
7196.15,0.10198
7173,0.10758
7149.86,0.10174
7126.71,0.10114
7103.57,0.10529
7080.42,0.09992
7057.28,0.10424
7034.13,0.10559
7010.99,0.10347
6987.84,0.10558
6964.7,0.10290
6941.55,0.10136
6918.41,0.10671
6895.26,0.10638
6872.12,0.10681
6848.97,0.10210
6825.83,0.10444
6802.68,0.10426
6779.54,0.10614
6756.39,0.10066
6733.25,0.10319
6710.1,0.10405
6686.96,0.10058
6663.82,0.10291
6640.67,0.10321
6617.53,0.10052
6594.38,0.10216
6571.24,0.10117
6548.09,0.10069
6524.95,0.10531
6501.8,0.10452
6478.66,0.10127
6455.51,0.10242
6432.37,0.10011
6409.22,0.09837
6386.08,0.10122
6362.93,0.09776
6339.79,0.09843
6316.64,0.09903
6293.5,0.09266
6270.35,0.10008
6247.21,0.09973
6224.06,0.09768
6200.92,0.10049
6177.77,0.09690
6154.63,0.09766
6131.48,0.09455
6108.34,0.09721
6085.19,0.09621
6062.05,0.09821
6038.9,0.09334
6015.76,0.09281
5992.61,0.09099
5969.47,0.09440
5946.32,0.09203
5923.18,0.08948
5900.03,0.08586
5876.89,0.08084
5853.74,0.07863
5830.6,0.07282
5807.45,0.07671
5784.31,0.07677
5761.16,0.08016
5738.02,0.07848
5714.87,0.08016
5691.73,0.07951
5668.58,0.08197
5645.44,0.08189
5622.29,0.08091
5599.15,0.08264
5576,0.08389
5552.86,0.08406
5529.71,0.08412
5506.57,0.08520
5483.42,0.08314
5460.28,0.08241
5437.13,0.08525
5413.99,0.08265
5390.84,0.08494
5367.7,0.08355
5344.55,0.08386
5321.41,0.08329
5298.26,0.08436
5275.12,0.08329
5251.97,0.08350
5228.83,0.08222
5205.68,0.08198
5182.54,0.08344
5159.39,0.08221
5136.25,0.08294
5113.1,0.08262
5089.96,0.08162
5066.81,0.08255
5043.67,0.08305
5020.52,0.08242
4997.38,0.08208
4974.23,0.08140
4951.09,0.08244
4927.94,0.08220
4904.8,0.08176
4881.65,0.08098
4858.51,0.08092
4835.36,0.08068
4812.22,0.08098
4789.07,0.08037
4765.93,0.08097
4742.78,0.07998
4719.64,0.07958
4696.49,0.07993
4673.35,0.07895
4650.2,0.07908
4627.06,0.07903
4603.92,0.07889
4580.77,0.07862
4557.63,0.07796
4534.48,0.07752
4511.34,0.07618
4488.19,0.07586
4465.05,0.07366
4441.9,0.07095
4418.76,0.06956
4395.61,0.06682
4372.47,0.06304
4349.32,0.06110
4326.18,0.05972
4303.03,0.06177
4279.89,0.06176
4256.74,0.06239
4233.6,0.06110
4210.45,0.06133
4187.31,0.06190
4164.16,0.06159
4141.02,0.06263
4117.87,0.06312
4094.73,0.06360
4071.58,0.06297
4048.44,0.06349
4025.29,0.06402
4002.15,0.06392
3979,0.06463
3955.86,0.06479
3932.71,0.06417
3909.57,0.06473
3886.42,0.06465
3863.28,0.06439
3840.13,0.06405
3816.99,0.06405
3793.84,0.06473
3770.7,0.06508
3747.55,0.06536
3724.41,0.06536
3701.26,0.06390
3678.12,0.06143
3654.97,0.06132
3631.83,0.06220
3608.68,0.06139
3585.54,0.06070
3562.39,0.06066
3539.25,0.05992
3516.1,0.06025
3492.96,0.06046
3469.81,0.05850
3446.67,0.05950
3423.52,0.05873
3400.38,0.05862
3377.23,0.05868
3354.09,0.05880
3330.94,0.05844
3307.8,0.05879
3284.65,0.05833
3261.51,0.05813
3238.36,0.05763
3215.22,0.05947
3192.07,0.05826
3168.93,0.05873
3145.78,0.05761
3122.64,0.05787
3099.49,0.05765
3076.35,0.05691
3053.2,0.05676
3030.06,0.05580
3006.91,0.05553
2983.77,0.05504
2960.62,0.05453
2937.48,0.05518
2914.33,0.05688
2891.19,0.05712
2868.04,0.05654
2844.9,0.05744
2821.75,0.05708
2798.61,0.05699
2775.46,0.05730
2752.32,0.05722
2729.17,0.05720
2706.03,0.05670
2682.88,0.05731
2659.74,0.05663
2636.59,0.05679
2613.45,0.05654
2590.3,0.05655
2567.16,0.05620
2544.02,0.05641
2520.87,0.05626
2497.73,0.05683
2474.58,0.05652
2451.44,0.05608
2428.29,0.05629
2405.15,0.05648
2382,0.05665
2358.86,0.05671
2335.71,0.05622
2312.57,0.05641
2289.42,0.05624
2266.28,0.05656
2243.13,0.05654
2219.99,0.05622
2196.84,0.05655
2173.7,0.05669
2150.55,0.05685
2127.41,0.05720
2104.26,0.05730
2081.12,0.05700
2057.97,0.05725
2034.83,0.05746
2011.68,0.05722
1988.54,0.05776
1965.39,0.05805
1942.25,0.05861
1919.1,0.05903
1895.96,0.06002
1872.81,0.06059
1849.67,0.06171
1826.52,0.06211
1803.38,0.06102
1780.23,0.05840
1757.09,0.05532
1733.94,0.05399
1710.8,0.05710
1687.65,0.06049
1664.51,0.06679
1641.36,0.07149
1618.22,0.07312
1595.07,0.07423
1571.93,0.07363
1548.78,0.07984
1525.64,0.07942
1502.49,0.07000
1479.35,0.06079
1456.2,0.06016
1433.06,0.06610
1409.91,0.08642
1386.77,0.08469
1363.62,0.07608
1340.48,0.06361
1317.33,0.06311
1294.19,0.06197
1271.04,0.05670
1247.9,0.06054
1224.75,0.06293
1201.61,0.06039
1178.46,0.05989
1155.32,0.06083
1132.17,0.05999
1109.03,0.05768
1085.88,0.05871
1062.74,0.05842
1039.59,0.05916
1016.45,0.05751
993.304,0.05640
970.159,0.05661
947.014,0.05965
923.869,0.05887
900.724,0.05812
877.579,0.06075
854.434,0.05832
831.289,0.05907
808.144,0.05823
784.999,0.05756
761.854,0.05586
738.709,0.05407
715.565,0.05139
692.42,0.05453
669.275,0.05507
646.13,0.05226
622.985,0.05671
599.84,0.06587

File: PVC_IS_S_220818_R4.dpt
7497.03,0.11005
7473.89,0.10984
7450.74,0.11731
7427.6,0.11513
7404.45,0.09891
7381.31,0.10453
7358.16,0.10328
7335.02,0.10931
7311.87,0.11281
7288.73,0.10914
7265.58,0.10510
7242.44,0.10490
7219.29,0.10735
7196.15,0.10930
7173,0.10361
7149.86,0.10478
7126.71,0.10948
7103.57,0.09909
7080.42,0.10629
7057.28,0.09943
7034.13,0.10590
7010.99,0.11016
6987.84,0.10339
6964.7,0.10375
6941.55,0.10679
6918.41,0.10626
6895.26,0.10708
6872.12,0.10440
6848.97,0.10097
6825.83,0.10366
6802.68,0.10344
6779.54,0.10269
6756.39,0.10348
6733.25,0.10563
6710.1,0.09995
6686.96,0.10445
6663.82,0.10076
6640.67,0.10107
6617.53,0.09788
6594.38,0.10170
6571.24,0.10273
6548.09,0.10368
6524.95,0.09906
6501.8,0.10053
6478.66,0.10064
6455.51,0.09941
6432.37,0.09809
6409.22,0.09960
6386.08,0.10084
6362.93,0.09698
6339.79,0.09792
6316.64,0.10138
6293.5,0.09898
6270.35,0.09651
6247.21,0.09534
6224.06,0.09757
6200.92,0.09360
6177.77,0.09650
6154.63,0.09680
6131.48,0.09739
6108.34,0.09516
6085.19,0.09606
6062.05,0.09382
6038.9,0.09424
6015.76,0.09497
5992.61,0.09283
5969.47,0.09468
5946.32,0.09171
5923.18,0.08872
5900.03,0.08438
5876.89,0.08319
5853.74,0.07816
5830.6,0.07500
5807.45,0.07375
5784.31,0.07953
5761.16,0.08027
5738.02,0.07771
5714.87,0.07851
5691.73,0.08201
5668.58,0.08277
5645.44,0.08267
5622.29,0.08410
5599.15,0.08292
5576,0.08280
5552.86,0.08487
5529.71,0.08439
5506.57,0.08318
5483.42,0.08227
5460.28,0.08313
5437.13,0.08358
5413.99,0.08240
5390.84,0.08528
5367.7,0.08377
5344.55,0.08532
5321.41,0.08486
5298.26,0.08475
5275.12,0.08356
5251.97,0.08362
5228.83,0.08251
5205.68,0.08276
5182.54,0.08369
5159.39,0.08305
5136.25,0.08230
5113.1,0.08302
5089.96,0.08218
5066.81,0.08230
5043.67,0.08266
5020.52,0.08246
4997.38,0.08175
4974.23,0.08216
4951.09,0.08187
4927.94,0.08143
4904.8,0.08164
4881.65,0.08166
4858.51,0.08158
4835.36,0.08126
4812.22,0.08093
4789.07,0.08048
4765.93,0.08071
4742.78,0.07950
4719.64,0.07906
4696.49,0.07998
4673.35,0.07923
4650.2,0.07917
4627.06,0.07855
4603.92,0.07861
4580.77,0.07884
4557.63,0.07755
4534.48,0.07739
4511.34,0.07661
4488.19,0.07504
4465.05,0.07375
4441.9,0.07156
4418.76,0.06920
4395.61,0.06679
4372.47,0.06300
4349.32,0.06228
4326.18,0.06013
4303.03,0.06202
4279.89,0.06231
4256.74,0.06154
4233.6,0.06164
4210.45,0.06088
4187.31,0.06166
4164.16,0.06171
4141.02,0.06226
4117.87,0.06250
4094.73,0.06307
4071.58,0.06296
4048.44,0.06331
4025.29,0.06325
4002.15,0.06301
3979,0.06371
3955.86,0.06422
3932.71,0.06476
3909.57,0.06439
3886.42,0.06465
3863.28,0.06474
3840.13,0.06449
3816.99,0.06443
3793.84,0.06459
3770.7,0.06422
3747.55,0.06506
3724.41,0.06558
3701.26,0.06484
3678.12,0.06158
3654.97,0.06118
3631.83,0.06204
3608.68,0.06059
3585.54,0.06021
3562.39,0.06070
3539.25,0.06005
3516.1,0.05956
3492.96,0.05965
3469.81,0.05920
3446.67,0.05867
3423.52,0.05861
3400.38,0.05917
3377.23,0.05808
3354.09,0.05903
3330.94,0.05829
3307.8,0.05897
3284.65,0.05813
3261.51,0.05840
3238.36,0.05807
3215.22,0.05785
3192.07,0.05843
3168.93,0.05786
3145.78,0.05872
3122.64,0.05769
3099.49,0.05780
3076.35,0.05759
3053.2,0.05661
3030.06,0.05612
3006.91,0.05536
2983.77,0.05442
2960.62,0.05425
2937.48,0.05542
2914.33,0.05679
2891.19,0.05695
2868.04,0.05638
2844.9,0.05750
2821.75,0.05621
2798.61,0.05696
2775.46,0.05735
2752.32,0.05698
2729.17,0.05702
2706.03,0.05731
2682.88,0.05647
2659.74,0.05678
2636.59,0.05679
2613.45,0.05597
2590.3,0.05651
2567.16,0.05634
2544.02,0.05603
2520.87,0.05629
2497.73,0.05653
2474.58,0.05655
2451.44,0.05657
2428.29,0.05632
2405.15,0.05622
2382,0.05638
2358.86,0.05589
2335.71,0.05627
2312.57,0.05616
2289.42,0.05603
2266.28,0.05633
2243.13,0.05628
2219.99,0.05658
2196.84,0.05635
2173.7,0.05668
2150.55,0.05679
2127.41,0.05678
2104.26,0.05685
2081.12,0.05712
2057.97,0.05732
2034.83,0.05751
2011.68,0.05760
1988.54,0.05764
1965.39,0.05826
1942.25,0.05839
1919.1,0.05923
1895.96,0.06010
1872.81,0.06066
1849.67,0.06182
1826.52,0.06209
1803.38,0.06055
1780.23,0.05854
1757.09,0.05543
1733.94,0.05382
1710.8,0.05742
1687.65,0.06058
1664.51,0.06695
1641.36,0.07135
1618.22,0.07290
1595.07,0.07410
1571.93,0.07326
1548.78,0.07967
1525.64,0.07932
1502.49,0.07035
1479.35,0.06030
1456.2,0.06016
1433.06,0.06604
1409.91,0.08578
1386.77,0.08433
1363.62,0.07576
1340.48,0.06358
1317.33,0.06324
1294.19,0.06219
1271.04,0.05692
1247.9,0.06020
1224.75,0.06281
1201.61,0.06017
1178.46,0.06065
1155.32,0.06098
1132.17,0.05913
1109.03,0.05788
1085.88,0.05955
1062.74,0.05869
1039.59,0.05854
1016.45,0.05759
993.304,0.05694
970.159,0.05672
947.014,0.05979
923.869,0.05889
900.724,0.05799
877.579,0.05997
854.434,0.05920
831.289,0.05848
808.144,0.05767
784.999,0.05698
761.854,0.05600
738.709,0.05364
715.565,0.05171
692.42,0.05366
669.275,0.05450
646.13,0.05125
622.985,0.05494
599.84,0.06447