Folder: fsri_materials_database/01_Data/PVC/FTIR/IS (part 3)

File: PVC_IS_T_220818_R3.dpt
7497.03,0.02696
7473.89,0.01866
7450.74,0.02490
7427.6,0.02226
7404.45,0.01868
7381.31,0.01952
7358.16,0.02871
7335.02,0.02851
7311.87,0.02293
7288.73,0.01867
7265.58,0.02446
7242.44,0.02557
7219.29,0.01864
7196.15,0.01980
7173,0.02208
7149.86,0.01757
7126.71,0.01830
7103.57,0.02703
7080.42,0.01815
7057.28,0.02322
7034.13,0.02574
7010.99,0.02258
6987.84,0.02193
6964.7,0.02031
6941.55,0.01995
6918.41,0.01753
6895.26,0.01995
6872.12,0.02015
6848.97,0.02276
6825.83,0.01731
6802.68,0.01920
6779.54,0.02485
6756.39,0.02077
6733.25,0.02374
6710.1,0.01923
6686.96,0.02132
6663.82,0.02166
6640.67,0.02262
6617.53,0.02287
6594.38,0.01972
6571.24,0.01527
6548.09,0.02400
6524.95,0.02403
6501.8,0.02438
6478.66,0.01898
6455.51,0.01779
6432.37,0.01869
6409.22,0.02126
6386.08,0.01978
6362.93,0.02147
6339.79,0.01936
6316.64,0.01845
6293.5,0.01744
6270.35,0.01960
6247.21,0.01720
6224.06,0.01853
6200.92,0.01677
6177.77,0.02033
6154.63,0.01944
6131.48,0.01688
6108.34,0.01846
6085.19,0.01908
6062.05,0.01801
6038.9,0.01741
6015.76,0.01694
5992.61,0.01892
5969.47,0.01936
5946.32,0.01915
5923.18,0.01933
5900.03,0.01761
5876.89,0.01914
5853.74,0.02009
5830.6,0.02054
5807.45,0.01906
5784.31,0.01696
5761.16,0.01780
5738.02,0.01891
5714.87,0.01799
5691.73,0.01907
5668.58,0.02241
5645.44,0.01864
5622.29,0.01917
5599.15,0.02065
5576,0.01846
5552.86,0.01977
5529.71,0.01914
5506.57,0.01947
5483.42,0.01990
5460.28,0.02109
5437.13,0.01853
5413.99,0.01957
5390.84,0.01697
5367.7,0.01882
5344.55,0.01821
5321.41,0.01906
5298.26,0.01950
5275.12,0.01801
5251.97,0.01857
5228.83,0.02047
5205.68,0.01888
5182.54,0.01931
5159.39,0.01929
5136.25,0.02076
5113.1,0.01855
5089.96,0.01977
5066.81,0.01997
5043.67,0.01871
5020.52,0.01963
4997.38,0.01793
4974.23,0.01990
4951.09,0.01874
4927.94,0.01872
4904.8,0.02033
4881.65,0.01964
4858.51,0.02016
4835.36,0.01846
4812.22,0.01878
4789.07,0.01939
4765.93,0.01926
4742.78,0.01912
4719.64,0.01926
4696.49,0.01971
4673.35,0.01811
4650.2,0.02024
4627.06,0.01950
4603.92,0.01917
4580.77,0.01962
4557.63,0.02064
4534.48,0.02005
4511.34,0.01916
4488.19,0.01883
4465.05,0.01900
4441.9,0.01956
4418.76,0.02016
4395.61,0.01885
4372.47,0.01987
4349.32,0.02029
4326.18,0.01975
4303.03,0.01918
4279.89,0.02021
4256.74,0.01994
4233.6,0.01943
4210.45,0.02015
4187.31,0.01985
4164.16,0.01966
4141.02,0.01971
4117.87,0.01968
4094.73,0.01961
4071.58,0.01902
4048.44,0.02009
4025.29,0.01988
4002.15,0.01923
3979,0.01984
3955.86,0.02031
3932.71,0.01915
3909.57,0.01943
3886.42,0.01966
3863.28,0.01977
3840.13,0.01912
3816.99,0.02007
3793.84,0.01965
3770.7,0.02011
3747.55,0.01929
3724.41,0.01942
3701.26,0.01885
3678.12,0.01920
3654.97,0.01878
3631.83,0.01966
3608.68,0.01883
3585.54,0.01856
3562.39,0.01916
3539.25,0.01806
3516.1,0.01844
3492.96,0.01792
3469.81,0.01724
3446.67,0.01804
3423.52,0.01806
3400.38,0.01791
3377.23,0.01771
3354.09,0.01746
3330.94,0.01782
3307.8,0.01736
3284.65,0.01723
3261.51,0.01723
3238.36,0.01696
3215.22,0.01809
3192.07,0.01756
3168.93,0.01736
3145.78,0.01802
3122.64,0.01718
3099.49,0.01767
3076.35,0.01747
3053.2,0.01773
3030.06,0.01802
3006.91,0.01729
2983.77,0.01738
2960.62,0.01668
2937.48,0.01701
2914.33,0.01739
2891.19,0.01776
2868.04,0.01723
2844.9,0.01809
2821.75,0.01836
2798.61,0.01806
2775.46,0.01819
2752.32,0.01822
2729.17,0.01842
2706.03,0.01823
2682.88,0.01818
2659.74,0.01800
2636.59,0.01867
2613.45,0.01854
2590.3,0.01819
2567.16,0.01818
2544.02,0.01783
2520.87,0.01804
2497.73,0.01819
2474.58,0.01825
2451.44,0.01849
2428.29,0.01840
2405.15,0.01800
2382,0.01832
2358.86,0.01812
2335.71,0.01823
2312.57,0.01805
2289.42,0.01823
2266.28,0.01804
2243.13,0.01806
2219.99,0.01834
2196.84,0.01819
2173.7,0.01779
2150.55,0.01820
2127.41,0.01798
2104.26,0.01795
2081.12,0.01781
2057.97,0.01816
2034.83,0.01803
2011.68,0.01795
1988.54,0.01778
1965.39,0.01823
1942.25,0.01787
1919.1,0.01799
1895.96,0.01774
1872.81,0.01726
1849.67,0.01731
1826.52,0.01733
1803.38,0.01683
1780.23,0.01625
1757.09,0.01479
1733.94,0.01698
1710.8,0.01769
1687.65,0.01592
1664.51,0.01543
1641.36,0.01583
1618.22,0.01614
1595.07,0.01645
1571.93,0.01552
1548.78,0.01620
1525.64,0.01573
1502.49,0.01546
1479.35,0.01583
1456.2,0.01558
1433.06,0.01585
1409.91,0.01532
1386.77,0.01523
1363.62,0.01543
1340.48,0.01484
1317.33,0.01441
1294.19,0.01522
1271.04,0.01669
1247.9,0.01722
1224.75,0.01633
1201.61,0.01621
1178.46,0.01523
1155.32,0.01501
1132.17,0.01471
1109.03,0.01597
1085.88,0.01461
1062.74,0.01754
1039.59,0.01682
1016.45,0.01642
993.304,0.01870
970.159,0.01795
947.014,0.01698
923.869,0.01635
900.724,0.01599
877.579,0.01615
854.434,0.01654
831.289,0.01596
808.144,0.01642
784.999,0.01636
761.854,0.01454
738.709,0.01522
715.565,0.01539
692.42,0.01492
669.275,0.01374
646.13,0.01316
622.985,0.01395
599.84,0.01214

File: PVC_IS_T_220818_R4.dpt
7497.03,0.02671
7473.89,0.01798
7450.74,0.01492
7427.6,0.02326
7404.45,0.01663
7381.31,0.02554
7358.16,0.02940
7335.02,0.01736
7311.87,0.02068
7288.73,0.02625
7265.58,0.01283
7242.44,0.02175
7219.29,0.02629
7196.15,0.02241
7173,0.02915
7149.86,0.01840
7126.71,0.02323
7103.57,0.02387
7080.42,0.01519
7057.28,0.02467
7034.13,0.01643
7010.99,0.01906
6987.84,0.02420
6964.7,0.01833
6941.55,0.01754
6918.41,0.02831
6895.26,0.02297
6872.12,0.01921
6848.97,0.02160
6825.83,0.02365
6802.68,0.02087
6779.54,0.02105
6756.39,0.01587
6733.25,0.02188
6710.1,0.02143
6686.96,0.01780
6663.82,0.01889
6640.67,0.01784
6617.53,0.01866
6594.38,0.01855
6571.24,0.02199
6548.09,0.02128
6524.95,0.01930
6501.8,0.01615
6478.66,0.01893
6455.51,0.01903
6432.37,0.01932
6409.22,0.01463
6386.08,0.02094
6362.93,0.02120
6339.79,0.01581
6316.64,0.02002
6293.5,0.01976
6270.35,0.02168
6247.21,0.01697
6224.06,0.02147
6200.92,0.01889
6177.77,0.01912
6154.63,0.01796
6131.48,0.02276
6108.34,0.01797
6085.19,0.01915
6062.05,0.01578
6038.9,0.02125
6015.76,0.01742
5992.61,0.01724
5969.47,0.01940
5946.32,0.01884
5923.18,0.01946
5900.03,0.01841
5876.89,0.01939
5853.74,0.01875
5830.6,0.01649
5807.45,0.02048
5784.31,0.01775
5761.16,0.01725
5738.02,0.01917
5714.87,0.01998
5691.73,0.01964
5668.58,0.01885
5645.44,0.01763
5622.29,0.02160
5599.15,0.01694
5576,0.01897
5552.86,0.01919
5529.71,0.01945
5506.57,0.01834
5483.42,0.01954
5460.28,0.01934
5437.13,0.01848
5413.99,0.01810
5390.84,0.01897
5367.7,0.01955
5344.55,0.01921
5321.41,0.02034
5298.26,0.02001
5275.12,0.01827
5251.97,0.02027
5228.83,0.01879
5205.68,0.01902
5182.54,0.02073
5159.39,0.01829
5136.25,0.02046
5113.1,0.01861
5089.96,0.01934
5066.81,0.01835
5043.67,0.01790
5020.52,0.01998
4997.38,0.02004
4974.23,0.01880
4951.09,0.01940
4927.94,0.02032
4904.8,0.01930
4881.65,0.01907
4858.51,0.01913
4835.36,0.01891
4812.22,0.01809
4789.07,0.01939
4765.93,0.01931
4742.78,0.01920
4719.64,0.01942
4696.49,0.01878
4673.35,0.01925
4650.2,0.01966
4627.06,0.01979
4603.92,0.01998
4580.77,0.02062
4557.63,0.01928
4534.48,0.01902
4511.34,0.01922
4488.19,0.01986
4465.05,0.01927
4441.9,0.01997
4418.76,0.01934
4395.61,0.01938
4372.47,0.01843
4349.32,0.01909
4326.18,0.01966
4303.03,0.01945
4279.89,0.01927
4256.74,0.01992
4233.6,0.01952
4210.45,0.01935
4187.31,0.02018
4164.16,0.01974
4141.02,0.01924
4117.87,0.01981
4094.73,0.01929
4071.58,0.01941
4048.44,0.01862
4025.29,0.02032
4002.15,0.01997
3979,0.02005
3955.86,0.01962
3932.71,0.01964
3909.57,0.01990
3886.42,0.01974
3863.28,0.01951
3840.13,0.01925
3816.99,0.01980
3793.84,0.01976
3770.7,0.02011
3747.55,0.01940
3724.41,0.01939
3701.26,0.01962
3678.12,0.01972
3654.97,0.01935
3631.83,0.01930
3608.68,0.01929
3585.54,0.01919
3562.39,0.01882
3539.25,0.01851
3516.1,0.01823
3492.96,0.01805
3469.81,0.01757
3446.67,0.01798
3423.52,0.01815
3400.38,0.01792
3377.23,0.01739
3354.09,0.01757
3330.94,0.01714
3307.8,0.01811
3284.65,0.01802
3261.51,0.01754
3238.36,0.01856
3215.22,0.01716
3192.07,0.01755
3168.93,0.01823
3145.78,0.01723
3122.64,0.01771
3099.49,0.01758
3076.35,0.01783
3053.2,0.01817
3030.06,0.01801
3006.91,0.01729
2983.77,0.01739
2960.62,0.01732
2937.48,0.01708
2914.33,0.01763
2891.19,0.01801
2868.04,0.01782
2844.9,0.01843
2821.75,0.01825
2798.61,0.01806
2775.46,0.01809
2752.32,0.01866
2729.17,0.01851
2706.03,0.01828
2682.88,0.01804
2659.74,0.01842
2636.59,0.01850
2613.45,0.01836
2590.3,0.01847
2567.16,0.01866
2544.02,0.01870
2520.87,0.01821
2497.73,0.01876
2474.58,0.01884
2451.44,0.01870
2428.29,0.01836
2405.15,0.01852
2382,0.01841
2358.86,0.01873
2335.71,0.01850
2312.57,0.01836
2289.42,0.01820
2266.28,0.01841
2243.13,0.01814
2219.99,0.01845
2196.84,0.01818
2173.7,0.01851
2150.55,0.01831
2127.41,0.01819
2104.26,0.01828
2081.12,0.01814
2057.97,0.01801
2034.83,0.01778
2011.68,0.01802
1988.54,0.01797
1965.39,0.01781
1942.25,0.01810
1919.1,0.01790
1895.96,0.01764
1872.81,0.01774
1849.67,0.01751
1826.52,0.01744
1803.38,0.01685
1780.23,0.01632
1757.09,0.01481
1733.94,0.01711
1710.8,0.01786
1687.65,0.01641
1664.51,0.01616
1641.36,0.01564
1618.22,0.01629
1595.07,0.01607
1571.93,0.01549
1548.78,0.01577
1525.64,0.01597
1502.49,0.01586
1479.35,0.01568
1456.2,0.01559
1433.06,0.01614
1409.91,0.01543
1386.77,0.01533
1363.62,0.01559
1340.48,0.01504
1317.33,0.01403
1294.19,0.01522
1271.04,0.01672
1247.9,0.01754
1224.75,0.01691
1201.61,0.01620
1178.46,0.01559
1155.32,0.01439
1132.17,0.01492
1109.03,0.01561
1085.88,0.01545
1062.74,0.01727
1039.59,0.01694
1016.45,0.01593
993.304,0.01815
970.159,0.01746
947.014,0.01732
923.869,0.01578
900.724,0.01582
877.579,0.01657
854.434,0.01572
831.289,0.01585
808.144,0.01579
784.999,0.01606
761.854,0.01508
738.709,0.01495
715.565,0.01583
692.42,0.01457
669.275,0.01339
646.13,0.01258
622.985,0.01156
599.84,0.01013

File: PVC_IS_T_220818_R6.dpt
7497.03,0.02303
7473.89,0.02616
7450.74,0.02152
7427.6,0.01966
7404.45,0.02767
7381.31,0.01855
7358.16,0.02569
7335.02,0.02174
7311.87,0.02091
7288.73,0.02657
7265.58,0.02259
7242.44,0.02118
7219.29,0.02502
7196.15,0.03404
7173,0.01747
7149.86,0.02479
7126.71,0.02624
7103.57,0.01954
7080.42,0.02044
7057.28,0.02181
7034.13,0.01941
7010.99,0.02598
6987.84,0.02292
6964.7,0.02565
6941.55,0.01989
6918.41,0.01791
6895.26,0.02252
6872.12,0.01972
6848.97,0.01829
6825.83,0.01867
6802.68,0.01724
6779.54,0.02168
6756.39,0.01820
6733.25,0.01861
6710.1,0.02170
6686.96,0.02114
6663.82,0.01921
6640.67,0.02108
6617.53,0.01951
6594.38,0.01939
6571.24,0.01768
6548.09,0.01968
6524.95,0.01652
6501.8,0.02104
6478.66,0.01981
6455.51,0.01761
6432.37,0.01632
6409.22,0.01776
6386.08,0.02004
6362.93,0.01964
6339.79,0.01862
6316.64,0.01787
6293.5,0.01677
6270.35,0.02105
6247.21,0.01719
6224.06,0.02103
6200.92,0.01678
6177.77,0.01983
6154.63,0.01919
6131.48,0.02027
6108.34,0.01589
6085.19,0.01767
6062.05,0.01684
6038.9,0.01855
6015.76,0.02162
5992.61,0.01644
5969.47,0.02201
5946.32,0.01777
5923.18,0.02030
5900.03,0.02007
5876.89,0.01554
5853.74,0.01852
5830.6,0.01776
5807.45,0.01950
5784.31,0.01853
5761.16,0.01687
5738.02,0.01836
5714.87,0.01714
5691.73,0.01963
5668.58,0.01913
5645.44,0.01975
5622.29,0.01715
5599.15,0.01964
5576,0.01646
5552.86,0.01640
5529.71,0.02012
5506.57,0.01818
5483.42,0.01865
5460.28,0.01968
5437.13,0.01851
5413.99,0.01953
5390.84,0.01858
5367.7,0.01808
5344.55,0.01871
5321.41,0.01732
5298.26,0.01865
5275.12,0.01891
5251.97,0.01958
5228.83,0.01988
5205.68,0.01975
5182.54,0.01932
5159.39,0.01932
5136.25,0.01924
5113.1,0.01957
5089.96,0.01764
5066.81,0.01823
5043.67,0.02020
5020.52,0.01964
4997.38,0.01969
4974.23,0.01838
4951.09,0.01985
4927.94,0.01880
4904.8,0.01943
4881.65,0.01829
4858.51,0.02028
4835.36,0.01837
4812.22,0.01936
4789.07,0.01960
4765.93,0.01917
4742.78,0.01880
4719.64,0.01976
4696.49,0.01877
4673.35,0.01900
4650.2,0.01972
4627.06,0.01896
4603.92,0.01840
4580.77,0.01867
4557.63,0.01913
4534.48,0.01982
4511.34,0.01897
4488.19,0.01893
4465.05,0.01867
4441.9,0.01934
4418.76,0.01929
4395.61,0.01913
4372.47,0.02018
4349.32,0.01949
4326.18,0.01918
4303.03,0.01960
4279.89,0.01975
4256.74,0.01911
4233.6,0.01913
4210.45,0.01930
4187.31,0.01877
4164.16,0.01894
4141.02,0.01898
4117.87,0.01888
4094.73,0.01925
4071.58,0.01938
4048.44,0.01935
4025.29,0.01899
4002.15,0.01946
3979,0.01952
3955.86,0.01909
3932.71,0.01948
3909.57,0.01962
3886.42,0.01945
3863.28,0.01982
3840.13,0.02015
3816.99,0.01930
3793.84,0.01943
3770.7,0.01964
3747.55,0.01904
3724.41,0.01964
3701.26,0.01896
3678.12,0.01865
3654.97,0.01894
3631.83,0.01904
3608.68,0.01889
3585.54,0.01825
3562.39,0.01794
3539.25,0.01761
3516.1,0.01813
3492.96,0.01798
3469.81,0.01698
3446.67,0.01763
3423.52,0.01757
3400.38,0.01662
3377.23,0.01813
3354.09,0.01673
3330.94,0.01711
3307.8,0.01597
3284.65,0.01723
3261.51,0.01584
3238.36,0.01665
3215.22,0.01763
3192.07,0.01802
3168.93,0.01720
3145.78,0.01737
3122.64,0.01737
3099.49,0.01739
3076.35,0.01704
3053.2,0.01727
3030.06,0.01752
3006.91,0.01691
2983.77,0.01719
2960.62,0.01623
2937.48,0.01639
2914.33,0.01717
2891.19,0.01731
2868.04,0.01757
2844.9,0.01809
2821.75,0.01827
2798.61,0.01812
2775.46,0.01783
2752.32,0.01775
2729.17,0.01825
2706.03,0.01822
2682.88,0.01838
2659.74,0.01793
2636.59,0.01829
2613.45,0.01802
2590.3,0.01785
2567.16,0.01805
2544.02,0.01786
2520.87,0.01794
2497.73,0.01806
2474.58,0.01803
2451.44,0.01817
2428.29,0.01828
2405.15,0.01841
2382,0.01800
2358.86,0.01803
2335.71,0.01810
2312.57,0.01804
2289.42,0.01805
2266.28,0.01839
2243.13,0.01796
2219.99,0.01782
2196.84,0.01777
2173.7,0.01763
2150.55,0.01761
2127.41,0.01805
2104.26,0.01784
2081.12,0.01752
2057.97,0.01797
2034.83,0.01791
2011.68,0.01756
1988.54,0.01751
1965.39,0.01770
1942.25,0.01752
1919.1,0.01746
1895.96,0.01758
1872.81,0.01750
1849.67,0.01714
1826.52,0.01698
1803.38,0.01674
1780.23,0.01601
1757.09,0.01416
1733.94,0.01640
1710.8,0.01794
1687.65,0.01625
1664.51,0.01576
1641.36,0.01527
1618.22,0.01590
1595.07,0.01627
1571.93,0.01511
1548.78,0.01508
1525.64,0.01589
1502.49,0.01584
1479.35,0.01517
1456.2,0.01606
1433.06,0.01574
1409.91,0.01520
1386.77,0.01515
1363.62,0.01497
1340.48,0.01513
1317.33,0.01420
1294.19,0.01453
1271.04,0.01642
1247.9,0.01715
1224.75,0.01630
1201.61,0.01560
1178.46,0.01448
1155.32,0.01459
1132.17,0.01501
1109.03,0.01558
1085.88,0.01457
1062.74,0.01673
1039.59,0.01659
1016.45,0.01670
993.304,0.01772
970.159,0.01743
947.014,0.01696
923.869,0.01576
900.724,0.01631
877.579,0.01586
854.434,0.01549
831.289,0.01547
808.144,0.01556
784.999,0.01600
761.854,0.01617
738.709,0.01535
715.565,0.01445
692.42,0.01432
669.275,0.01489
646.13,0.01389
622.985,0.01469
599.84,0.01269

File: PVC_IS_T_220818_R7.dpt
7497.03,0.02924
7473.89,0.02355
7450.74,0.02189
7427.6,0.02301
7404.45,0.02469
7381.31,0.02242
7358.16,0.02154
7335.02,0.02314
7311.87,0.02318
7288.73,0.02037
7265.58,0.02365
7242.44,0.02242
7219.29,0.02594
7196.15,0.02236
7173,0.02147
7149.86,0.02291
7126.71,0.02225
7103.57,0.02658
7080.42,0.02557
7057.28,0.01512
7034.13,0.01643
7010.99,0.02120
6987.84,0.02595
6964.7,0.02122
6941.55,0.02126
6918.41,0.01907
6895.26,0.02284
6872.12,0.01670
6848.97,0.01853
6825.83,0.01489
6802.68,0.02575
6779.54,0.02337
6756.39,0.01729
6733.25,0.01972
6710.1,0.02159
6686.96,0.01662
6663.82,0.02306
6640.67,0.01900
6617.53,0.02055
6594.38,0.01905
6571.24,0.01981
6548.09,0.01809
6524.95,0.01948
6501.8,0.01703
6478.66,0.02112
6455.51,0.01743
6432.37,0.01765
6409.22,0.01836
6386.08,0.01801
6362.93,0.01727
6339.79,0.01951
6316.64,0.02061
6293.5,0.01867
6270.35,0.01851
6247.21,0.02034
6224.06,0.01496
6200.92,0.01957
6177.77,0.01818
6154.63,0.02170
6131.48,0.01969
6108.34,0.02043
6085.19,0.01993
6062.05,0.01914
6038.9,0.01702
6015.76,0.01961
5992.61,0.01936
5969.47,0.01868
5946.32,0.01767
5923.18,0.02037
5900.03,0.01952
5876.89,0.02009
5853.74,0.01990
5830.6,0.02023
5807.45,0.01981
5784.31,0.01764
5761.16,0.01832
5738.02,0.01902
5714.87,0.01797
5691.73,0.01730
5668.58,0.01940
5645.44,0.01778
5622.29,0.01965
5599.15,0.01827
5576,0.02033
5552.86,0.02041
5529.71,0.01854
5506.57,0.01917
5483.42,0.01970
5460.28,0.02026
5437.13,0.01810
5413.99,0.01832
5390.84,0.01966
5367.7,0.01997
5344.55,0.01817
5321.41,0.01946
5298.26,0.02038
5275.12,0.01908
5251.97,0.02017
5228.83,0.02030
5205.68,0.02001
5182.54,0.01950
5159.39,0.01902
5136.25,0.02025
5113.1,0.01969
5089.96,0.01959
5066.81,0.01989
5043.67,0.01900
5020.52,0.01950
4997.38,0.01843
4974.23,0.01901
4951.09,0.01915
4927.94,0.01973
4904.8,0.01871
4881.65,0.01861
4858.51,0.02075
4835.36,0.01959
4812.22,0.01955
4789.07,0.01930
4765.93,0.01979
4742.78,0.01969
4719.64,0.01903
4696.49,0.01952
4673.35,0.01961
4650.2,0.01960
4627.06,0.02012
4603.92,0.02009
4580.77,0.02010
4557.63,0.01888
4534.48,0.01958
4511.34,0.01978
4488.19,0.01943
4465.05,0.01990
4441.9,0.01959
4418.76,0.01947
4395.61,0.01922
4372.47,0.01998
4349.32,0.01997
4326.18,0.01966
4303.03,0.01948
4279.89,0.02007
4256.74,0.01985
4233.6,0.01984
4210.45,0.02080
4187.31,0.01996
4164.16,0.01988
4141.02,0.01984
4117.87,0.01932
4094.73,0.02046
4071.58,0.01973
4048.44,0.01963
4025.29,0.01997
4002.15,0.02009
3979,0.01919
3955.86,0.01979
3932.71,0.02053
3909.57,0.01951
3886.42,0.02009
3863.28,0.02002
3840.13,0.02053
3816.99,0.01991
3793.84,0.01932
3770.7,0.02039
3747.55,0.01994
3724.41,0.01967
3701.26,0.01998
3678.12,0.01992
3654.97,0.02008
3631.83,0.01916
3608.68,0.01891
3585.54,0.01836
3562.39,0.01874
3539.25,0.01844
3516.1,0.01872
3492.96,0.01854
3469.81,0.01873
3446.67,0.01795
3423.52,0.01719
3400.38,0.01707
3377.23,0.01739
3354.09,0.01766
3330.94,0.01724
3307.8,0.01708
3284.65,0.01824
3261.51,0.01821
3238.36,0.01811
3215.22,0.01844
3192.07,0.01831
3168.93,0.01821
3145.78,0.01801
3122.64,0.01803
3099.49,0.01828
3076.35,0.01784
3053.2,0.01768
3030.06,0.01802
3006.91,0.01743
2983.77,0.01725
2960.62,0.01639
2937.48,0.01709
2914.33,0.01745
2891.19,0.01794
2868.04,0.01793
2844.9,0.01840
2821.75,0.01861
2798.61,0.01866
2775.46,0.01872
2752.32,0.01804
2729.17,0.01857
2706.03,0.01857
2682.88,0.01902
2659.74,0.01894
2636.59,0.01856
2613.45,0.01845
2590.3,0.01840
2567.16,0.01841
2544.02,0.01833
2520.87,0.01835
2497.73,0.01879
2474.58,0.01854
2451.44,0.01840
2428.29,0.01843
2405.15,0.01825
2382,0.01828
2358.86,0.01820
2335.71,0.01867
2312.57,0.01839
2289.42,0.01836
2266.28,0.01883
2243.13,0.01848
2219.99,0.01836
2196.84,0.01834
2173.7,0.01864
2150.55,0.01821
2127.41,0.01850
2104.26,0.01846
2081.12,0.01805
2057.97,0.01824
2034.83,0.01867
2011.68,0.01797
1988.54,0.01805
1965.39,0.01809
1942.25,0.01821
1919.1,0.01803
1895.96,0.01810
1872.81,0.01801
1849.67,0.01748
1826.52,0.01753
1803.38,0.01688
1780.23,0.01646
1757.09,0.01508
1733.94,0.01732
1710.8,0.01831
1687.65,0.01642
1664.51,0.01584
1641.36,0.01579
1618.22,0.01669
1595.07,0.01628
1571.93,0.01645
1548.78,0.01557
1525.64,0.01593
1502.49,0.01620
1479.35,0.01590
1456.2,0.01573
1433.06,0.01618
1409.91,0.01573
1386.77,0.01548
1363.62,0.01550
1340.48,0.01535
1317.33,0.01416
1294.19,0.01530
1271.04,0.01630
1247.9,0.01759
1224.75,0.01663
1201.61,0.01584
1178.46,0.01564
1155.32,0.01497
1132.17,0.01529
1109.03,0.01607
1085.88,0.01580
1062.74,0.01679
1039.59,0.01702
1016.45,0.01674
993.304,0.01851
970.159,0.01762
947.014,0.01721
923.869,0.01631
900.724,0.01669
877.579,0.01646
854.434,0.01632
831.289,0.01577
808.144,0.01573
784.999,0.01638
761.854,0.01538
738.709,0.01472
715.565,0.01588
692.42,0.01549
669.275,0.01461
646.13,0.01252
622.985,0.01490
599.84,0.01153

File: PVC_IS_T_220818_R8.dpt
7497.03,0.02334
7473.89,0.02949
7450.74,0.02551
7427.6,0.01928
7404.45,0.01760
7381.31,0.02276
7358.16,0.02126
7335.02,0.02452
7311.87,0.02654
7288.73,0.02647
7265.58,0.02315
7242.44,0.02716
7219.29,0.01711
7196.15,0.01831
7173,0.01981
7149.86,0.01783
7126.71,0.01871
7103.57,0.01622
7080.42,0.01975
7057.28,0.02214
7034.13,0.02434
7010.99,0.01628
6987.84,0.02277
6964.7,0.01870
6941.55,0.02240
6918.41,0.01494
6895.26,0.02148
6872.12,0.01882
6848.97,0.01826
6825.83,0.02676
6802.68,0.02220
6779.54,0.01643
6756.39,0.01944
6733.25,0.02252
6710.1,0.02200
6686.96,0.02105
6663.82,0.01818
6640.67,0.01628
6617.53,0.01871
6594.38,0.01878
6571.24,0.01837
6548.09,0.01880
6524.95,0.02297
6501.8,0.01844
6478.66,0.01679
6455.51,0.01582
6432.37,0.01845
6409.22,0.01629
6386.08,0.01838
6362.93,0.01962
6339.79,0.02234
6316.64,0.01912
6293.5,0.01974
6270.35,0.01682
6247.21,0.02045
6224.06,0.01955
6200.92,0.01945
6177.77,0.01674
6154.63,0.02029
6131.48,0.01855
6108.34,0.02071
6085.19,0.01859
6062.05,0.01727
6038.9,0.01852
6015.76,0.01998
5992.61,0.02097
5969.47,0.01723
5946.32,0.01778
5923.18,0.01806
5900.03,0.01860
5876.89,0.01890
5853.74,0.01965
5830.6,0.02006
5807.45,0.01973
5784.31,0.01921
5761.16,0.02039
5738.02,0.01736
5714.87,0.01833
5691.73,0.01980
5668.58,0.01978
5645.44,0.01866
5622.29,0.01652
5599.15,0.01913
5576,0.02091
5552.86,0.01874
5529.71,0.01795
5506.57,0.01777
5483.42,0.01967
5460.28,0.01894
5437.13,0.01822
5413.99,0.01957
5390.84,0.01937
5367.7,0.02014
5344.55,0.01914
5321.41,0.01893
5298.26,0.01967
5275.12,0.01860
5251.97,0.01927
5228.83,0.01844
5205.68,0.01918
5182.54,0.01857
5159.39,0.01905
5136.25,0.01960
5113.1,0.01883
5089.96,0.01852
5066.81,0.01871
5043.67,0.01996
5020.52,0.01906
4997.38,0.01854
4974.23,0.01736
4951.09,0.01803
4927.94,0.01897
4904.8,0.01930
4881.65,0.01945
4858.51,0.01961
4835.36,0.01926
4812.22,0.01948
4789.07,0.01925
4765.93,0.01886
4742.78,0.01956
4719.64,0.01875
4696.49,0.01992
4673.35,0.01850
4650.2,0.01953
4627.06,0.01875
4603.92,0.01981
4580.77,0.01924
4557.63,0.01928
4534.48,0.01876
4511.34,0.01966
4488.19,0.01961
4465.05,0.01946
4441.9,0.01976
4418.76,0.01923
4395.61,0.01919
4372.47,0.01973
4349.32,0.01910
4326.18,0.01952
4303.03,0.01952
4279.89,0.01973
4256.74,0.01889
4233.6,0.01967
4210.45,0.01961
4187.31,0.01953
4164.16,0.01912
4141.02,0.01965
4117.87,0.01927
4094.73,0.01971
4071.58,0.01927
4048.44,0.01962
4025.29,0.01988
4002.15,0.01942
3979,0.01967
3955.86,0.01918
3932.71,0.02005
3909.57,0.01958
3886.42,0.01952
3863.28,0.01945
3840.13,0.01928
3816.99,0.01976
3793.84,0.01971
3770.7,0.01982
3747.55,0.02015
3724.41,0.01962
3701.26,0.01972
3678.12,0.01933
3654.97,0.01928
3631.83,0.01888
3608.68,0.01849
3585.54,0.01906
3562.39,0.01876
3539.25,0.01869
3516.1,0.01818
3492.96,0.01827
3469.81,0.01793
3446.67,0.01721
3423.52,0.01742
3400.38,0.01803
3377.23,0.01744
3354.09,0.01754
3330.94,0.01728
3307.8,0.01702
3284.65,0.01745
3261.51,0.01740
3238.36,0.01734
3215.22,0.01789
3192.07,0.01767
3168.93,0.01742
3145.78,0.01789
3122.64,0.01868
3099.49,0.01862
3076.35,0.01704
3053.2,0.01735
3030.06,0.01734
3006.91,0.01732
2983.77,0.01670
2960.62,0.01706
2937.48,0.01678
2914.33,0.01706
2891.19,0.01744
2868.04,0.01742
2844.9,0.01807
2821.75,0.01859
2798.61,0.01818
2775.46,0.01864
2752.32,0.01812
2729.17,0.01829
2706.03,0.01821
2682.88,0.01795
2659.74,0.01833
2636.59,0.01810
2613.45,0.01859
2590.3,0.01828
2567.16,0.01789
2544.02,0.01817
2520.87,0.01821
2497.73,0.01814
2474.58,0.01811
2451.44,0.01820
2428.29,0.01824
2405.15,0.01825
2382,0.01804
2358.86,0.01835
2335.71,0.01828
2312.57,0.01801
2289.42,0.01819
2266.28,0.01837
2243.13,0.01807
2219.99,0.01845
2196.84,0.01815
2173.7,0.01810
2150.55,0.01828
2127.41,0.01792
2104.26,0.01807
2081.12,0.01810
2057.97,0.01800
2034.83,0.01802
2011.68,0.01753
1988.54,0.01756
1965.39,0.01780
1942.25,0.01795
1919.1,0.01782
1895.96,0.01773
1872.81,0.01763
1849.67,0.01743
1826.52,0.01726
1803.38,0.01640
1780.23,0.01581
1757.09,0.01479
1733.94,0.01680
1710.8,0.01790
1687.65,0.01636
1664.51,0.01584
1641.36,0.01583
1618.22,0.01624
1595.07,0.01618
1571.93,0.01533
1548.78,0.01538
1525.64,0.01548
1502.49,0.01570
1479.35,0.01562
1456.2,0.01580
1433.06,0.01605
1409.91,0.01544
1386.77,0.01513
1363.62,0.01577
1340.48,0.01474
1317.33,0.01451
1294.19,0.01519
1271.04,0.01631
1247.9,0.01789
1224.75,0.01650
1201.61,0.01542
1178.46,0.01580
1155.32,0.01519
1132.17,0.01560
1109.03,0.01590
1085.88,0.01540
1062.74,0.01726
1039.59,0.01634
1016.45,0.01639
993.304,0.01806
970.159,0.01715
947.014,0.01734
923.869,0.01672
900.724,0.01653
877.579,0.01603
854.434,0.01619
831.289,0.01587
808.144,0.01586
784.999,0.01530
761.854,0.01503
738.709,0.01554
715.565,0.01484
692.42,0.01445
669.275,0.01430
646.13,0.01217
622.985,0.01272
599.84,0.01256