Folder: fsri_materials_database/01_Data/PVC/FTIR/IS (part 2)

File: PVC_IS_S_220818_R5.dpt
7497.03,0.11640
7473.89,0.11427
7450.74,0.11243
7427.6,0.11150
7404.45,0.10999
7381.31,0.11528
7358.16,0.11252
7335.02,0.10997
7311.87,0.11163
7288.73,0.10893
7265.58,0.10743
7242.44,0.10866
7219.29,0.10252
7196.15,0.10724
7173,0.11165
7149.86,0.10978
7126.71,0.10413
7103.57,0.10318
7080.42,0.09973
7057.28,0.10936
7034.13,0.10492
7010.99,0.10617
6987.84,0.10725
6964.7,0.10066
6941.55,0.10323
6918.41,0.10418
6895.26,0.10721
6872.12,0.10477
6848.97,0.10609
6825.83,0.10419
6802.68,0.10671
6779.54,0.10188
6756.39,0.10426
6733.25,0.10499
6710.1,0.10213
6686.96,0.10153
6663.82,0.10293
6640.67,0.10102
6617.53,0.10175
6594.38,0.10005
6571.24,0.10176
6548.09,0.10068
6524.95,0.09761
6501.8,0.09785
6478.66,0.09679
6455.51,0.10071
6432.37,0.09541
6409.22,0.09841
6386.08,0.09764
6362.93,0.10245
6339.79,0.09718
6316.64,0.09853
6293.5,0.09600
6270.35,0.09795
6247.21,0.09726
6224.06,0.09667
6200.92,0.09648
6177.77,0.09576
6154.63,0.09665
6131.48,0.09708
6108.34,0.09504
6085.19,0.09637
6062.05,0.09407
6038.9,0.09403
6015.76,0.09342
5992.61,0.09421
5969.47,0.09080
5946.32,0.09020
5923.18,0.08793
5900.03,0.08546
5876.89,0.08069
5853.74,0.07855
5830.6,0.07164
5807.45,0.07389
5784.31,0.07909
5761.16,0.08241
5738.02,0.07917
5714.87,0.08018
5691.73,0.07950
5668.58,0.08182
5645.44,0.08153
5622.29,0.08150
5599.15,0.08209
5576,0.08254
5552.86,0.08308
5529.71,0.08368
5506.57,0.08493
5483.42,0.08320
5460.28,0.08322
5437.13,0.08326
5413.99,0.08116
5390.84,0.08248
5367.7,0.08414
5344.55,0.08310
5321.41,0.08355
5298.26,0.08292
5275.12,0.08222
5251.97,0.08228
5228.83,0.08263
5205.68,0.08280
5182.54,0.08370
5159.39,0.08230
5136.25,0.08294
5113.1,0.08331
5089.96,0.08236
5066.81,0.08196
5043.67,0.08333
5020.52,0.08159
4997.38,0.08218
4974.23,0.08237
4951.09,0.08201
4927.94,0.08068
4904.8,0.08094
4881.65,0.08139
4858.51,0.07971
4835.36,0.08024
4812.22,0.08041
4789.07,0.08092
4765.93,0.07972
4742.78,0.08025
4719.64,0.07950
4696.49,0.07891
4673.35,0.07878
4650.2,0.07879
4627.06,0.07953
4603.92,0.07828
4580.77,0.07820
4557.63,0.07776
4534.48,0.07698
4511.34,0.07684
4488.19,0.07476
4465.05,0.07429
4441.9,0.07114
4418.76,0.06879
4395.61,0.06615
4372.47,0.06318
4349.32,0.06071
4326.18,0.06029
4303.03,0.06078
4279.89,0.06163
4256.74,0.06167
4233.6,0.06090
4210.45,0.06095
4187.31,0.06146
4164.16,0.06186
4141.02,0.06245
4117.87,0.06301
4094.73,0.06268
4071.58,0.06279
4048.44,0.06328
4025.29,0.06275
4002.15,0.06355
3979,0.06396
3955.86,0.06471
3932.71,0.06472
3909.57,0.06449
3886.42,0.06364
3863.28,0.06409
3840.13,0.06453
3816.99,0.06424
3793.84,0.06414
3770.7,0.06448
3747.55,0.06478
3724.41,0.06489
3701.26,0.06415
3678.12,0.06268
3654.97,0.06160
3631.83,0.06173
3608.68,0.06085
3585.54,0.05975
3562.39,0.06016
3539.25,0.06013
3516.1,0.05981
3492.96,0.05928
3469.81,0.05933
3446.67,0.05878
3423.52,0.05801
3400.38,0.05861
3377.23,0.05900
3354.09,0.05772
3330.94,0.05856
3307.8,0.05809
3284.65,0.05803
3261.51,0.05860
3238.36,0.05864
3215.22,0.05817
3192.07,0.05821
3168.93,0.05807
3145.78,0.05757
3122.64,0.05795
3099.49,0.05750
3076.35,0.05673
3053.2,0.05712
3030.06,0.05584
3006.91,0.05514
2983.77,0.05384
2960.62,0.05470
2937.48,0.05494
2914.33,0.05719
2891.19,0.05664
2868.04,0.05628
2844.9,0.05717
2821.75,0.05649
2798.61,0.05688
2775.46,0.05720
2752.32,0.05657
2729.17,0.05689
2706.03,0.05663
2682.88,0.05675
2659.74,0.05701
2636.59,0.05653
2613.45,0.05623
2590.3,0.05664
2567.16,0.05629
2544.02,0.05601
2520.87,0.05621
2497.73,0.05670
2474.58,0.05626
2451.44,0.05643
2428.29,0.05628
2405.15,0.05624
2382,0.05633
2358.86,0.05642
2335.71,0.05619
2312.57,0.05599
2289.42,0.05624
2266.28,0.05623
2243.13,0.05599
2219.99,0.05639
2196.84,0.05637
2173.7,0.05619
2150.55,0.05703
2127.41,0.05691
2104.26,0.05701
2081.12,0.05691
2057.97,0.05735
2034.83,0.05730
2011.68,0.05755
1988.54,0.05803
1965.39,0.05801
1942.25,0.05853
1919.1,0.05920
1895.96,0.05989
1872.81,0.06078
1849.67,0.06155
1826.52,0.06198
1803.38,0.06038
1780.23,0.05843
1757.09,0.05526
1733.94,0.05356
1710.8,0.05684
1687.65,0.06017
1664.51,0.06696
1641.36,0.07154
1618.22,0.07293
1595.07,0.07420
1571.93,0.07302
1548.78,0.07974
1525.64,0.07924
1502.49,0.06992
1479.35,0.06006
1456.2,0.06016
1433.06,0.06609
1409.91,0.08601
1386.77,0.08412
1363.62,0.07556
1340.48,0.06342
1317.33,0.06327
1294.19,0.06184
1271.04,0.05660
1247.9,0.06029
1224.75,0.06327
1201.61,0.06012
1178.46,0.06009
1155.32,0.06005
1132.17,0.05935
1109.03,0.05793
1085.88,0.05860
1062.74,0.05822
1039.59,0.05821
1016.45,0.05759
993.304,0.05596
970.159,0.05691
947.014,0.05935
923.869,0.05846
900.724,0.05819
877.579,0.06046
854.434,0.05858
831.289,0.05865
808.144,0.05861
784.999,0.05672
761.854,0.05526
738.709,0.05449
715.565,0.05197
692.42,0.05418
669.275,0.05519
646.13,0.05219
622.985,0.05731
599.84,0.06118

File: PVC_IS_S_220818_R6.dpt
7497.03,0.11408
7473.89,0.11656
7450.74,0.10602
7427.6,0.11727
7404.45,0.10775
7381.31,0.11959
7358.16,0.10843
7335.02,0.11185
7311.87,0.11598
7288.73,0.10631
7265.58,0.10645
7242.44,0.10478
7219.29,0.10256
7196.15,0.10576
7173,0.10466
7149.86,0.10684
7126.71,0.10330
7103.57,0.11226
7080.42,0.10271
7057.28,0.10170
7034.13,0.10039
7010.99,0.10544
6987.84,0.10588
6964.7,0.10704
6941.55,0.10524
6918.41,0.09868
6895.26,0.10629
6872.12,0.10289
6848.97,0.10118
6825.83,0.10379
6802.68,0.10158
6779.54,0.10453
6756.39,0.10355
6733.25,0.10129
6710.1,0.10398
6686.96,0.10480
6663.82,0.10285
6640.67,0.09952
6617.53,0.10062
6594.38,0.10170
6571.24,0.10195
6548.09,0.09951
6524.95,0.10177
6501.8,0.10083
6478.66,0.10134
6455.51,0.09986
6432.37,0.09683
6409.22,0.09787
6386.08,0.09987
6362.93,0.09818
6339.79,0.09807
6316.64,0.09857
6293.5,0.09791
6270.35,0.09964
6247.21,0.09788
6224.06,0.09679
6200.92,0.09297
6177.77,0.09573
6154.63,0.09819
6131.48,0.09581
6108.34,0.09710
6085.19,0.09437
6062.05,0.09500
6038.9,0.09447
6015.76,0.09189
5992.61,0.09143
5969.47,0.09240
5946.32,0.09296
5923.18,0.09149
5900.03,0.08439
5876.89,0.08103
5853.74,0.07760
5830.6,0.07632
5807.45,0.07642
5784.31,0.08074
5761.16,0.07893
5738.02,0.08004
5714.87,0.08026
5691.73,0.07919
5668.58,0.07980
5645.44,0.08112
5622.29,0.08183
5599.15,0.08297
5576,0.08130
5552.86,0.08380
5529.71,0.08347
5506.57,0.08416
5483.42,0.08290
5460.28,0.08231
5437.13,0.08317
5413.99,0.08545
5390.84,0.08364
5367.7,0.08412
5344.55,0.08358
5321.41,0.08319
5298.26,0.08403
5275.12,0.08252
5251.97,0.08257
5228.83,0.08379
5205.68,0.08371
5182.54,0.08268
5159.39,0.08193
5136.25,0.08353
5113.1,0.08210
5089.96,0.08338
5066.81,0.08219
5043.67,0.08129
5020.52,0.08248
4997.38,0.08242
4974.23,0.08153
4951.09,0.08184
4927.94,0.08100
4904.8,0.08155
4881.65,0.08030
4858.51,0.08064
4835.36,0.08084
4812.22,0.08068
4789.07,0.08019
4765.93,0.07967
4742.78,0.07978
4719.64,0.07955
4696.49,0.07960
4673.35,0.07842
4650.2,0.07933
4627.06,0.07982
4603.92,0.07849
4580.77,0.07895
4557.63,0.07760
4534.48,0.07711
4511.34,0.07658
4488.19,0.07583
4465.05,0.07321
4441.9,0.07100
4418.76,0.06950
4395.61,0.06767
4372.47,0.06292
4349.32,0.06112
4326.18,0.06038
4303.03,0.06138
4279.89,0.06221
4256.74,0.06166
4233.6,0.06138
4210.45,0.06031
4187.31,0.06186
4164.16,0.06172
4141.02,0.06194
4117.87,0.06256
4094.73,0.06246
4071.58,0.06307
4048.44,0.06235
4025.29,0.06395
4002.15,0.06407
3979,0.06399
3955.86,0.06432
3932.71,0.06434
3909.57,0.06474
3886.42,0.06387
3863.28,0.06444
3840.13,0.06430
3816.99,0.06433
3793.84,0.06482
3770.7,0.06442
3747.55,0.06458
3724.41,0.06561
3701.26,0.06402
3678.12,0.06191
3654.97,0.06203
3631.83,0.06239
3608.68,0.06073
3585.54,0.06006
3562.39,0.05989
3539.25,0.06011
3516.1,0.05995
3492.96,0.05996
3469.81,0.05935
3446.67,0.05887
3423.52,0.05936
3400.38,0.05858
3377.23,0.05821
3354.09,0.05817
3330.94,0.05796
3307.8,0.05857
3284.65,0.05902
3261.51,0.05769
3238.36,0.05905
3215.22,0.05864
3192.07,0.05879
3168.93,0.05799
3145.78,0.05759
3122.64,0.05770
3099.49,0.05746
3076.35,0.05703
3053.2,0.05656
3030.06,0.05589
3006.91,0.05539
2983.77,0.05387
2960.62,0.05467
2937.48,0.05477
2914.33,0.05699
2891.19,0.05695
2868.04,0.05656
2844.9,0.05748
2821.75,0.05602
2798.61,0.05733
2775.46,0.05756
2752.32,0.05697
2729.17,0.05658
2706.03,0.05714
2682.88,0.05683
2659.74,0.05675
2636.59,0.05678
2613.45,0.05642
2590.3,0.05654
2567.16,0.05620
2544.02,0.05601
2520.87,0.05605
2497.73,0.05669
2474.58,0.05643
2451.44,0.05643
2428.29,0.05659
2405.15,0.05609
2382,0.05654
2358.86,0.05628
2335.71,0.05585
2312.57,0.05619
2289.42,0.05602
2266.28,0.05611
2243.13,0.05615
2219.99,0.05620
2196.84,0.05661
2173.7,0.05647
2150.55,0.05674
2127.41,0.05679
2104.26,0.05710
2081.12,0.05730
2057.97,0.05699
2034.83,0.05711
2011.68,0.05730
1988.54,0.05781
1965.39,0.05800
1942.25,0.05824
1919.1,0.05911
1895.96,0.05972
1872.81,0.06082
1849.67,0.06141
1826.52,0.06208
1803.38,0.06083
1780.23,0.05868
1757.09,0.05546
1733.94,0.05338
1710.8,0.05747
1687.65,0.06030
1664.51,0.06674
1641.36,0.07122
1618.22,0.07373
1595.07,0.07384
1571.93,0.07295
1548.78,0.07958
1525.64,0.07908
1502.49,0.07029
1479.35,0.06075
1456.2,0.06016
1433.06,0.06612
1409.91,0.08620
1386.77,0.08419
1363.62,0.07543
1340.48,0.06334
1317.33,0.06335
1294.19,0.06214
1271.04,0.05663
1247.9,0.06030
1224.75,0.06339
1201.61,0.06086
1178.46,0.05999
1155.32,0.06022
1132.17,0.05916
1109.03,0.05777
1085.88,0.05851
1062.74,0.05870
1039.59,0.05820
1016.45,0.05738
993.304,0.05691
970.159,0.05698
947.014,0.05946
923.869,0.05902
900.724,0.05862
877.579,0.06030
854.434,0.05840
831.289,0.05962
808.144,0.05843
784.999,0.05660
761.854,0.05558
738.709,0.05404
715.565,0.05114
692.42,0.05478
669.275,0.05615
646.13,0.05190
622.985,0.05771
599.84,0.06621

File: PVC_IS_S_220818_R7.dpt
7497.03,0.10336
7473.89,0.11143
7450.74,0.11659
7427.6,0.09929
7404.45,0.11022
7381.31,0.10603
7358.16,0.10781
7335.02,0.11104
7311.87,0.10853
7288.73,0.11210
7265.58,0.10810
7242.44,0.10541
7219.29,0.10707
7196.15,0.11185
7173,0.10316
7149.86,0.10835
7126.71,0.10245
7103.57,0.10973
7080.42,0.10402
7057.28,0.10599
7034.13,0.10509
7010.99,0.10571
6987.84,0.10613
6964.7,0.10289
6941.55,0.10664
6918.41,0.10575
6895.26,0.10174
6872.12,0.10544
6848.97,0.10502
6825.83,0.10418
6802.68,0.10753
6779.54,0.10469
6756.39,0.10449
6733.25,0.10753
6710.1,0.10445
6686.96,0.10136
6663.82,0.10099
6640.67,0.10284
6617.53,0.10238
6594.38,0.10006
6571.24,0.10342
6548.09,0.10187
6524.95,0.09909
6501.8,0.10325
6478.66,0.10088
6455.51,0.09798
6432.37,0.10364
6409.22,0.09823
6386.08,0.09726
6362.93,0.09712
6339.79,0.10051
6316.64,0.09600
6293.5,0.09825
6270.35,0.09611
6247.21,0.09724
6224.06,0.09552
6200.92,0.09701
6177.77,0.09687
6154.63,0.09637
6131.48,0.09784
6108.34,0.09494
6085.19,0.09558
6062.05,0.09406
6038.9,0.09328
6015.76,0.09405
5992.61,0.09216
5969.47,0.09271
5946.32,0.08981
5923.18,0.09175
5900.03,0.08845
5876.89,0.08235
5853.74,0.07677
5830.6,0.07266
5807.45,0.07640
5784.31,0.08051
5761.16,0.08032
5738.02,0.07708
5714.87,0.07905
5691.73,0.08017
5668.58,0.08084
5645.44,0.08183
5622.29,0.08177
5599.15,0.08148
5576,0.08270
5552.86,0.08448
5529.71,0.08490
5506.57,0.08466
5483.42,0.08414
5460.28,0.08232
5437.13,0.08191
5413.99,0.08364
5390.84,0.08415
5367.7,0.08393
5344.55,0.08360
5321.41,0.08404
5298.26,0.08372
5275.12,0.08295
5251.97,0.08345
5228.83,0.08269
5205.68,0.08340
5182.54,0.08319
5159.39,0.08308
5136.25,0.08233
5113.1,0.08253
5089.96,0.08258
5066.81,0.08104
5043.67,0.08231
5020.52,0.08223
4997.38,0.08185
4974.23,0.08140
4951.09,0.08220
4927.94,0.08036
4904.8,0.08100
4881.65,0.08090
4858.51,0.08053
4835.36,0.07931
4812.22,0.07987
4789.07,0.08024
4765.93,0.08025
4742.78,0.07930
4719.64,0.07933
4696.49,0.07850
4673.35,0.07879
4650.2,0.07849
4627.06,0.07819
4603.92,0.07797
4580.77,0.07815
4557.63,0.07688
4534.48,0.07598
4511.34,0.07575
4488.19,0.07496
4465.05,0.07317
4441.9,0.07199
4418.76,0.06875
4395.61,0.06615
4372.47,0.06301
4349.32,0.06042
4326.18,0.05924
4303.03,0.06130
4279.89,0.06159
4256.74,0.06148
4233.6,0.06080
4210.45,0.06046
4187.31,0.06102
4164.16,0.06138
4141.02,0.06209
4117.87,0.06259
4094.73,0.06341
4071.58,0.06228
4048.44,0.06350
4025.29,0.06283
4002.15,0.06311
3979,0.06363
3955.86,0.06420
3932.71,0.06418
3909.57,0.06423
3886.42,0.06429
3863.28,0.06389
3840.13,0.06433
3816.99,0.06437
3793.84,0.06393
3770.7,0.06425
3747.55,0.06474
3724.41,0.06523
3701.26,0.06392
3678.12,0.06127
3654.97,0.06180
3631.83,0.06146
3608.68,0.06069
3585.54,0.06054
3562.39,0.06009
3539.25,0.05955
3516.1,0.05941
3492.96,0.05994
3469.81,0.05884
3446.67,0.05850
3423.52,0.05885
3400.38,0.05816
3377.23,0.05879
3354.09,0.05857
3330.94,0.05823
3307.8,0.05777
3284.65,0.05846
3261.51,0.05818
3238.36,0.05772
3215.22,0.05844
3192.07,0.05765
3168.93,0.05787
3145.78,0.05802
3122.64,0.05804
3099.49,0.05788
3076.35,0.05660
3053.2,0.05651
3030.06,0.05568
3006.91,0.05528
2983.77,0.05375
2960.62,0.05434
2937.48,0.05436
2914.33,0.05671
2891.19,0.05695
2868.04,0.05617
2844.9,0.05701
2821.75,0.05675
2798.61,0.05674
2775.46,0.05710
2752.32,0.05659
2729.17,0.05656
2706.03,0.05671
2682.88,0.05648
2659.74,0.05638
2636.59,0.05645
2613.45,0.05617
2590.3,0.05591
2567.16,0.05620
2544.02,0.05591
2520.87,0.05590
2497.73,0.05600
2474.58,0.05595
2451.44,0.05591
2428.29,0.05620
2405.15,0.05614
2382,0.05609
2358.86,0.05597
2335.71,0.05609
2312.57,0.05582
2289.42,0.05567
2266.28,0.05573
2243.13,0.05588
2219.99,0.05598
2196.84,0.05607
2173.7,0.05636
2150.55,0.05662
2127.41,0.05667
2104.26,0.05644
2081.12,0.05690
2057.97,0.05685
2034.83,0.05670
2011.68,0.05726
1988.54,0.05747
1965.39,0.05791
1942.25,0.05824
1919.1,0.05885
1895.96,0.05966
1872.81,0.06089
1849.67,0.06126
1826.52,0.06157
1803.38,0.06044
1780.23,0.05787
1757.09,0.05497
1733.94,0.05343
1710.8,0.05699
1687.65,0.06072
1664.51,0.06677
1641.36,0.07096
1618.22,0.07293
1595.07,0.07371
1571.93,0.07278
1548.78,0.07928
1525.64,0.07877
1502.49,0.06982
1479.35,0.06007
1456.2,0.05985
1433.06,0.06555
1409.91,0.08574
1386.77,0.08371
1363.62,0.07481
1340.48,0.06300
1317.33,0.06295
1294.19,0.06168
1271.04,0.05635
1247.9,0.06005
1224.75,0.06273
1201.61,0.06045
1178.46,0.05995
1155.32,0.06054
1132.17,0.05926
1109.03,0.05761
1085.88,0.05868
1062.74,0.05828
1039.59,0.05747
1016.45,0.05737
993.304,0.05632
970.159,0.05659
947.014,0.05893
923.869,0.05869
900.724,0.05792
877.579,0.06011
854.434,0.05830
831.289,0.05817
808.144,0.05839
784.999,0.05646
761.854,0.05579
738.709,0.05359
715.565,0.05009
692.42,0.05354
669.275,0.05364
646.13,0.05125
622.985,0.05570
599.84,0.06587

File: PVC_IS_S_220818_R8.dpt
7497.03,0.10816
7473.89,0.10559
7450.74,0.11638
7427.6,0.11164
7404.45,0.10976
7381.31,0.11045
7358.16,0.10373
7335.02,0.10426
7311.87,0.11226
7288.73,0.10667
7265.58,0.10647
7242.44,0.10219
7219.29,0.10039
7196.15,0.10863
7173,0.10886
7149.86,0.10597
7126.71,0.10549
7103.57,0.10385
7080.42,0.09966
7057.28,0.10590
7034.13,0.09973
7010.99,0.10491
6987.84,0.10301
6964.7,0.10610
6941.55,0.10413
6918.41,0.10392
6895.26,0.10554
6872.12,0.10502
6848.97,0.10539
6825.83,0.10261
6802.68,0.10269
6779.54,0.10095
6756.39,0.09997
6733.25,0.10377
6710.1,0.10300
6686.96,0.10009
6663.82,0.10360
6640.67,0.10006
6617.53,0.10156
6594.38,0.10073
6571.24,0.10402
6548.09,0.09762
6524.95,0.10210
6501.8,0.09971
6478.66,0.10082
6455.51,0.09886
6432.37,0.10286
6409.22,0.09857
6386.08,0.09948
6362.93,0.09999
6339.79,0.09684
6316.64,0.09899
6293.5,0.09825
6270.35,0.09943
6247.21,0.09736
6224.06,0.09634
6200.92,0.09725
6177.77,0.09526
6154.63,0.09612
6131.48,0.09458
6108.34,0.09674
6085.19,0.09658
6062.05,0.09238
6038.9,0.09636
6015.76,0.09536
5992.61,0.09235
5969.47,0.09350
5946.32,0.08889
5923.18,0.08963
5900.03,0.08644
5876.89,0.08027
5853.74,0.07442
5830.6,0.07414
5807.45,0.07672
5784.31,0.08098
5761.16,0.08029
5738.02,0.08116
5714.87,0.07966
5691.73,0.08131
5668.58,0.07996
5645.44,0.08223
5622.29,0.08079
5599.15,0.08253
5576,0.08285
5552.86,0.08395
5529.71,0.08378
5506.57,0.08354
5483.42,0.08451
5460.28,0.08308
5437.13,0.08300
5413.99,0.08363
5390.84,0.08315
5367.7,0.08217
5344.55,0.08271
5321.41,0.08323
5298.26,0.08447
5275.12,0.08443
5251.97,0.08253
5228.83,0.08360
5205.68,0.08302
5182.54,0.08229
5159.39,0.08187
5136.25,0.08208
5113.1,0.08249
5089.96,0.08213
5066.81,0.08365
5043.67,0.08344
5020.52,0.08213
4997.38,0.08319
4974.23,0.08320
4951.09,0.08181
4927.94,0.08169
4904.8,0.08149
4881.65,0.08094
4858.51,0.08086
4835.36,0.07999
4812.22,0.07997
4789.07,0.08013
4765.93,0.07916
4742.78,0.08042
4719.64,0.07991
4696.49,0.07916
4673.35,0.07860
4650.2,0.07977
4627.06,0.07891
4603.92,0.07822
4580.77,0.07819
4557.63,0.07752
4534.48,0.07839
4511.34,0.07735
4488.19,0.07550
4465.05,0.07405
4441.9,0.07228
4418.76,0.06866
4395.61,0.06695
4372.47,0.06306
4349.32,0.06140
4326.18,0.05999
4303.03,0.06164
4279.89,0.06175
4256.74,0.06167
4233.6,0.06099
4210.45,0.06116
4187.31,0.06160
4164.16,0.06194
4141.02,0.06285
4117.87,0.06265
4094.73,0.06316
4071.58,0.06329
4048.44,0.06401
4025.29,0.06397
4002.15,0.06323
3979,0.06455
3955.86,0.06484
3932.71,0.06496
3909.57,0.06477
3886.42,0.06385
3863.28,0.06428
3840.13,0.06419
3816.99,0.06477
3793.84,0.06483
3770.7,0.06506
3747.55,0.06526
3724.41,0.06591
3701.26,0.06406
3678.12,0.06186
3654.97,0.06214
3631.83,0.06200
3608.68,0.06042
3585.54,0.06034
3562.39,0.06031
3539.25,0.05960
3516.1,0.05947
3492.96,0.05969
3469.81,0.05932
3446.67,0.05839
3423.52,0.05894
3400.38,0.05849
3377.23,0.05912
3354.09,0.05919
3330.94,0.05793
3307.8,0.05824
3284.65,0.05851
3261.51,0.05775
3238.36,0.05867
3215.22,0.05881
3192.07,0.05872
3168.93,0.05815
3145.78,0.05894
3122.64,0.05801
3099.49,0.05752
3076.35,0.05731
3053.2,0.05693
3030.06,0.05610
3006.91,0.05541
2983.77,0.05395
2960.62,0.05489
2937.48,0.05536
2914.33,0.05672
2891.19,0.05716
2868.04,0.05610
2844.9,0.05750
2821.75,0.05657
2798.61,0.05740
2775.46,0.05720
2752.32,0.05672
2729.17,0.05659
2706.03,0.05698
2682.88,0.05691
2659.74,0.05708
2636.59,0.05659
2613.45,0.05623
2590.3,0.05613
2567.16,0.05625
2544.02,0.05615
2520.87,0.05581
2497.73,0.05645
2474.58,0.05658
2451.44,0.05651
2428.29,0.05631
2405.15,0.05632
2382,0.05615
2358.86,0.05596
2335.71,0.05649
2312.57,0.05640
2289.42,0.05649
2266.28,0.05626
2243.13,0.05621
2219.99,0.05648
2196.84,0.05662
2173.7,0.05644
2150.55,0.05649
2127.41,0.05699
2104.26,0.05736
2081.12,0.05711
2057.97,0.05736
2034.83,0.05704
2011.68,0.05783
1988.54,0.05757
1965.39,0.05795
1942.25,0.05840
1919.1,0.05933
1895.96,0.05986
1872.81,0.06088
1849.67,0.06177
1826.52,0.06200
1803.38,0.06082
1780.23,0.05828
1757.09,0.05546
1733.94,0.05401
1710.8,0.05732
1687.65,0.06071
1664.51,0.06668
1641.36,0.07134
1618.22,0.07344
1595.07,0.07427
1571.93,0.07337
1548.78,0.07973
1525.64,0.07936
1502.49,0.07050
1479.35,0.06061
1456.2,0.05998
1433.06,0.06621
1409.91,0.08573
1386.77,0.08424
1363.62,0.07553
1340.48,0.06323
1317.33,0.06305
1294.19,0.06201
1271.04,0.05645
1247.9,0.06017
1224.75,0.06328
1201.61,0.06027
1178.46,0.06032
1155.32,0.06079
1132.17,0.05949
1109.03,0.05777
1085.88,0.05881
1062.74,0.05909
1039.59,0.05856
1016.45,0.05757
993.304,0.05660
970.159,0.05670
947.014,0.05956
923.869,0.05878
900.724,0.05867
877.579,0.06002
854.434,0.05890
831.289,0.05834
808.144,0.05848
784.999,0.05699
761.854,0.05572
738.709,0.05355
715.565,0.05190
692.42,0.05513
669.275,0.05412
646.13,0.05189
622.985,0.05827
599.84,0.06544

File: PVC_IS_T_220818_R2.dpt
7497.03,0.02309
7473.89,0.01494
7450.74,0.02835
7427.6,0.02092
7404.45,0.02763
7381.31,0.02678
7358.16,0.02256
7335.02,0.02002
7311.87,0.02454
7288.73,0.01805
7265.58,0.02457
7242.44,0.01687
7219.29,0.01940
7196.15,0.02324
7173,0.02554
7149.86,0.02087
7126.71,0.02381
7103.57,0.01930
7080.42,0.01971
7057.28,0.02028
7034.13,0.02146
7010.99,0.02253
6987.84,0.02149
6964.7,0.02199
6941.55,0.01966
6918.41,0.01566
6895.26,0.02362
6872.12,0.02338
6848.97,0.02600
6825.83,0.02003
6802.68,0.01602
6779.54,0.01548
6756.39,0.01869
6733.25,0.01922
6710.1,0.02248
6686.96,0.01431
6663.82,0.02006
6640.67,0.02263
6617.53,0.01490
6594.38,0.02246
6571.24,0.01979
6548.09,0.02161
6524.95,0.02488
6501.8,0.02179
6478.66,0.01997
6455.51,0.01997
6432.37,0.01342
6409.22,0.01886
6386.08,0.01937
6362.93,0.01902
6339.79,0.01858
6316.64,0.01839
6293.5,0.01946
6270.35,0.01494
6247.21,0.02127
6224.06,0.01933
6200.92,0.01996
6177.77,0.01784
6154.63,0.01906
6131.48,0.01713
6108.34,0.01714
6085.19,0.02069
6062.05,0.01897
6038.9,0.02173
6015.76,0.01745
5992.61,0.02006
5969.47,0.01872
5946.32,0.01831
5923.18,0.01866
5900.03,0.01685
5876.89,0.01874
5853.74,0.01875
5830.6,0.02003
5807.45,0.01798
5784.31,0.01794
5761.16,0.02052
5738.02,0.01927
5714.87,0.01772
5691.73,0.01781
5668.58,0.01792
5645.44,0.01716
5622.29,0.01899
5599.15,0.02072
5576,0.01856
5552.86,0.01828
5529.71,0.01713
5506.57,0.01945
5483.42,0.01785
5460.28,0.01997
5437.13,0.01821
5413.99,0.01826
5390.84,0.01875
5367.7,0.01876
5344.55,0.02040
5321.41,0.02042
5298.26,0.01860
5275.12,0.01868
5251.97,0.01971
5228.83,0.01803
5205.68,0.01901
5182.54,0.02120
5159.39,0.01966
5136.25,0.02020
5113.1,0.01864
5089.96,0.01954
5066.81,0.01958
5043.67,0.01935
5020.52,0.01933
4997.38,0.02051
4974.23,0.01943
4951.09,0.02011
4927.94,0.02008
4904.8,0.01945
4881.65,0.01944
4858.51,0.01951
4835.36,0.01859
4812.22,0.01958
4789.07,0.01955
4765.93,0.01956
4742.78,0.01913
4719.64,0.01961
4696.49,0.01937
4673.35,0.02017
4650.2,0.01975
4627.06,0.01983
4603.92,0.01927
4580.77,0.01894
4557.63,0.01942
4534.48,0.01976
4511.34,0.01926
4488.19,0.02010
4465.05,0.01916
4441.9,0.01964
4418.76,0.01965
4395.61,0.01966
4372.47,0.01968
4349.32,0.01987
4326.18,0.01924
4303.03,0.01961
4279.89,0.01984
4256.74,0.01966
4233.6,0.01985
4210.45,0.01987
4187.31,0.02006
4164.16,0.02041
4141.02,0.02032
4117.87,0.01960
4094.73,0.01992
4071.58,0.01921
4048.44,0.02043
4025.29,0.02030
4002.15,0.01984
3979,0.01970
3955.86,0.01995
3932.71,0.01966
3909.57,0.01961
3886.42,0.02001
3863.28,0.01977
3840.13,0.01961
3816.99,0.02026
3793.84,0.01971
3770.7,0.02042
3747.55,0.02083
3724.41,0.01987
3701.26,0.01997
3678.12,0.01975
3654.97,0.01980
3631.83,0.01933
3608.68,0.01947
3585.54,0.01910
3562.39,0.01899
3539.25,0.01902
3516.1,0.01812
3492.96,0.01830
3469.81,0.01825
3446.67,0.01794
3423.52,0.01869
3400.38,0.01813
3377.23,0.01726
3354.09,0.01860
3330.94,0.01750
3307.8,0.01691
3284.65,0.01725
3261.51,0.01728
3238.36,0.01877
3215.22,0.01779
3192.07,0.01825
3168.93,0.01852
3145.78,0.01891
3122.64,0.01788
3099.49,0.01805
3076.35,0.01765
3053.2,0.01788
3030.06,0.01789
3006.91,0.01740
2983.77,0.01714
2960.62,0.01681
2937.48,0.01730
2914.33,0.01763
2891.19,0.01811
2868.04,0.01727
2844.9,0.01834
2821.75,0.01869
2798.61,0.01837
2775.46,0.01871
2752.32,0.01824
2729.17,0.01869
2706.03,0.01821
2682.88,0.01869
2659.74,0.01859
2636.59,0.01856
2613.45,0.01864
2590.3,0.01855
2567.16,0.01878
2544.02,0.01867
2520.87,0.01921
2497.73,0.01897
2474.58,0.01850
2451.44,0.01887
2428.29,0.01864
2405.15,0.01900
2382,0.01853
2358.86,0.01874
2335.71,0.01893
2312.57,0.01844
2289.42,0.01878
2266.28,0.01866
2243.13,0.01854
2219.99,0.01823
2196.84,0.01847
2173.7,0.01851
2150.55,0.01845
2127.41,0.01848
2104.26,0.01819
2081.12,0.01824
2057.97,0.01861
2034.83,0.01842
2011.68,0.01844
1988.54,0.01812
1965.39,0.01802
1942.25,0.01816
1919.1,0.01796
1895.96,0.01802
1872.81,0.01778
1849.67,0.01783
1826.52,0.01782
1803.38,0.01727
1780.23,0.01618
1757.09,0.01481
1733.94,0.01752
1710.8,0.01819
1687.65,0.01656
1664.51,0.01608
1641.36,0.01622
1618.22,0.01646
1595.07,0.01653
1571.93,0.01566
1548.78,0.01553
1525.64,0.01612
1502.49,0.01602
1479.35,0.01580
1456.2,0.01615
1433.06,0.01594
1409.91,0.01560
1386.77,0.01534
1363.62,0.01544
1340.48,0.01543
1317.33,0.01433
1294.19,0.01520
1271.04,0.01687
1247.9,0.01780
1224.75,0.01659
1201.61,0.01551
1178.46,0.01537
1155.32,0.01466
1132.17,0.01524
1109.03,0.01578
1085.88,0.01539
1062.74,0.01757
1039.59,0.01720
1016.45,0.01738
993.304,0.01910
970.159,0.01751
947.014,0.01721
923.869,0.01657
900.724,0.01602
877.579,0.01597
854.434,0.01607
831.289,0.01512
808.144,0.01522
784.999,0.01553
761.854,0.01539
738.709,0.01648
715.565,0.01476
692.42,0.01460
669.275,0.01493
646.13,0.01423
622.985,0.01211
599.84,0.01498