Folder: fsri_materials_database/01_Data/Rebond_Foam_Carpet_Pad/FTIR/IS (part 3)

File: Rebond_Foam_Carpet_Pad_IS_T_220913_R4.dpt
7497.03,0.02826
7473.89,0.01868
7450.74,0.03152
7427.6,0.02385
7404.45,0.02551
7381.31,0.03352
7358.16,0.02918
7335.02,0.02204
7311.87,0.02953
7288.73,0.02158
7265.58,0.01927
7242.44,0.03260
7219.29,0.03009
7196.15,0.01022
7173,0.02471
7149.86,0.02665
7126.71,0.02517
7103.57,0.02732
7080.42,0.02186
7057.28,0.02008
7034.13,0.02700
7010.99,0.02903
6987.84,0.02203
6964.7,0.02025
6941.55,0.02475
6918.41,0.02666
6895.26,0.01957
6872.12,0.02133
6848.97,0.02364
6825.83,0.02288
6802.68,0.02500
6779.54,0.02780
6756.39,0.02276
6733.25,0.02803
6710.1,0.01941
6686.96,0.02712
6663.82,0.02156
6640.67,0.02394
6617.53,0.02084
6594.38,0.01843
6571.24,0.02329
6548.09,0.02324
6524.95,0.02595
6501.8,0.02329
6478.66,0.02289
6455.51,0.02452
6432.37,0.02645
6409.22,0.02408
6386.08,0.02153
6362.93,0.02430
6339.79,0.02161
6316.64,0.02098
6293.5,0.02048
6270.35,0.02419
6247.21,0.02356
6224.06,0.02335
6200.92,0.02132
6177.77,0.02234
6154.63,0.02269
6131.48,0.02126
6108.34,0.02389
6085.19,0.01959
6062.05,0.02214
6038.9,0.02104
6015.76,0.02180
5992.61,0.02151
5969.47,0.02150
5946.32,0.02069
5923.18,0.02263
5900.03,0.02265
5876.89,0.02304
5853.74,0.02008
5830.6,0.01983
5807.45,0.02311
5784.31,0.02030
5761.16,0.02365
5738.02,0.02005
5714.87,0.02212
5691.73,0.02216
5668.58,0.02310
5645.44,0.01989
5622.29,0.02178
5599.15,0.02344
5576,0.02216
5552.86,0.02448
5529.71,0.02309
5506.57,0.02303
5483.42,0.02258
5460.28,0.02164
5437.13,0.02193
5413.99,0.02238
5390.84,0.02260
5367.7,0.02320
5344.55,0.02318
5321.41,0.02232
5298.26,0.02109
5275.12,0.02350
5251.97,0.02274
5228.83,0.02254
5205.68,0.02251
5182.54,0.02115
5159.39,0.02188
5136.25,0.02131
5113.1,0.02197
5089.96,0.02269
5066.81,0.02369
5043.67,0.02161
5020.52,0.02231
4997.38,0.02353
4974.23,0.02392
4951.09,0.02305
4927.94,0.02190
4904.8,0.02261
4881.65,0.02267
4858.51,0.02263
4835.36,0.02266
4812.22,0.02209
4789.07,0.02254
4765.93,0.02232
4742.78,0.02247
4719.64,0.02258
4696.49,0.02286
4673.35,0.02276
4650.2,0.02302
4627.06,0.02276
4603.92,0.02277
4580.77,0.02297
4557.63,0.02250
4534.48,0.02251
4511.34,0.02358
4488.19,0.02249
4465.05,0.02262
4441.9,0.02308
4418.76,0.02326
4395.61,0.02217
4372.47,0.02263
4349.32,0.02279
4326.18,0.02252
4303.03,0.02269
4279.89,0.02316
4256.74,0.02284
4233.6,0.02278
4210.45,0.02175
4187.31,0.02246
4164.16,0.02274
4141.02,0.02233
4117.87,0.02276
4094.73,0.02288
4071.58,0.02320
4048.44,0.02304
4025.29,0.02307
4002.15,0.02303
3979,0.02319
3955.86,0.02235
3932.71,0.02243
3909.57,0.02262
3886.42,0.02243
3863.28,0.02274
3840.13,0.02296
3816.99,0.02329
3793.84,0.02295
3770.7,0.02241
3747.55,0.02314
3724.41,0.02277
3701.26,0.02253
3678.12,0.02323
3654.97,0.02279
3631.83,0.02226
3608.68,0.02209
3585.54,0.02214
3562.39,0.02170
3539.25,0.02147
3516.1,0.02151
3492.96,0.02074
3469.81,0.02175
3446.67,0.02106
3423.52,0.02090
3400.38,0.02071
3377.23,0.02110
3354.09,0.02028
3330.94,0.02033
3307.8,0.02075
3284.65,0.02106
3261.51,0.02103
3238.36,0.02066
3215.22,0.02065
3192.07,0.02136
3168.93,0.02127
3145.78,0.02109
3122.64,0.02150
3099.49,0.02119
3076.35,0.02115
3053.2,0.02115
3030.06,0.02059
3006.91,0.02080
2983.77,0.02001
2960.62,0.01971
2937.48,0.02000
2914.33,0.02055
2891.19,0.02040
2868.04,0.02083
2844.9,0.02120
2821.75,0.02155
2798.61,0.02109
2775.46,0.02143
2752.32,0.02210
2729.17,0.02120
2706.03,0.02164
2682.88,0.02165
2659.74,0.02140
2636.59,0.02114
2613.45,0.02173
2590.3,0.02185
2567.16,0.02161
2544.02,0.02128
2520.87,0.02121
2497.73,0.02151
2474.58,0.02153
2451.44,0.02136
2428.29,0.02118
2405.15,0.02172
2382,0.02135
2358.86,0.02136
2335.71,0.02100
2312.57,0.02167
2289.42,0.02128
2266.28,0.02115
2243.13,0.02148
2219.99,0.02133
2196.84,0.02121
2173.7,0.02105
2150.55,0.02135
2127.41,0.02127
2104.26,0.02121
2081.12,0.02105
2057.97,0.02081
2034.83,0.02124
2011.68,0.02136
1988.54,0.02069
1965.39,0.02071
1942.25,0.02083
1919.1,0.02095
1895.96,0.02079
1872.81,0.02096
1849.67,0.02087
1826.52,0.02020
1803.38,0.02011
1780.23,0.01904
1757.09,0.01762
1733.94,0.01993
1710.8,0.02117
1687.65,0.01931
1664.51,0.01885
1641.36,0.01869
1618.22,0.01889
1595.07,0.01889
1571.93,0.01814
1548.78,0.01871
1525.64,0.01863
1502.49,0.01912
1479.35,0.01831
1456.2,0.01905
1433.06,0.01887
1409.91,0.01833
1386.77,0.01821
1363.62,0.01814
1340.48,0.01785
1317.33,0.01745
1294.19,0.01794
1271.04,0.01979
1247.9,0.02056
1224.75,0.01939
1201.61,0.01863
1178.46,0.01876
1155.32,0.01812
1132.17,0.01816
1109.03,0.01891
1085.88,0.01831
1062.74,0.01992
1039.59,0.01925
1016.45,0.01965
993.304,0.02093
970.159,0.02043
947.014,0.01904
923.869,0.01963
900.724,0.01954
877.579,0.01916
854.434,0.01950
831.289,0.01868
808.144,0.01851
784.999,0.01879
761.854,0.01898
738.709,0.01918
715.565,0.01788
692.42,0.01872
669.275,0.01752
646.13,0.01748
622.985,0.01562
599.84,0.01304