Folder: fsri_materials_database/01_Data/Rebond_Foam_Carpet_Pad/FTIR/IS (part 2)

File: Rebond_Foam_Carpet_Pad_IS_S_220913_R5.dpt
7497.03,0.08938
7473.89,0.09126
7450.74,0.08891
7427.6,0.08590
7404.45,0.09800
7381.31,0.09229
7358.16,0.08964
7335.02,0.08938
7311.87,0.09264
7288.73,0.09188
7265.58,0.09125
7242.44,0.09194
7219.29,0.09079
7196.15,0.09984
7173,0.09433
7149.86,0.08962
7126.71,0.09227
7103.57,0.09370
7080.42,0.09624
7057.28,0.09596
7034.13,0.09529
7010.99,0.09347
6987.84,0.09175
6964.7,0.09683
6941.55,0.09756
6918.41,0.09440
6895.26,0.09555
6872.12,0.09850
6848.97,0.09630
6825.83,0.09173
6802.68,0.09459
6779.54,0.09195
6756.39,0.09338
6733.25,0.09522
6710.1,0.09370
6686.96,0.09755
6663.82,0.09071
6640.67,0.09388
6617.53,0.09498
6594.38,0.09356
6571.24,0.09393
6548.09,0.09228
6524.95,0.09301
6501.8,0.09445
6478.66,0.09528
6455.51,0.09429
6432.37,0.09412
6409.22,0.09745
6386.08,0.09968
6362.93,0.09143
6339.79,0.09535
6316.64,0.09386
6293.5,0.09417
6270.35,0.09451
6247.21,0.09667
6224.06,0.09449
6200.92,0.09880
6177.77,0.09481
6154.63,0.09748
6131.48,0.09729
6108.34,0.09416
6085.19,0.09767
6062.05,0.09621
6038.9,0.09638
6015.76,0.09292
5992.61,0.09345
5969.47,0.09272
5946.32,0.09112
5923.18,0.09232
5900.03,0.09095
5876.89,0.08950
5853.74,0.08863
5830.6,0.09114
5807.45,0.08884
5784.31,0.09265
5761.16,0.08918
5738.02,0.09029
5714.87,0.09197
5691.73,0.09366
5668.58,0.09536
5645.44,0.09561
5622.29,0.09618
5599.15,0.09556
5576,0.09693
5552.86,0.09681
5529.71,0.09739
5506.57,0.09844
5483.42,0.09602
5460.28,0.09813
5437.13,0.09845
5413.99,0.09803
5390.84,0.09860
5367.7,0.09990
5344.55,0.10039
5321.41,0.10100
5298.26,0.10059
5275.12,0.09978
5251.97,0.09993
5228.83,0.10024
5205.68,0.10105
5182.54,0.09897
5159.39,0.09955
5136.25,0.09955
5113.1,0.10066
5089.96,0.10050
5066.81,0.09962
5043.67,0.10051
5020.52,0.10017
4997.38,0.09933
4974.23,0.09675
4951.09,0.09524
4927.94,0.09318
4904.8,0.09233
4881.65,0.09320
4858.51,0.09220
4835.36,0.09309
4812.22,0.09471
4789.07,0.09680
4765.93,0.09701
4742.78,0.09669
4719.64,0.09565
4696.49,0.09372
4673.35,0.09280
4650.2,0.09360
4627.06,0.09211
4603.92,0.09262
4580.77,0.09454
4557.63,0.09573
4534.48,0.09565
4511.34,0.09497
4488.19,0.09364
4465.05,0.09113
4441.9,0.08510
4418.76,0.07721
4395.61,0.07600
4372.47,0.07383
4349.32,0.07141
4326.18,0.07253
4303.03,0.07549
4279.89,0.07630
4256.74,0.07618
4233.6,0.07722
4210.45,0.07901
4187.31,0.08047
4164.16,0.08032
4141.02,0.08044
4117.87,0.08034
4094.73,0.07872
4071.58,0.07641
4048.44,0.07479
4025.29,0.07485
4002.15,0.07642
3979,0.07790
3955.86,0.08122
3932.71,0.08306
3909.57,0.08564
3886.42,0.08716
3863.28,0.08821
3840.13,0.08992
3816.99,0.09099
3793.84,0.09223
3770.7,0.09318
3747.55,0.09548
3724.41,0.09641
3701.26,0.09619
3678.12,0.09406
3654.97,0.08885
3631.83,0.08498
3608.68,0.08220
3585.54,0.07906
3562.39,0.07505
3539.25,0.07146
3516.1,0.06767
3492.96,0.06480
3469.81,0.05740
3446.67,0.05117
3423.52,0.04535
3400.38,0.03719
3377.23,0.03242
3354.09,0.03084
3330.94,0.03028
3307.8,0.02992
3284.65,0.02950
3261.51,0.03056
3238.36,0.03401
3215.22,0.03532
3192.07,0.03672
3168.93,0.03982
3145.78,0.04069
3122.64,0.04044
3099.49,0.03974
3076.35,0.03842
3053.2,0.03759
3030.06,0.03469
3006.91,0.03557
2983.77,0.02882
2960.62,0.02809
2937.48,0.02684
2914.33,0.02748
2891.19,0.02828
2868.04,0.02816
2844.9,0.03235
2821.75,0.03912
2798.61,0.04306
2775.46,0.04637
2752.32,0.04954
2729.17,0.05212
2706.03,0.05777
2682.88,0.06405
2659.74,0.06675
2636.59,0.06882
2613.45,0.07210
2590.3,0.07136
2567.16,0.07453
2544.02,0.07715
2520.87,0.07836
2497.73,0.07968
2474.58,0.08115
2451.44,0.08247
2428.29,0.08377
2405.15,0.08385
2382,0.08275
2358.86,0.08183
2335.71,0.08046
2312.57,0.07953
2289.42,0.07546
2266.28,0.07292
2243.13,0.06488
2219.99,0.07803
2196.84,0.08027
2173.7,0.08130
2150.55,0.08197
2127.41,0.08173
2104.26,0.08097
2081.12,0.08009
2057.97,0.07898
2034.83,0.07693
2011.68,0.07433
1988.54,0.07278
1965.39,0.07008
1942.25,0.07001
1919.1,0.07167
1895.96,0.06880
1872.81,0.06941
1849.67,0.07048
1826.52,0.06350
1803.38,0.05605
1780.23,0.04966
1757.09,0.03782
1733.94,0.02653
1710.8,0.02734
1687.65,0.02809
1664.51,0.02737
1641.36,0.02668
1618.22,0.02797
1595.07,0.02698
1571.93,0.02677
1548.78,0.02463
1525.64,0.02691
1502.49,0.02837
1479.35,0.02876
1456.2,0.02720
1433.06,0.03025
1409.91,0.02857
1386.77,0.02823
1363.62,0.02968
1340.48,0.02844
1317.33,0.02643
1294.19,0.02627
1271.04,0.02596
1247.9,0.02599
1224.75,0.02583
1201.61,0.02789
1178.46,0.02651
1155.32,0.02578
1132.17,0.02531
1109.03,0.02854
1085.88,0.03012
1062.74,0.03175
1039.59,0.03273
1016.45,0.03328
993.304,0.03655
970.159,0.03736
947.014,0.03801
923.869,0.03542
900.724,0.03917
877.579,0.03630
854.434,0.03731
831.289,0.03670
808.144,0.03507
784.999,0.03691
761.854,0.03158
738.709,0.03731
715.565,0.03410
692.42,0.03636
669.275,0.03555
646.13,0.03802
622.985,0.03699
599.84,0.03620

File: Rebond_Foam_Carpet_Pad_IS_S_220913_R6.dpt
7497.03,0.08655
7473.89,0.09242
7450.74,0.09525
7427.6,0.09425
7404.45,0.08829
7381.31,0.09366
7358.16,0.09426
7335.02,0.09844
7311.87,0.08912
7288.73,0.09194
7265.58,0.09570
7242.44,0.08770
7219.29,0.09194
7196.15,0.09290
7173,0.08995
7149.86,0.08791
7126.71,0.09285
7103.57,0.08841
7080.42,0.08684
7057.28,0.09829
7034.13,0.09447
7010.99,0.09282
6987.84,0.09114
6964.7,0.08838
6941.55,0.09184
6918.41,0.09536
6895.26,0.09461
6872.12,0.09371
6848.97,0.09952
6825.83,0.09347
6802.68,0.09197
6779.54,0.09814
6756.39,0.09452
6733.25,0.09453
6710.1,0.09224
6686.96,0.09487
6663.82,0.09033
6640.67,0.09359
6617.53,0.09276
6594.38,0.09215
6571.24,0.09429
6548.09,0.09470
6524.95,0.09609
6501.8,0.09495
6478.66,0.09713
6455.51,0.09741
6432.37,0.08975
6409.22,0.09459
6386.08,0.09760
6362.93,0.09460
6339.79,0.09558
6316.64,0.09365
6293.5,0.09200
6270.35,0.09454
6247.21,0.09509
6224.06,0.09420
6200.92,0.09735
6177.77,0.09646
6154.63,0.09675
6131.48,0.09776
6108.34,0.09832
6085.19,0.09588
6062.05,0.09594
6038.9,0.09354
6015.76,0.09488
5992.61,0.09312
5969.47,0.09404
5946.32,0.09310
5923.18,0.08964
5900.03,0.08988
5876.89,0.08924
5853.74,0.09113
5830.6,0.09037
5807.45,0.08866
5784.31,0.08886
5761.16,0.09118
5738.02,0.09106
5714.87,0.09111
5691.73,0.09269
5668.58,0.09347
5645.44,0.09499
5622.29,0.09626
5599.15,0.09593
5576,0.09536
5552.86,0.09791
5529.71,0.09763
5506.57,0.09826
5483.42,0.09674
5460.28,0.09901
5437.13,0.09878
5413.99,0.09984
5390.84,0.09880
5367.7,0.09914
5344.55,0.09943
5321.41,0.09969
5298.26,0.10021
5275.12,0.09981
5251.97,0.09991
5228.83,0.10008
5205.68,0.10087
5182.54,0.09910
5159.39,0.09852
5136.25,0.09923
5113.1,0.10031
5089.96,0.09927
5066.81,0.09994
5043.67,0.09944
5020.52,0.09958
4997.38,0.09808
4974.23,0.09593
4951.09,0.09508
4927.94,0.09454
4904.8,0.09282
4881.65,0.09193
4858.51,0.09163
4835.36,0.09379
4812.22,0.09381
4789.07,0.09566
4765.93,0.09676
4742.78,0.09545
4719.64,0.09491
4696.49,0.09280
4673.35,0.09264
4650.2,0.09287
4627.06,0.09112
4603.92,0.09220
4580.77,0.09352
4557.63,0.09466
4534.48,0.09475
4511.34,0.09444
4488.19,0.09330
4465.05,0.09096
4441.9,0.08360
4418.76,0.07803
4395.61,0.07560
4372.47,0.07405
4349.32,0.07122
4326.18,0.07197
4303.03,0.07412
4279.89,0.07607
4256.74,0.07591
4233.6,0.07681
4210.45,0.07885
4187.31,0.08057
4164.16,0.07962
4141.02,0.07993
4117.87,0.07916
4094.73,0.07799
4071.58,0.07597
4048.44,0.07409
4025.29,0.07389
4002.15,0.07541
3979,0.07706
3955.86,0.08017
3932.71,0.08263
3909.57,0.08508
3886.42,0.08587
3863.28,0.08767
3840.13,0.08859
3816.99,0.09035
3793.84,0.09167
3770.7,0.09307
3747.55,0.09493
3724.41,0.09533
3701.26,0.09574
3678.12,0.09319
3654.97,0.08874
3631.83,0.08558
3608.68,0.08257
3585.54,0.08032
3562.39,0.07586
3539.25,0.07218
3516.1,0.06844
3492.96,0.06450
3469.81,0.05768
3446.67,0.05098
3423.52,0.04447
3400.38,0.03752
3377.23,0.03264
3354.09,0.03086
3330.94,0.02949
3307.8,0.02880
3284.65,0.02944
3261.51,0.03109
3238.36,0.03322
3215.22,0.03535
3192.07,0.03704
3168.93,0.03928
3145.78,0.04013
3122.64,0.04038
3099.49,0.04010
3076.35,0.03779
3053.2,0.03713
3030.06,0.03456
3006.91,0.03551
2983.77,0.02878
2960.62,0.02795
2937.48,0.02653
2914.33,0.02725
2891.19,0.02876
2868.04,0.02876
2844.9,0.03200
2821.75,0.03871
2798.61,0.04309
2775.46,0.04626
2752.32,0.04887
2729.17,0.05167
2706.03,0.05765
2682.88,0.06331
2659.74,0.06648
2636.59,0.06859
2613.45,0.07169
2590.3,0.07052
2567.16,0.07407
2544.02,0.07641
2520.87,0.07808
2497.73,0.07883
2474.58,0.08030
2451.44,0.08193
2428.29,0.08313
2405.15,0.08281
2382,0.08208
2358.86,0.08071
2335.71,0.08043
2312.57,0.07912
2289.42,0.07477
2266.28,0.07218
2243.13,0.06483
2219.99,0.07733
2196.84,0.07980
2173.7,0.08065
2150.55,0.08141
2127.41,0.08133
2104.26,0.08050
2081.12,0.07967
2057.97,0.07826
2034.83,0.07620
2011.68,0.07405
1988.54,0.07259
1965.39,0.06950
1942.25,0.06953
1919.1,0.07117
1895.96,0.06844
1872.81,0.06844
1849.67,0.06971
1826.52,0.06310
1803.38,0.05578
1780.23,0.04934
1757.09,0.03707
1733.94,0.02644
1710.8,0.02716
1687.65,0.02766
1664.51,0.02652
1641.36,0.02630
1618.22,0.02782
1595.07,0.02651
1571.93,0.02646
1548.78,0.02438
1525.64,0.02752
1502.49,0.02827
1479.35,0.02859
1456.2,0.02698
1433.06,0.03023
1409.91,0.02867
1386.77,0.02804
1363.62,0.02962
1340.48,0.02825
1317.33,0.02682
1294.19,0.02629
1271.04,0.02644
1247.9,0.02511
1224.75,0.02574
1201.61,0.02781
1178.46,0.02701
1155.32,0.02585
1132.17,0.02547
1109.03,0.02861
1085.88,0.02920
1062.74,0.03189
1039.59,0.03241
1016.45,0.03319
993.304,0.03567
970.159,0.03667
947.014,0.03790
923.869,0.03527
900.724,0.03937
877.579,0.03611
854.434,0.03785
831.289,0.03675
808.144,0.03544
784.999,0.03669
761.854,0.03109
738.709,0.03785
715.565,0.03406
692.42,0.03537
669.275,0.03410
646.13,0.03563
622.985,0.03709
599.84,0.04082

File: Rebond_Foam_Carpet_Pad_IS_S_220913_R7.dpt
7497.03,0.09502
7473.89,0.08547
7450.74,0.10280
7427.6,0.09172
7404.45,0.09964
7381.31,0.09441
7358.16,0.10044
7335.02,0.09331
7311.87,0.08920
7288.73,0.09012
7265.58,0.08973
7242.44,0.09661
7219.29,0.09110
7196.15,0.09950
7173,0.09122
7149.86,0.09363
7126.71,0.08701
7103.57,0.09487
7080.42,0.09354
7057.28,0.09348
7034.13,0.09262
7010.99,0.09599
6987.84,0.09408
6964.7,0.09658
6941.55,0.08947
6918.41,0.09431
6895.26,0.09958
6872.12,0.09257
6848.97,0.09185
6825.83,0.09338
6802.68,0.09147
6779.54,0.08926
6756.39,0.09305
6733.25,0.09630
6710.1,0.09553
6686.96,0.09248
6663.82,0.08711
6640.67,0.09424
6617.53,0.09387
6594.38,0.09565
6571.24,0.09159
6548.09,0.09766
6524.95,0.09202
6501.8,0.09547
6478.66,0.09746
6455.51,0.09711
6432.37,0.09579
6409.22,0.09501
6386.08,0.09409
6362.93,0.09633
6339.79,0.09718
6316.64,0.09543
6293.5,0.09599
6270.35,0.09849
6247.21,0.09180
6224.06,0.09463
6200.92,0.09851
6177.77,0.09791
6154.63,0.09648
6131.48,0.09821
6108.34,0.09533
6085.19,0.09791
6062.05,0.09474
6038.9,0.09299
6015.76,0.09627
5992.61,0.09668
5969.47,0.09388
5946.32,0.09290
5923.18,0.08985
5900.03,0.09148
5876.89,0.09300
5853.74,0.08797
5830.6,0.08937
5807.45,0.09063
5784.31,0.09204
5761.16,0.09093
5738.02,0.08782
5714.87,0.09245
5691.73,0.09513
5668.58,0.09562
5645.44,0.09680
5622.29,0.09456
5599.15,0.09772
5576,0.09686
5552.86,0.09620
5529.71,0.09711
5506.57,0.09679
5483.42,0.09698
5460.28,0.09880
5437.13,0.09901
5413.99,0.09737
5390.84,0.09757
5367.7,0.09911
5344.55,0.09893
5321.41,0.09941
5298.26,0.09903
5275.12,0.10053
5251.97,0.10228
5228.83,0.09922
5205.68,0.09921
5182.54,0.10006
5159.39,0.10034
5136.25,0.09907
5113.1,0.09916
5089.96,0.09918
5066.81,0.10059
5043.67,0.09944
5020.52,0.10022
4997.38,0.09794
4974.23,0.09720
4951.09,0.09552
4927.94,0.09229
4904.8,0.09294
4881.65,0.09241
4858.51,0.09266
4835.36,0.09404
4812.22,0.09578
4789.07,0.09631
4765.93,0.09720
4742.78,0.09593
4719.64,0.09593
4696.49,0.09340
4673.35,0.09295
4650.2,0.09346
4627.06,0.09184
4603.92,0.09295
4580.77,0.09359
4557.63,0.09438
4534.48,0.09528
4511.34,0.09493
4488.19,0.09243
4465.05,0.09062
4441.9,0.08449
4418.76,0.07701
4395.61,0.07538
4372.47,0.07355
4349.32,0.07086
4326.18,0.07243
4303.03,0.07576
4279.89,0.07549
4256.74,0.07567
4233.6,0.07710
4210.45,0.07913
4187.31,0.08048
4164.16,0.07993
4141.02,0.08012
4117.87,0.07960
4094.73,0.07815
4071.58,0.07598
4048.44,0.07399
4025.29,0.07445
4002.15,0.07523
3979,0.07729
3955.86,0.08070
3932.71,0.08341
3909.57,0.08547
3886.42,0.08686
3863.28,0.08760
3840.13,0.08952
3816.99,0.09076
3793.84,0.09138
3770.7,0.09307
3747.55,0.09446
3724.41,0.09570
3701.26,0.09605
3678.12,0.09441
3654.97,0.08983
3631.83,0.08730
3608.68,0.08364
3585.54,0.08068
3562.39,0.07785
3539.25,0.07310
3516.1,0.06974
3492.96,0.06526
3469.81,0.05812
3446.67,0.05167
3423.52,0.04483
3400.38,0.03695
3377.23,0.03288
3354.09,0.03085
3330.94,0.02934
3307.8,0.02968
3284.65,0.02976
3261.51,0.03021
3238.36,0.03262
3215.22,0.03579
3192.07,0.03718
3168.93,0.03983
3145.78,0.04046
3122.64,0.04070
3099.49,0.03977
3076.35,0.03825
3053.2,0.03744
3030.06,0.03474
3006.91,0.03504
2983.77,0.02846
2960.62,0.02800
2937.48,0.02666
2914.33,0.02774
2891.19,0.02837
2868.04,0.02874
2844.9,0.03248
2821.75,0.03976
2798.61,0.04315
2775.46,0.04612
2752.32,0.04882
2729.17,0.05207
2706.03,0.05781
2682.88,0.06377
2659.74,0.06673
2636.59,0.06846
2613.45,0.07142
2590.3,0.07077
2567.16,0.07365
2544.02,0.07656
2520.87,0.07815
2497.73,0.07883
2474.58,0.08092
2451.44,0.08194
2428.29,0.08390
2405.15,0.08312
2382,0.08207
2358.86,0.08125
2335.71,0.08055
2312.57,0.07944
2289.42,0.07506
2266.28,0.07248
2243.13,0.06439
2219.99,0.07787
2196.84,0.07986
2173.7,0.08103
2150.55,0.08165
2127.41,0.08186
2104.26,0.08073
2081.12,0.07980
2057.97,0.07865
2034.83,0.07656
2011.68,0.07409
1988.54,0.07237
1965.39,0.06962
1942.25,0.06959
1919.1,0.07136
1895.96,0.06864
1872.81,0.06870
1849.67,0.06972
1826.52,0.06355
1803.38,0.05586
1780.23,0.04930
1757.09,0.03752
1733.94,0.02624
1710.8,0.02716
1687.65,0.02805
1664.51,0.02635
1641.36,0.02685
1618.22,0.02792
1595.07,0.02691
1571.93,0.02650
1548.78,0.02452
1525.64,0.02737
1502.49,0.02856
1479.35,0.02851
1456.2,0.02714
1433.06,0.02998
1409.91,0.02867
1386.77,0.02854
1363.62,0.02985
1340.48,0.02830
1317.33,0.02644
1294.19,0.02667
1271.04,0.02689
1247.9,0.02575
1224.75,0.02618
1201.61,0.02819
1178.46,0.02696
1155.32,0.02550
1132.17,0.02569
1109.03,0.02833
1085.88,0.02998
1062.74,0.03210
1039.59,0.03210
1016.45,0.03379
993.304,0.03596
970.159,0.03711
947.014,0.03810
923.869,0.03605
900.724,0.03976
877.579,0.03623
854.434,0.03761
831.289,0.03670
808.144,0.03511
784.999,0.03627
761.854,0.03141
738.709,0.03696
715.565,0.03367
692.42,0.03602
669.275,0.03526
646.13,0.03653
622.985,0.03605
599.84,0.03741

File: Rebond_Foam_Carpet_Pad_IS_S_220913_R8.dpt
7497.03,0.09013
7473.89,0.09088
7450.74,0.08962
7427.6,0.09328
7404.45,0.09367
7381.31,0.09198
7358.16,0.09274
7335.02,0.08990
7311.87,0.08861
7288.73,0.10045
7265.58,0.09547
7242.44,0.09911
7219.29,0.09450
7196.15,0.09712
7173,0.09861
7149.86,0.10024
7126.71,0.09292
7103.57,0.09901
7080.42,0.09197
7057.28,0.09554
7034.13,0.10018
7010.99,0.08863
6987.84,0.09584
6964.7,0.09424
6941.55,0.09184
6918.41,0.09593
6895.26,0.09948
6872.12,0.10186
6848.97,0.09500
6825.83,0.09359
6802.68,0.09082
6779.54,0.09251
6756.39,0.09600
6733.25,0.09451
6710.1,0.09194
6686.96,0.09196
6663.82,0.09111
6640.67,0.09402
6617.53,0.09133
6594.38,0.09219
6571.24,0.09459
6548.09,0.09630
6524.95,0.09295
6501.8,0.09210
6478.66,0.09552
6455.51,0.09303
6432.37,0.09296
6409.22,0.09747
6386.08,0.09320
6362.93,0.09768
6339.79,0.09503
6316.64,0.09414
6293.5,0.09519
6270.35,0.09965
6247.21,0.09465
6224.06,0.09596
6200.92,0.10031
6177.77,0.09760
6154.63,0.09815
6131.48,0.09599
6108.34,0.09647
6085.19,0.09822
6062.05,0.09242
6038.9,0.09582
6015.76,0.09575
5992.61,0.09254
5969.47,0.09033
5946.32,0.09204
5923.18,0.09274
5900.03,0.09302
5876.89,0.09002
5853.74,0.09024
5830.6,0.09126
5807.45,0.09054
5784.31,0.09106
5761.16,0.09113
5738.02,0.08922
5714.87,0.09261
5691.73,0.09107
5668.58,0.09295
5645.44,0.09419
5622.29,0.09770
5599.15,0.09679
5576,0.09810
5552.86,0.09739
5529.71,0.09723
5506.57,0.09688
5483.42,0.09790
5460.28,0.09839
5437.13,0.09725
5413.99,0.09850
5390.84,0.09877
5367.7,0.10067
5344.55,0.09978
5321.41,0.10125
5298.26,0.10035
5275.12,0.10142
5251.97,0.10271
5228.83,0.10075
5205.68,0.09897
5182.54,0.10149
5159.39,0.10122
5136.25,0.09986
5113.1,0.09981
5089.96,0.09945
5066.81,0.09910
5043.67,0.09882
5020.52,0.09862
4997.38,0.09911
4974.23,0.09674
4951.09,0.09506
4927.94,0.09390
4904.8,0.09322
4881.65,0.09231
4858.51,0.09306
4835.36,0.09335
4812.22,0.09581
4789.07,0.09653
4765.93,0.09627
4742.78,0.09536
4719.64,0.09575
4696.49,0.09481
4673.35,0.09214
4650.2,0.09369
4627.06,0.09251
4603.92,0.09343
4580.77,0.09445
4557.63,0.09297
4534.48,0.09492
4511.34,0.09515
4488.19,0.09316
4465.05,0.09036
4441.9,0.08441
4418.76,0.07686
4395.61,0.07594
4372.47,0.07390
4349.32,0.07124
4326.18,0.07151
4303.03,0.07415
4279.89,0.07546
4256.74,0.07603
4233.6,0.07713
4210.45,0.07877
4187.31,0.07978
4164.16,0.08006
4141.02,0.07993
4117.87,0.07952
4094.73,0.07844
4071.58,0.07614
4048.44,0.07391
4025.29,0.07506
4002.15,0.07562
3979,0.07729
3955.86,0.08094
3932.71,0.08303
3909.57,0.08543
3886.42,0.08764
3863.28,0.08827
3840.13,0.08970
3816.99,0.08999
3793.84,0.09150
3770.7,0.09326
3747.55,0.09392
3724.41,0.09619
3701.26,0.09600
3678.12,0.09473
3654.97,0.09049
3631.83,0.08860
3608.68,0.08577
3585.54,0.08161
3562.39,0.07845
3539.25,0.07423
3516.1,0.07001
3492.96,0.06567
3469.81,0.05927
3446.67,0.05138
3423.52,0.04569
3400.38,0.03770
3377.23,0.03276
3354.09,0.03054
3330.94,0.02977
3307.8,0.02925
3284.65,0.03027
3261.51,0.03117
3238.36,0.03357
3215.22,0.03582
3192.07,0.03663
3168.93,0.03935
3145.78,0.04071
3122.64,0.04061
3099.49,0.03997
3076.35,0.03832
3053.2,0.03677
3030.06,0.03527
3006.91,0.03481
2983.77,0.02846
2960.62,0.02776
2937.48,0.02692
2914.33,0.02780
2891.19,0.02832
2868.04,0.02867
2844.9,0.03254
2821.75,0.03923
2798.61,0.04348
2775.46,0.04651
2752.32,0.04873
2729.17,0.05145
2706.03,0.05726
2682.88,0.06373
2659.74,0.06618
2636.59,0.06888
2613.45,0.07189
2590.3,0.07063
2567.16,0.07443
2544.02,0.07669
2520.87,0.07780
2497.73,0.07878
2474.58,0.08043
2451.44,0.08243
2428.29,0.08350
2405.15,0.08286
2382,0.08245
2358.86,0.08139
2335.71,0.07992
2312.57,0.07932
2289.42,0.07507
2266.28,0.07233
2243.13,0.06502
2219.99,0.07796
2196.84,0.08032
2173.7,0.08108
2150.55,0.08157
2127.41,0.08156
2104.26,0.08086
2081.12,0.07973
2057.97,0.07875
2034.83,0.07651
2011.68,0.07432
1988.54,0.07252
1965.39,0.06976
1942.25,0.06937
1919.1,0.07141
1895.96,0.06862
1872.81,0.06883
1849.67,0.06998
1826.52,0.06323
1803.38,0.05570
1780.23,0.04972
1757.09,0.03746
1733.94,0.02645
1710.8,0.02732
1687.65,0.02791
1664.51,0.02662
1641.36,0.02668
1618.22,0.02781
1595.07,0.02685
1571.93,0.02701
1548.78,0.02448
1525.64,0.02711
1502.49,0.02851
1479.35,0.02835
1456.2,0.02681
1433.06,0.03036
1409.91,0.02845
1386.77,0.02847
1363.62,0.02954
1340.48,0.02833
1317.33,0.02701
1294.19,0.02661
1271.04,0.02639
1247.9,0.02572
1224.75,0.02648
1201.61,0.02788
1178.46,0.02717
1155.32,0.02542
1132.17,0.02567
1109.03,0.02821
1085.88,0.02937
1062.74,0.03207
1039.59,0.03224
1016.45,0.03309
993.304,0.03604
970.159,0.03706
947.014,0.03820
923.869,0.03621
900.724,0.03968
877.579,0.03678
854.434,0.03771
831.289,0.03575
808.144,0.03564
784.999,0.03752
761.854,0.03181
738.709,0.03818
715.565,0.03403
692.42,0.03624
669.275,0.03532
646.13,0.03654
622.985,0.03658
599.84,0.03651

File: Rebond_Foam_Carpet_Pad_IS_T_220913_R2.dpt
7497.03,0.01382
7473.89,0.03687
7450.74,0.02109
7427.6,0.03159
7404.45,0.03788
7381.31,0.02684
7358.16,0.02269
7335.02,0.02271
7311.87,0.03203
7288.73,0.02659
7265.58,0.02289
7242.44,0.02946
7219.29,0.02403
7196.15,0.02288
7173,0.02966
7149.86,0.02160
7126.71,0.01554
7103.57,0.02608
7080.42,0.02248
7057.28,0.02459
7034.13,0.02673
7010.99,0.02584
6987.84,0.02591
6964.7,0.02644
6941.55,0.02350
6918.41,0.02925
6895.26,0.02195
6872.12,0.01875
6848.97,0.02001
6825.83,0.02318
6802.68,0.02043
6779.54,0.02153
6756.39,0.02645
6733.25,0.02054
6710.1,0.02179
6686.96,0.01682
6663.82,0.02400
6640.67,0.02111
6617.53,0.02332
6594.38,0.02211
6571.24,0.02214
6548.09,0.02454
6524.95,0.02285
6501.8,0.02259
6478.66,0.02017
6455.51,0.02283
6432.37,0.02022
6409.22,0.02101
6386.08,0.02312
6362.93,0.02601
6339.79,0.02220
6316.64,0.02236
6293.5,0.02043
6270.35,0.02102
6247.21,0.02091
6224.06,0.02326
6200.92,0.02629
6177.77,0.02197
6154.63,0.02357
6131.48,0.02086
6108.34,0.02226
6085.19,0.02026
6062.05,0.02031
6038.9,0.02131
6015.76,0.01920
5992.61,0.02293
5969.47,0.01962
5946.32,0.02113
5923.18,0.02260
5900.03,0.02168
5876.89,0.02155
5853.74,0.02212
5830.6,0.02031
5807.45,0.02299
5784.31,0.02238
5761.16,0.02466
5738.02,0.01939
5714.87,0.02142
5691.73,0.02200
5668.58,0.02153
5645.44,0.02278
5622.29,0.02263
5599.15,0.02268
5576,0.02063
5552.86,0.02404
5529.71,0.02246
5506.57,0.02252
5483.42,0.02065
5460.28,0.02052
5437.13,0.02293
5413.99,0.02249
5390.84,0.02356
5367.7,0.02247
5344.55,0.02255
5321.41,0.02281
5298.26,0.02210
5275.12,0.02258
5251.97,0.02210
5228.83,0.02040
5205.68,0.02162
5182.54,0.02254
5159.39,0.02320
5136.25,0.02087
5113.1,0.02325
5089.96,0.02245
5066.81,0.02281
5043.67,0.02231
5020.52,0.02227
4997.38,0.02134
4974.23,0.02220
4951.09,0.02290
4927.94,0.02313
4904.8,0.02165
4881.65,0.02185
4858.51,0.02197
4835.36,0.02179
4812.22,0.02261
4789.07,0.02286
4765.93,0.02350
4742.78,0.02306
4719.64,0.02317
4696.49,0.02324
4673.35,0.02205
4650.2,0.02310
4627.06,0.02228
4603.92,0.02237
4580.77,0.02200
4557.63,0.02307
4534.48,0.02221
4511.34,0.02279
4488.19,0.02257
4465.05,0.02312
4441.9,0.02230
4418.76,0.02291
4395.61,0.02341
4372.47,0.02211
4349.32,0.02285
4326.18,0.02218
4303.03,0.02282
4279.89,0.02226
4256.74,0.02159
4233.6,0.02334
4210.45,0.02332
4187.31,0.02215
4164.16,0.02329
4141.02,0.02192
4117.87,0.02217
4094.73,0.02289
4071.58,0.02285
4048.44,0.02231
4025.29,0.02194
4002.15,0.02279
3979,0.02297
3955.86,0.02237
3932.71,0.02284
3909.57,0.02319
3886.42,0.02265
3863.28,0.02228
3840.13,0.02281
3816.99,0.02329
3793.84,0.02305
3770.7,0.02275
3747.55,0.02295
3724.41,0.02253
3701.26,0.02297
3678.12,0.02271
3654.97,0.02219
3631.83,0.02250
3608.68,0.02216
3585.54,0.02217
3562.39,0.02131
3539.25,0.02217
3516.1,0.02096
3492.96,0.02139
3469.81,0.02133
3446.67,0.02115
3423.52,0.02095
3400.38,0.02090
3377.23,0.02098
3354.09,0.02083
3330.94,0.02036
3307.8,0.02039
3284.65,0.02040
3261.51,0.02100
3238.36,0.02117
3215.22,0.02108
3192.07,0.02009
3168.93,0.02109
3145.78,0.02122
3122.64,0.02138
3099.49,0.02065
3076.35,0.02034
3053.2,0.02150
3030.06,0.02114
3006.91,0.02034
2983.77,0.01990
2960.62,0.01979
2937.48,0.01998
2914.33,0.02060
2891.19,0.02009
2868.04,0.02073
2844.9,0.02121
2821.75,0.02088
2798.61,0.02156
2775.46,0.02103
2752.32,0.02094
2729.17,0.02108
2706.03,0.02162
2682.88,0.02133
2659.74,0.02147
2636.59,0.02170
2613.45,0.02134
2590.3,0.02146
2567.16,0.02149
2544.02,0.02186
2520.87,0.02131
2497.73,0.02140
2474.58,0.02126
2451.44,0.02152
2428.29,0.02170
2405.15,0.02099
2382,0.02137
2358.86,0.02153
2335.71,0.02139
2312.57,0.02127
2289.42,0.02131
2266.28,0.02076
2243.13,0.02123
2219.99,0.02095
2196.84,0.02100
2173.7,0.02106
2150.55,0.02129
2127.41,0.02110
2104.26,0.02092
2081.12,0.02096
2057.97,0.02072
2034.83,0.02112
2011.68,0.02071
1988.54,0.02107
1965.39,0.02112
1942.25,0.02073
1919.1,0.02096
1895.96,0.02060
1872.81,0.02059
1849.67,0.02035
1826.52,0.02009
1803.38,0.01977
1780.23,0.01943
1757.09,0.01748
1733.94,0.01947
1710.8,0.02047
1687.65,0.01900
1664.51,0.01847
1641.36,0.01871
1618.22,0.01889
1595.07,0.01904
1571.93,0.01849
1548.78,0.01836
1525.64,0.01852
1502.49,0.01875
1479.35,0.01818
1456.2,0.01856
1433.06,0.01893
1409.91,0.01859
1386.77,0.01821
1363.62,0.01846
1340.48,0.01768
1317.33,0.01742
1294.19,0.01783
1271.04,0.01942
1247.9,0.02050
1224.75,0.01931
1201.61,0.01857
1178.46,0.01864
1155.32,0.01798
1132.17,0.01822
1109.03,0.01865
1085.88,0.01831
1062.74,0.01964
1039.59,0.02001
1016.45,0.02037
993.304,0.02090
970.159,0.02042
947.014,0.01970
923.869,0.01935
900.724,0.01882
877.579,0.01882
854.434,0.01893
831.289,0.01923
808.144,0.01881
784.999,0.01892
761.854,0.01869
738.709,0.01836
715.565,0.01845
692.42,0.01740
669.275,0.01672
646.13,0.01647
622.985,0.01455
599.84,0.01583