Folder: fsri_materials_database/01_Data/Rebond_Foam_Carpet_Pad/FTIR/IS

Note: README.md
# Materials and Products Database
### Repository of materials and products properties and fire test data to improve fire modeling and fire investigation.

This project was supported in part by Award No. 2019-DU-BX-0018, awarded by the National Institute of Justice, Office of Justice Programs, U.S. Department of Justice. The opinions, findings, and conclusions or recommendations expressed in this publication / program / exhibition are those of the author(s) and do not necessarily reflect those of the Department of Justice.

***
***

__Cite this database:__ "McKinnon, M., Weinschenk, C., Dow, N., DiDomizio, M., and Madrzykowski, D. Materials and Products Database (Version 1.0.0), Fire Safety Research Institute, UL Research Institutes. Columbia, MD 21045, 2023."

__Cite the Technical Reference Guide:__ "McKinnon, M., Weinschenk, C., and Madrzykowski, D. Materials and Products Database - Technical Reference Guide, Fire Safety Research Institute, UL Research Institutes. Columbia, MD 21045, 2023."

__Cite the User Guide:__ "McKinnon, M., and Weinschenk, C. Materials and Products Database - User Guide, Fire Safety Research Institute, UL Research Institutes. Columbia, MD 21045, 2023."

***
***

## Database Structure

## 01_Data/
Raw data generated from each apparatus are included here in plain-text format. The data is organized first by material, next by the short name of test apparatus used, and where applicable additional filtering by test settings.

### Test Apparatus and Data File Structure
- __Cone Calorimeter__ (Cone)
    + Data file structure includes the material, the short name for the apparatus, heat flux setting and scan/scalar, date of test, and replicate number. Scan is for the raw output data and scalar is for the initial conditions and high-level test parameters. 
        * Example: __MDF_Cone_HF25scalar_210323_R1__ stands for the first replicate of scalar data generated from a medium density fiber board test in cone calorimeter exposed to 25 kW/m<sup>2</sup> on March 23, 2021.
    + A _Cone_Notes.csv_ is generated for each material from the __plot_Cone_data.py__ script. For materials whose experiments deviated from typical behavior relevant pictures are included in the respective material directory.
- __Fourier Transform Infrared Spectrometer__ (FTIR)
    + The FTIR directory contains subdirectories for the Attenuated Total Reflectance method (ATR) and the Integrating Sphere (IS)
    + Data file structure for the ATR experiment files includes the material, the abbreviated name for the apparatus, date of test, and replicate number. 
        * Example: __MDF_ATR_210323_R5__ stands for the fifth replicate of data collected with the ATR accessory conducted on June 8, 2021.
    + Data file structure for the IS experiment files includes the material, the abbreviated name for the apparatus, the measurand, whether the test is a sample measurement or standard reference, date of test, and replicate number.
        * Example: __OSB_IS_REFLECT_MEAS_2

File: Rebond_Foam_Carpet_Pad_IS_S_220913_R1.dpt
7497.03,0.09730
7473.89,0.09488
7450.74,0.08768
7427.6,0.09928
7404.45,0.08868
7381.31,0.09139
7358.16,0.10471
7335.02,0.09875
7311.87,0.09643
7288.73,0.09754
7265.58,0.09116
7242.44,0.09247
7219.29,0.08807
7196.15,0.09355
7173,0.09480
7149.86,0.09161
7126.71,0.09410
7103.57,0.09426
7080.42,0.08948
7057.28,0.09586
7034.13,0.09132
7010.99,0.09410
6987.84,0.09823
6964.7,0.09474
6941.55,0.09498
6918.41,0.09535
6895.26,0.10293
6872.12,0.09562
6848.97,0.09680
6825.83,0.09640
6802.68,0.09432
6779.54,0.09312
6756.39,0.09171
6733.25,0.09159
6710.1,0.09669
6686.96,0.09311
6663.82,0.08909
6640.67,0.09487
6617.53,0.09243
6594.38,0.09315
6571.24,0.09503
6548.09,0.09520
6524.95,0.09700
6501.8,0.09494
6478.66,0.09461
6455.51,0.09309
6432.37,0.09550
6409.22,0.09375
6386.08,0.09833
6362.93,0.09662
6339.79,0.09854
6316.64,0.09521
6293.5,0.09603
6270.35,0.09778
6247.21,0.09434
6224.06,0.09750
6200.92,0.09456
6177.77,0.09894
6154.63,0.09792
6131.48,0.09509
6108.34,0.09644
6085.19,0.09527
6062.05,0.09524
6038.9,0.09454
6015.76,0.09122
5992.61,0.09435
5969.47,0.09376
5946.32,0.08988
5923.18,0.09162
5900.03,0.09034
5876.89,0.09237
5853.74,0.09212
5830.6,0.09328
5807.45,0.09054
5784.31,0.09051
5761.16,0.08908
5738.02,0.08974
5714.87,0.09222
5691.73,0.09389
5668.58,0.09383
5645.44,0.09587
5622.29,0.09660
5599.15,0.09626
5576,0.09756
5552.86,0.09862
5529.71,0.09764
5506.57,0.09560
5483.42,0.09707
5460.28,0.09941
5437.13,0.09950
5413.99,0.10059
5390.84,0.09922
5367.7,0.10048
5344.55,0.10082
5321.41,0.10118
5298.26,0.10029
5275.12,0.09929
5251.97,0.09910
5228.83,0.09766
5205.68,0.09837
5182.54,0.09882
5159.39,0.09987
5136.25,0.09919
5113.1,0.10027
5089.96,0.09917
5066.81,0.10016
5043.67,0.09827
5020.52,0.10004
4997.38,0.09740
4974.23,0.09541
4951.09,0.09502
4927.94,0.09478
4904.8,0.09324
4881.65,0.09233
4858.51,0.09293
4835.36,0.09476
4812.22,0.09326
4789.07,0.09590
4765.93,0.09677
4742.78,0.09745
4719.64,0.09602
4696.49,0.09416
4673.35,0.09383
4650.2,0.09350
4627.06,0.09322
4603.92,0.09351
4580.77,0.09516
4557.63,0.09392
4534.48,0.09428
4511.34,0.09558
4488.19,0.09391
4465.05,0.09024
4441.9,0.08387
4418.76,0.07754
4395.61,0.07630
4372.47,0.07358
4349.32,0.07191
4326.18,0.07184
4303.03,0.07484
4279.89,0.07665
4256.74,0.07642
4233.6,0.07669
4210.45,0.07925
4187.31,0.07951
4164.16,0.08011
4141.02,0.08075
4117.87,0.07978
4094.73,0.07870
4071.58,0.07571
4048.44,0.07471
4025.29,0.07455
4002.15,0.07530
3979,0.07724
3955.86,0.08038
3932.71,0.08363
3909.57,0.08543
3886.42,0.08628
3863.28,0.08770
3840.13,0.08935
3816.99,0.09088
3793.84,0.09115
3770.7,0.09272
3747.55,0.09411
3724.41,0.09480
3701.26,0.09300
3678.12,0.08556
3654.97,0.07475
3631.83,0.06775
3608.68,0.06479
3585.54,0.06205
3562.39,0.05929
3539.25,0.05617
3516.1,0.05498
3492.96,0.05363
3469.81,0.05086
3446.67,0.04643
3423.52,0.04248
3400.38,0.03718
3377.23,0.03320
3354.09,0.03012
3330.94,0.02984
3307.8,0.02920
3284.65,0.02922
3261.51,0.03137
3238.36,0.03344
3215.22,0.03502
3192.07,0.03646
3168.93,0.03951
3145.78,0.03992
3122.64,0.03989
3099.49,0.04022
3076.35,0.03785
3053.2,0.03700
3030.06,0.03461
3006.91,0.03559
2983.77,0.02843
2960.62,0.02760
2937.48,0.02709
2914.33,0.02764
2891.19,0.02841
2868.04,0.02882
2844.9,0.03287
2821.75,0.03939
2798.61,0.04327
2775.46,0.04624
2752.32,0.04935
2729.17,0.05242
2706.03,0.05760
2682.88,0.06396
2659.74,0.06683
2636.59,0.06913
2613.45,0.07228
2590.3,0.07103
2567.16,0.07424
2544.02,0.07686
2520.87,0.07809
2497.73,0.07916
2474.58,0.08088
2451.44,0.08220
2428.29,0.08380
2405.15,0.08315
2382,0.08252
2358.86,0.08345
2335.71,0.08188
2312.57,0.07979
2289.42,0.07518
2266.28,0.07290
2243.13,0.06453
2219.99,0.07757
2196.84,0.07966
2173.7,0.08100
2150.55,0.08104
2127.41,0.08119
2104.26,0.08062
2081.12,0.07887
2057.97,0.07783
2034.83,0.07631
2011.68,0.07397
1988.54,0.07218
1965.39,0.06963
1942.25,0.06980
1919.1,0.07161
1895.96,0.06865
1872.81,0.06880
1849.67,0.06993
1826.52,0.06340
1803.38,0.05572
1780.23,0.04946
1757.09,0.03753
1733.94,0.02651
1710.8,0.02754
1687.65,0.02775
1664.51,0.02680
1641.36,0.02652
1618.22,0.02786
1595.07,0.02663
1571.93,0.02678
1548.78,0.02439
1525.64,0.02744
1502.49,0.02854
1479.35,0.02853
1456.2,0.02652
1433.06,0.02984
1409.91,0.02882
1386.77,0.02881
1363.62,0.02975
1340.48,0.02848
1317.33,0.02656
1294.19,0.02666
1271.04,0.02634
1247.9,0.02546
1224.75,0.02582
1201.61,0.02756
1178.46,0.02683
1155.32,0.02559
1132.17,0.02495
1109.03,0.02835
1085.88,0.03048
1062.74,0.03209
1039.59,0.03256
1016.45,0.03335
993.304,0.03628
970.159,0.03757
947.014,0.03836
923.869,0.03593
900.724,0.03904
877.579,0.03662
854.434,0.03782
831.289,0.03568
808.144,0.03529
784.999,0.03638
761.854,0.03224
738.709,0.03741
715.565,0.03432
692.42,0.03392
669.275,0.03425
646.13,0.03547
622.985,0.03853
599.84,0.03503

File: Rebond_Foam_Carpet_Pad_IS_S_220913_R2.dpt
7497.03,0.10227
7473.89,0.08868
7450.74,0.08982
7427.6,0.09536
7404.45,0.09583
7381.31,0.09210
7358.16,0.08558
7335.02,0.09728
7311.87,0.09250
7288.73,0.09130
7265.58,0.09359
7242.44,0.08887
7219.29,0.09380
7196.15,0.08969
7173,0.09409
7149.86,0.09238
7126.71,0.09818
7103.57,0.09570
7080.42,0.09392
7057.28,0.09309
7034.13,0.08787
7010.99,0.09543
6987.84,0.09651
6964.7,0.09418
6941.55,0.09409
6918.41,0.08912
6895.26,0.09087
6872.12,0.09572
6848.97,0.09474
6825.83,0.09243
6802.68,0.09549
6779.54,0.09543
6756.39,0.09174
6733.25,0.09430
6710.1,0.09015
6686.96,0.09683
6663.82,0.09613
6640.67,0.09705
6617.53,0.09479
6594.38,0.09807
6571.24,0.09328
6548.09,0.09571
6524.95,0.09277
6501.8,0.09193
6478.66,0.09845
6455.51,0.09747
6432.37,0.09775
6409.22,0.09454
6386.08,0.09515
6362.93,0.09445
6339.79,0.09587
6316.64,0.09663
6293.5,0.09504
6270.35,0.09679
6247.21,0.09568
6224.06,0.09488
6200.92,0.09549
6177.77,0.09892
6154.63,0.09729
6131.48,0.09825
6108.34,0.09640
6085.19,0.09526
6062.05,0.09479
6038.9,0.09181
6015.76,0.09484
5992.61,0.09614
5969.47,0.09106
5946.32,0.09119
5923.18,0.09250
5900.03,0.08983
5876.89,0.09058
5853.74,0.08897
5830.6,0.09194
5807.45,0.09229
5784.31,0.09272
5761.16,0.08975
5738.02,0.09130
5714.87,0.09106
5691.73,0.09260
5668.58,0.09131
5645.44,0.09307
5622.29,0.09520
5599.15,0.09720
5576,0.09625
5552.86,0.09557
5529.71,0.09773
5506.57,0.09600
5483.42,0.09559
5460.28,0.09858
5437.13,0.09742
5413.99,0.09971
5390.84,0.09982
5367.7,0.09975
5344.55,0.09990
5321.41,0.09961
5298.26,0.09881
5275.12,0.09717
5251.97,0.09791
5228.83,0.09933
5205.68,0.09945
5182.54,0.09876
5159.39,0.09844
5136.25,0.09888
5113.1,0.09911
5089.96,0.09961
5066.81,0.09995
5043.67,0.09835
5020.52,0.09833
4997.38,0.09887
4974.23,0.09543
4951.09,0.09370
4927.94,0.09371
4904.8,0.09273
4881.65,0.09267
4858.51,0.09248
4835.36,0.09356
4812.22,0.09386
4789.07,0.09526
4765.93,0.09771
4742.78,0.09492
4719.64,0.09508
4696.49,0.09333
4673.35,0.09192
4650.2,0.09213
4627.06,0.09220
4603.92,0.09355
4580.77,0.09316
4557.63,0.09308
4534.48,0.09461
4511.34,0.09317
4488.19,0.09334
4465.05,0.08992
4441.9,0.08357
4418.76,0.07673
4395.61,0.07653
4372.47,0.07336
4349.32,0.07058
4326.18,0.07140
4303.03,0.07438
4279.89,0.07488
4256.74,0.07594
4233.6,0.07646
4210.45,0.07839
4187.31,0.07913
4164.16,0.08037
4141.02,0.07992
4117.87,0.08037
4094.73,0.07802
4071.58,0.07572
4048.44,0.07374
4025.29,0.07429
4002.15,0.07498
3979,0.07755
3955.86,0.08054
3932.71,0.08299
3909.57,0.08478
3886.42,0.08643
3863.28,0.08777
3840.13,0.08953
3816.99,0.09037
3793.84,0.09079
3770.7,0.09197
3747.55,0.09434
3724.41,0.09444
3701.26,0.09338
3678.12,0.08910
3654.97,0.07987
3631.83,0.07424
3608.68,0.07037
3585.54,0.06780
3562.39,0.06528
3539.25,0.06183
3516.1,0.05953
3492.96,0.05749
3469.81,0.05300
3446.67,0.04796
3423.52,0.04349
3400.38,0.03654
3377.23,0.03211
3354.09,0.03069
3330.94,0.02981
3307.8,0.02949
3284.65,0.02947
3261.51,0.03031
3238.36,0.03269
3215.22,0.03562
3192.07,0.03660
3168.93,0.03919
3145.78,0.04054
3122.64,0.04005
3099.49,0.03970
3076.35,0.03798
3053.2,0.03660
3030.06,0.03446
3006.91,0.03518
2983.77,0.02795
2960.62,0.02812
2937.48,0.02682
2914.33,0.02778
2891.19,0.02796
2868.04,0.02811
2844.9,0.03224
2821.75,0.03905
2798.61,0.04270
2775.46,0.04621
2752.32,0.04881
2729.17,0.05194
2706.03,0.05746
2682.88,0.06320
2659.74,0.06609
2636.59,0.06850
2613.45,0.07157
2590.3,0.07039
2567.16,0.07392
2544.02,0.07662
2520.87,0.07774
2497.73,0.07872
2474.58,0.08044
2451.44,0.08183
2428.29,0.08324
2405.15,0.08289
2382,0.08187
2358.86,0.08074
2335.71,0.07976
2312.57,0.07907
2289.42,0.07456
2266.28,0.07207
2243.13,0.06416
2219.99,0.07700
2196.84,0.07959
2173.7,0.08071
2150.55,0.08102
2127.41,0.08093
2104.26,0.08053
2081.12,0.07882
2057.97,0.07791
2034.83,0.07608
2011.68,0.07362
1988.54,0.07202
1965.39,0.06910
1942.25,0.06900
1919.1,0.07083
1895.96,0.06825
1872.81,0.06821
1849.67,0.06952
1826.52,0.06308
1803.38,0.05570
1780.23,0.04898
1757.09,0.03716
1733.94,0.02657
1710.8,0.02739
1687.65,0.02766
1664.51,0.02648
1641.36,0.02632
1618.22,0.02747
1595.07,0.02675
1571.93,0.02664
1548.78,0.02458
1525.64,0.02720
1502.49,0.02873
1479.35,0.02874
1456.2,0.02684
1433.06,0.03006
1409.91,0.02845
1386.77,0.02846
1363.62,0.02977
1340.48,0.02808
1317.33,0.02677
1294.19,0.02617
1271.04,0.02616
1247.9,0.02529
1224.75,0.02584
1201.61,0.02766
1178.46,0.02685
1155.32,0.02540
1132.17,0.02522
1109.03,0.02814
1085.88,0.03032
1062.74,0.03196
1039.59,0.03283
1016.45,0.03280
993.304,0.03602
970.159,0.03743
947.014,0.03791
923.869,0.03579
900.724,0.03920
877.579,0.03583
854.434,0.03698
831.289,0.03587
808.144,0.03602
784.999,0.03582
761.854,0.03176
738.709,0.03782
715.565,0.03489
692.42,0.03540
669.275,0.03534
646.13,0.03797
622.985,0.03782
599.84,0.03556

File: Rebond_Foam_Carpet_Pad_IS_S_220913_R3.dpt
7497.03,0.08352
7473.89,0.09017
7450.74,0.10320
7427.6,0.10331
7404.45,0.08960
7381.31,0.09727
7358.16,0.08427
7335.02,0.09412
7311.87,0.09501
7288.73,0.09194
7265.58,0.09156
7242.44,0.09838
7219.29,0.09810
7196.15,0.08632
7173,0.08637
7149.86,0.08960
7126.71,0.09157
7103.57,0.09612
7080.42,0.09193
7057.28,0.09333
7034.13,0.08973
7010.99,0.09040
6987.84,0.09053
6964.7,0.09120
6941.55,0.09700
6918.41,0.08734
6895.26,0.09572
6872.12,0.09485
6848.97,0.09347
6825.83,0.09606
6802.68,0.09627
6779.54,0.09826
6756.39,0.09190
6733.25,0.09548
6710.1,0.09060
6686.96,0.09642
6663.82,0.09577
6640.67,0.09317
6617.53,0.09170
6594.38,0.09815
6571.24,0.09156
6548.09,0.09650
6524.95,0.09510
6501.8,0.09567
6478.66,0.09534
6455.51,0.09416
6432.37,0.09720
6409.22,0.09619
6386.08,0.09645
6362.93,0.09741
6339.79,0.09422
6316.64,0.09639
6293.5,0.09502
6270.35,0.09699
6247.21,0.09335
6224.06,0.09616
6200.92,0.09518
6177.77,0.09604
6154.63,0.09449
6131.48,0.09572
6108.34,0.09313
6085.19,0.09564
6062.05,0.09485
6038.9,0.09554
6015.76,0.09419
5992.61,0.09270
5969.47,0.09538
5946.32,0.08977
5923.18,0.09172
5900.03,0.09156
5876.89,0.09193
5853.74,0.09177
5830.6,0.09180
5807.45,0.09136
5784.31,0.09107
5761.16,0.09051
5738.02,0.09151
5714.87,0.09299
5691.73,0.09222
5668.58,0.09451
5645.44,0.09377
5622.29,0.09251
5599.15,0.09664
5576,0.09667
5552.86,0.09492
5529.71,0.09739
5506.57,0.09661
5483.42,0.09748
5460.28,0.09699
5437.13,0.09928
5413.99,0.09835
5390.84,0.09967
5367.7,0.09895
5344.55,0.10162
5321.41,0.10043
5298.26,0.10038
5275.12,0.09800
5251.97,0.09903
5228.83,0.09769
5205.68,0.09867
5182.54,0.09980
5159.39,0.09958
5136.25,0.09870
5113.1,0.09861
5089.96,0.09800
5066.81,0.10007
5043.67,0.09880
5020.52,0.09813
4997.38,0.09824
4974.23,0.09764
4951.09,0.09458
4927.94,0.09307
4904.8,0.09366
4881.65,0.09171
4858.51,0.09104
4835.36,0.09296
4812.22,0.09641
4789.07,0.09577
4765.93,0.09664
4742.78,0.09769
4719.64,0.09378
4696.49,0.09451
4673.35,0.09208
4650.2,0.09218
4627.06,0.09047
4603.92,0.09387
4580.77,0.09356
4557.63,0.09496
4534.48,0.09535
4511.34,0.09458
4488.19,0.09329
4465.05,0.09076
4441.9,0.08438
4418.76,0.07803
4395.61,0.07630
4372.47,0.07355
4349.32,0.07127
4326.18,0.07195
4303.03,0.07410
4279.89,0.07568
4256.74,0.07571
4233.6,0.07713
4210.45,0.07879
4187.31,0.08005
4164.16,0.07965
4141.02,0.08010
4117.87,0.07935
4094.73,0.07858
4071.58,0.07571
4048.44,0.07442
4025.29,0.07435
4002.15,0.07507
3979,0.07743
3955.86,0.08075
3932.71,0.08325
3909.57,0.08572
3886.42,0.08662
3863.28,0.08771
3840.13,0.08894
3816.99,0.08984
3793.84,0.09108
3770.7,0.09331
3747.55,0.09429
3724.41,0.09472
3701.26,0.09358
3678.12,0.09150
3654.97,0.08359
3631.83,0.07881
3608.68,0.07519
3585.54,0.07294
3562.39,0.06933
3539.25,0.06571
3516.1,0.06236
3492.96,0.06006
3469.81,0.05507
3446.67,0.04984
3423.52,0.04413
3400.38,0.03771
3377.23,0.03211
3354.09,0.03038
3330.94,0.02986
3307.8,0.02917
3284.65,0.02969
3261.51,0.03051
3238.36,0.03293
3215.22,0.03540
3192.07,0.03652
3168.93,0.03977
3145.78,0.04015
3122.64,0.04043
3099.49,0.04067
3076.35,0.03805
3053.2,0.03698
3030.06,0.03483
3006.91,0.03511
2983.77,0.02883
2960.62,0.02789
2937.48,0.02664
2914.33,0.02736
2891.19,0.02858
2868.04,0.02870
2844.9,0.03202
2821.75,0.03928
2798.61,0.04300
2775.46,0.04656
2752.32,0.04903
2729.17,0.05189
2706.03,0.05764
2682.88,0.06321
2659.74,0.06681
2636.59,0.06891
2613.45,0.07188
2590.3,0.07073
2567.16,0.07407
2544.02,0.07660
2520.87,0.07790
2497.73,0.07832
2474.58,0.08026
2451.44,0.08194
2428.29,0.08358
2405.15,0.08301
2382,0.08223
2358.86,0.08124
2335.71,0.08036
2312.57,0.07873
2289.42,0.07494
2266.28,0.07231
2243.13,0.06439
2219.99,0.07730
2196.84,0.08002
2173.7,0.08098
2150.55,0.08122
2127.41,0.08101
2104.26,0.08105
2081.12,0.07931
2057.97,0.07797
2034.83,0.07642
2011.68,0.07414
1988.54,0.07184
1965.39,0.06994
1942.25,0.06957
1919.1,0.07087
1895.96,0.06863
1872.81,0.06857
1849.67,0.06958
1826.52,0.06300
1803.38,0.05570
1780.23,0.04965
1757.09,0.03752
1733.94,0.02640
1710.8,0.02761
1687.65,0.02763
1664.51,0.02703
1641.36,0.02670
1618.22,0.02780
1595.07,0.02619
1571.93,0.02639
1548.78,0.02433
1525.64,0.02716
1502.49,0.02875
1479.35,0.02861
1456.2,0.02669
1433.06,0.03031
1409.91,0.02865
1386.77,0.02828
1363.62,0.02966
1340.48,0.02830
1317.33,0.02627
1294.19,0.02640
1271.04,0.02629
1247.9,0.02571
1224.75,0.02645
1201.61,0.02721
1178.46,0.02682
1155.32,0.02551
1132.17,0.02509
1109.03,0.02876
1085.88,0.03013
1062.74,0.03122
1039.59,0.03300
1016.45,0.03281
993.304,0.03565
970.159,0.03741
947.014,0.03881
923.869,0.03597
900.724,0.03887
877.579,0.03604
854.434,0.03719
831.289,0.03682
808.144,0.03531
784.999,0.03668
761.854,0.03078
738.709,0.03719
715.565,0.03454
692.42,0.03582
669.275,0.03460
646.13,0.03748
622.985,0.03649
599.84,0.03638

File: Rebond_Foam_Carpet_Pad_IS_S_220913_R4.dpt
7497.03,0.08893
7473.89,0.08973
7450.74,0.09267
7427.6,0.09340
7404.45,0.09124
7381.31,0.09605
7358.16,0.09487
7335.02,0.09806
7311.87,0.09139
7288.73,0.09244
7265.58,0.08943
7242.44,0.09747
7219.29,0.09849
7196.15,0.09531
7173,0.09336
7149.86,0.08893
7126.71,0.09098
7103.57,0.09269
7080.42,0.09026
7057.28,0.09609
7034.13,0.09672
7010.99,0.09386
6987.84,0.09053
6964.7,0.09421
6941.55,0.09616
6918.41,0.09167
6895.26,0.09263
6872.12,0.09524
6848.97,0.09438
6825.83,0.09319
6802.68,0.09327
6779.54,0.09320
6756.39,0.09587
6733.25,0.09303
6710.1,0.09208
6686.96,0.09704
6663.82,0.09425
6640.67,0.09262
6617.53,0.09466
6594.38,0.09042
6571.24,0.09539
6548.09,0.09857
6524.95,0.09363
6501.8,0.09249
6478.66,0.09398
6455.51,0.09199
6432.37,0.08886
6409.22,0.09584
6386.08,0.09650
6362.93,0.09329
6339.79,0.09581
6316.64,0.09460
6293.5,0.09394
6270.35,0.09764
6247.21,0.09386
6224.06,0.09647
6200.92,0.09939
6177.77,0.09796
6154.63,0.09716
6131.48,0.09577
6108.34,0.09390
6085.19,0.09581
6062.05,0.09576
6038.9,0.09676
6015.76,0.09830
5992.61,0.09508
5969.47,0.09282
5946.32,0.09140
5923.18,0.09131
5900.03,0.09004
5876.89,0.09176
5853.74,0.09005
5830.6,0.09055
5807.45,0.08766
5784.31,0.09018
5761.16,0.09066
5738.02,0.09162
5714.87,0.09095
5691.73,0.09255
5668.58,0.09395
5645.44,0.09315
5622.29,0.09570
5599.15,0.09787
5576,0.09441
5552.86,0.09479
5529.71,0.09652
5506.57,0.09669
5483.42,0.09679
5460.28,0.09824
5437.13,0.09859
5413.99,0.09986
5390.84,0.10047
5367.7,0.10006
5344.55,0.09947
5321.41,0.10091
5298.26,0.10093
5275.12,0.09996
5251.97,0.10015
5228.83,0.09932
5205.68,0.10106
5182.54,0.09935
5159.39,0.09956
5136.25,0.10005
5113.1,0.10008
5089.96,0.09922
5066.81,0.09986
5043.67,0.09921
5020.52,0.09791
4997.38,0.09731
4974.23,0.09539
4951.09,0.09703
4927.94,0.09466
4904.8,0.09155
4881.65,0.09276
4858.51,0.09232
4835.36,0.09433
4812.22,0.09506
4789.07,0.09577
4765.93,0.09680
4742.78,0.09673
4719.64,0.09571
4696.49,0.09403
4673.35,0.09210
4650.2,0.09290
4627.06,0.09177
4603.92,0.09325
4580.77,0.09355
4557.63,0.09432
4534.48,0.09466
4511.34,0.09437
4488.19,0.09368
4465.05,0.09077
4441.9,0.08472
4418.76,0.07790
4395.61,0.07611
4372.47,0.07444
4349.32,0.07182
4326.18,0.07194
4303.03,0.07472
4279.89,0.07591
4256.74,0.07565
4233.6,0.07689
4210.45,0.07933
4187.31,0.08031
4164.16,0.07955
4141.02,0.08001
4117.87,0.07993
4094.73,0.07811
4071.58,0.07639
4048.44,0.07405
4025.29,0.07465
4002.15,0.07483
3979,0.07801
3955.86,0.08063
3932.71,0.08309
3909.57,0.08506
3886.42,0.08659
3863.28,0.08773
3840.13,0.08913
3816.99,0.09023
3793.84,0.09187
3770.7,0.09412
3747.55,0.09465
3724.41,0.09595
3701.26,0.09496
3678.12,0.09327
3654.97,0.08601
3631.83,0.08181
3608.68,0.07843
3585.54,0.07569
3562.39,0.07284
3539.25,0.06882
3516.1,0.06452
3492.96,0.06245
3469.81,0.05738
3446.67,0.05037
3423.52,0.04375
3400.38,0.03684
3377.23,0.03268
3354.09,0.03093
3330.94,0.03001
3307.8,0.02969
3284.65,0.03018
3261.51,0.03059
3238.36,0.03355
3215.22,0.03546
3192.07,0.03711
3168.93,0.03938
3145.78,0.04034
3122.64,0.04057
3099.49,0.03976
3076.35,0.03846
3053.2,0.03744
3030.06,0.03481
3006.91,0.03555
2983.77,0.02870
2960.62,0.02800
2937.48,0.02688
2914.33,0.02779
2891.19,0.02851
2868.04,0.02769
2844.9,0.03254
2821.75,0.03933
2798.61,0.04291
2775.46,0.04626
2752.32,0.04949
2729.17,0.05233
2706.03,0.05792
2682.88,0.06334
2659.74,0.06665
2636.59,0.06859
2613.45,0.07220
2590.3,0.07091
2567.16,0.07416
2544.02,0.07702
2520.87,0.07794
2497.73,0.07930
2474.58,0.08064
2451.44,0.08249
2428.29,0.08351
2405.15,0.08281
2382,0.08200
2358.86,0.08152
2335.71,0.08031
2312.57,0.07910
2289.42,0.07538
2266.28,0.07243
2243.13,0.06432
2219.99,0.07762
2196.84,0.07997
2173.7,0.08090
2150.55,0.08126
2127.41,0.08121
2104.26,0.08071
2081.12,0.07976
2057.97,0.07840
2034.83,0.07619
2011.68,0.07454
1988.54,0.07241
1965.39,0.06954
1942.25,0.06988
1919.1,0.07175
1895.96,0.06865
1872.81,0.06864
1849.67,0.06958
1826.52,0.06299
1803.38,0.05594
1780.23,0.04950
1757.09,0.03736
1733.94,0.02629
1710.8,0.02767
1687.65,0.02789
1664.51,0.02634
1641.36,0.02606
1618.22,0.02802
1595.07,0.02659
1571.93,0.02676
1548.78,0.02423
1525.64,0.02718
1502.49,0.02816
1479.35,0.02859
1456.2,0.02711
1433.06,0.02985
1409.91,0.02894
1386.77,0.02839
1363.62,0.02959
1340.48,0.02821
1317.33,0.02664
1294.19,0.02621
1271.04,0.02636
1247.9,0.02606
1224.75,0.02652
1201.61,0.02739
1178.46,0.02701
1155.32,0.02552
1132.17,0.02502
1109.03,0.02822
1085.88,0.03047
1062.74,0.03181
1039.59,0.03290
1016.45,0.03296
993.304,0.03592
970.159,0.03713
947.014,0.03810
923.869,0.03564
900.724,0.03914
877.579,0.03600
854.434,0.03689
831.289,0.03645
808.144,0.03513
784.999,0.03651
761.854,0.03186
738.709,0.03764
715.565,0.03441
692.42,0.03454
669.275,0.03650
646.13,0.03850
622.985,0.03779
599.84,0.03597