Folder: fsri_materials_database/01_Data/Nylon_Carpet_Low_Pile/FTIR/IS/Deprecated

Note: README.md
# Materials and Products Database
### Repository of materials and products properties and fire test data to improve fire modeling and fire investigation.

This project was supported in part by Award No. 2019-DU-BX-0018, awarded by the National Institute of Justice, Office of Justice Programs, U.S. Department of Justice. The opinions, findings, and conclusions or recommendations expressed in this publication / program / exhibition are those of the author(s) and do not necessarily reflect those of the Department of Justice.

***
***

__Cite this database:__ "McKinnon, M., Weinschenk, C., Dow, N., DiDomizio, M., and Madrzykowski, D. Materials and Products Database (Version 1.0.0), Fire Safety Research Institute, UL Research Institutes. Columbia, MD 21045, 2023."

__Cite the Technical Reference Guide:__ "McKinnon, M., Weinschenk, C., and Madrzykowski, D. Materials and Products Database - Technical Reference Guide, Fire Safety Research Institute, UL Research Institutes. Columbia, MD 21045, 2023."

__Cite the User Guide:__ "McKinnon, M., and Weinschenk, C. Materials and Products Database - User Guide, Fire Safety Research Institute, UL Research Institutes. Columbia, MD 21045, 2023."

***
***

## Database Structure

## 01_Data/
Raw data generated from each apparatus are included here in plain-text format. The data is organized first by material, next by the short name of test apparatus used, and where applicable additional filtering by test settings.

### Test Apparatus and Data File Structure
- __Cone Calorimeter__ (Cone)
    + Data file structure includes the material, the short name for the apparatus, heat flux setting and scan/scalar, date of test, and replicate number. Scan is for the raw output data and scalar is for the initial conditions and high-level test parameters. 
        * Example: __MDF_Cone_HF25scalar_210323_R1__ stands for the first replicate of scalar data generated from a medium density fiber board test in cone calorimeter exposed to 25 kW/m<sup>2</sup> on March 23, 2021.
    + A _Cone_Notes.csv_ is generated for each material from the __plot_Cone_data.py__ script. For materials whose experiments deviated from typical behavior relevant pictures are included in the respective material directory.
- __Fourier Transform Infrared Spectrometer__ (FTIR)
    + The FTIR directory contains subdirectories for the Attenuated Total Reflectance method (ATR) and the Integrating Sphere (IS)
    + Data file structure for the ATR experiment files includes the material, the abbreviated name for the apparatus, date of test, and replicate number. 
        * Example: __MDF_ATR_210323_R5__ stands for the fifth replicate of data collected with the ATR accessory conducted on June 8, 2021.
    + Data file structure for the IS experiment files includes the material, the abbreviated name for the apparatus, the measurand, whether the test is a sample measurement or standard reference, date of test, and replicate number.
        * Example: __OSB_IS_REFLECT_MEAS_2

File: Nylon_Carpet_Low_Pile_IS_T_221122_R10.dpt
7497.03,0.02496
7473.89,0.02514
7450.74,0.02009
7427.6,0.02087
7404.45,0.02858
7381.31,0.02159
7358.16,0.03070
7335.02,0.02490
7311.87,0.02537
7288.73,0.03673
7265.58,0.02387
7242.44,0.02929
7219.29,0.03189
7196.15,0.02241
7173,0.02507
7149.86,0.01978
7126.71,0.02492
7103.57,0.02095
7080.42,0.02803
7057.28,0.02444
7034.13,0.01669
7010.99,0.02326
6987.84,0.02208
6964.7,0.01811
6941.55,0.01737
6918.41,0.02552
6895.26,0.02108
6872.12,0.02168
6848.97,0.02612
6825.83,0.02506
6802.68,0.02525
6779.54,0.02740
6756.39,0.02567
6733.25,0.02252
6710.1,0.01852
6686.96,0.02347
6663.82,0.02362
6640.67,0.02398
6617.53,0.01761
6594.38,0.02009
6571.24,0.01927
6548.09,0.02791
6524.95,0.02284
6501.8,0.02166
6478.66,0.01632
6455.51,0.02035
6432.37,0.02152
6409.22,0.02378
6386.08,0.02085
6362.93,0.02355
6339.79,0.02451
6316.64,0.01950
6293.5,0.02153
6270.35,0.02387
6247.21,0.02156
6224.06,0.02416
6200.92,0.02296
6177.77,0.02210
6154.63,0.02016
6131.48,0.02378
6108.34,0.02156
6085.19,0.02323
6062.05,0.02351
6038.9,0.02186
6015.76,0.02160
5992.61,0.02120
5969.47,0.02140
5946.32,0.02083
5923.18,0.01708
5900.03,0.02201
5876.89,0.02025
5853.74,0.02138
5830.6,0.01902
5807.45,0.01899
5784.31,0.02189
5761.16,0.02298
5738.02,0.02061
5714.87,0.02379
5691.73,0.02321
5668.58,0.02281
5645.44,0.02215
5622.29,0.02082
5599.15,0.02279
5576,0.02157
5552.86,0.02117
5529.71,0.02037
5506.57,0.02037
5483.42,0.02202
5460.28,0.02112
5437.13,0.02101
5413.99,0.02231
5390.84,0.02132
5367.7,0.02257
5344.55,0.02251
5321.41,0.02281
5298.26,0.02355
5275.12,0.02131
5251.97,0.02213
5228.83,0.02248
5205.68,0.02164
5182.54,0.02235
5159.39,0.02180
5136.25,0.01929
5113.1,0.02110
5089.96,0.02343
5066.81,0.02205
5043.67,0.02088
5020.52,0.02248
4997.38,0.02220
4974.23,0.02157
4951.09,0.02072
4927.94,0.02187
4904.8,0.02236
4881.65,0.02213
4858.51,0.02237
4835.36,0.02074
4812.22,0.02234
4789.07,0.02244
4765.93,0.02073
4742.78,0.02223
4719.64,0.02214
4696.49,0.02187
4673.35,0.02210
4650.2,0.02189
4627.06,0.02073
4603.92,0.02180
4580.77,0.02176
4557.63,0.02269
4534.48,0.02139
4511.34,0.02132
4488.19,0.02170
4465.05,0.02297
4441.9,0.02175
4418.76,0.02140
4395.61,0.02239
4372.47,0.02202
4349.32,0.02162
4326.18,0.02201
4303.03,0.02236
4279.89,0.02238
4256.74,0.02252
4233.6,0.02166
4210.45,0.02166
4187.31,0.02218
4164.16,0.02168
4141.02,0.02231
4117.87,0.02235
4094.73,0.02177
4071.58,0.02278
4048.44,0.02235
4025.29,0.02256
4002.15,0.02211
3979,0.02213
3955.86,0.02222
3932.71,0.02241
3909.57,0.02263
3886.42,0.02234
3863.28,0.02214
3840.13,0.02133
3816.99,0.02218
3793.84,0.02204
3770.7,0.02201
3747.55,0.02264
3724.41,0.02241
3701.26,0.02238
3678.12,0.02155
3654.97,0.02256
3631.83,0.02148
3608.68,0.02151
3585.54,0.02193
3562.39,0.02075
3539.25,0.02160
3516.1,0.02097
3492.96,0.02055
3469.81,0.02107
3446.67,0.02055
3423.52,0.02006
3400.38,0.02070
3377.23,0.02081
3354.09,0.02041
3330.94,0.01971
3307.8,0.02003
3284.65,0.02053
3261.51,0.02084
3238.36,0.02033
3215.22,0.02015
3192.07,0.02061
3168.93,0.02050
3145.78,0.02063
3122.64,0.02090
3099.49,0.02093
3076.35,0.02086
3053.2,0.02058
3030.06,0.02087
3006.91,0.02028
2983.77,0.02015
2960.62,0.01922
2937.48,0.01957
2914.33,0.02040
2891.19,0.02041
2868.04,0.02003
2844.9,0.02101
2821.75,0.02151
2798.61,0.02100
2775.46,0.02139
2752.32,0.02088
2729.17,0.02065
2706.03,0.02135
2682.88,0.02134
2659.74,0.02080
2636.59,0.02103
2613.45,0.02087
2590.3,0.02101
2567.16,0.02112
2544.02,0.02116
2520.87,0.02088
2497.73,0.02123
2474.58,0.02108
2451.44,0.02118
2428.29,0.02105
2405.15,0.02141
2382,0.02147
2358.86,0.02140
2335.71,0.02146
2312.57,0.02064
2289.42,0.02088
2266.28,0.02111
2243.13,0.02113
2219.99,0.02086
2196.84,0.02112
2173.7,0.02082
2150.55,0.02130
2127.41,0.02089
2104.26,0.02100
2081.12,0.02098
2057.97,0.02093
2034.83,0.02085
2011.68,0.02076
1988.54,0.02087
1965.39,0.02036
1942.25,0.02043
1919.1,0.02039
1895.96,0.02052
1872.81,0.02050
1849.67,0.01991
1826.52,0.01988
1803.38,0.01949
1780.23,0.01922
1757.09,0.01768
1733.94,0.02016
1710.8,0.02091
1687.65,0.01914
1664.51,0.01840
1641.36,0.01835
1618.22,0.01854
1595.07,0.01882
1571.93,0.01832
1548.78,0.01806
1525.64,0.01865
1502.49,0.01861
1479.35,0.01832
1456.2,0.01849
1433.06,0.01835
1409.91,0.01874
1386.77,0.01834
1363.62,0.01809
1340.48,0.01804
1317.33,0.01728
1294.19,0.01765
1271.04,0.01960
1247.9,0.02023
1224.75,0.01954
1201.61,0.01837
1178.46,0.01801
1155.32,0.01741
1132.17,0.01800
1109.03,0.01882
1085.88,0.01822
1062.74,0.01981
1039.59,0.01966
1016.45,0.01951
993.304,0.02076
970.159,0.02039
947.014,0.02002
923.869,0.01950
900.724,0.01885
877.579,0.01914
854.434,0.01932
831.289,0.01928
808.144,0.01916
784.999,0.01866
761.854,0.01840
738.709,0.01824
715.565,0.01855
692.42,0.01790
669.275,0.01685
646.13,0.01655
622.985,0.01621
599.84,0.01734