Folder: fsri_materials_database/01_Data/Rubber_Band/Cone

Note: README.md
# Materials and Products Database
### Repository of materials and products properties and fire test data to improve fire modeling and fire investigation.

This project was supported in part by Award No. 2019-DU-BX-0018, awarded by the National Institute of Justice, Office of Justice Programs, U.S. Department of Justice. The opinions, findings, and conclusions or recommendations expressed in this publication / program / exhibition are those of the author(s) and do not necessarily reflect those of the Department of Justice.

***
***

__Cite this database:__ "McKinnon, M., Weinschenk, C., Dow, N., DiDomizio, M., and Madrzykowski, D. Materials and Products Database (Version 1.0.0), Fire Safety Research Institute, UL Research Institutes. Columbia, MD 21045, 2023."

__Cite the Technical Reference Guide:__ "McKinnon, M., Weinschenk, C., and Madrzykowski, D. Materials and Products Database - Technical Reference Guide, Fire Safety Research Institute, UL Research Institutes. Columbia, MD 21045, 2023."

__Cite the User Guide:__ "McKinnon, M., and Weinschenk, C. Materials and Products Database - User Guide, Fire Safety Research Institute, UL Research Institutes. Columbia, MD 21045, 2023."

***
***

## Database Structure

## 01_Data/
Raw data generated from each apparatus are included here in plain-text format. The data is organized first by material, next by the short name of test apparatus used, and where applicable additional filtering by test settings.

### Test Apparatus and Data File Structure
- __Cone Calorimeter__ (Cone)
    + Data file structure includes the material, the short name for the apparatus, heat flux setting and scan/scalar, date of test, and replicate number. Scan is for the raw output data and scalar is for the initial conditions and high-level test parameters. 
        * Example: __MDF_Cone_HF25scalar_210323_R1__ stands for the first replicate of scalar data generated from a medium density fiber board test in cone calorimeter exposed to 25 kW/m<sup>2</sup> on March 23, 2021.
    + A _Cone_Notes.csv_ is generated for each material from the __plot_Cone_data.py__ script. For materials whose experiments deviated from typical behavior relevant pictures are included in the respective material directory.
- __Fourier Transform Infrared Spectrometer__ (FTIR)
    + The FTIR directory contains subdirectories for the Attenuated Total Reflectance method (ATR) and the Integrating Sphere (IS)
    + Data file structure for the ATR experiment files includes the material, the abbreviated name for the apparatus, date of test, and replicate number. 
        * Example: __MDF_ATR_210323_R5__ stands for the fifth replicate of data collected with the ATR accessory conducted on June 8, 2021.
    + Data file structure for the IS experiment files includes the material, the abbreviated name for the apparatus, the measurand, whether the test is a sample measurement or standard reference, date of test, and replicate number.
        * Example: __OSB_IS_REFLECT_MEAS_2

File: Rubber_Band_HRRPUA_25.csv
Time after Ignition,Rubber_Band_R1,Mean,Std. Dev.
0.0,8.1,8.1,
1.25,17.3,17.3,
2.5,38.0,38.0,
3.75,66.5,66.5,
5.0,98.6,98.6,
6.25,132.4,132.4,
7.5,156.7,156.7,
8.75,177.0,177.0,
10.0,200.0,200.0,
11.25,216.2,216.2,
12.5,238.6,238.6,
13.75,256.4,256.4,
15.0,279.9,279.9,
16.25,297.2,297.2,
17.5,316.3,316.3,
18.75,336.7,336.7,
20.0,357.4,357.4,
21.25,373.8,373.8,
22.5,382.3,382.3,
23.75,389.9,389.9,
25.0,415.7,415.7,
26.25,403.4,403.4,
27.5,399.3,399.3,
28.75,405.9,405.9,
30.0,414.7,414.7,
31.25,407.2,407.2,
32.5,402.0,402.0,
33.75,412.0,412.0,
35.0,400.0,400.0,
36.25,406.5,406.5,
37.5,408.1,408.1,
38.75,412.1,412.1,
40.0,414.1,414.1,
41.25,403.9,403.9,
42.5,399.1,399.1,
43.75,401.6,401.6,
45.0,395.1,395.1,
46.25,390.2,390.2,
47.5,394.9,394.9,
48.75,387.3,387.3,
50.0,391.4,391.4,
51.25,388.2,388.2,
52.5,373.0,373.0,
53.75,379.8,379.8,
55.0,368.4,368.4,
56.25,365.6,365.6,
57.5,354.9,354.9,
58.75,345.0,345.0,
60.0,336.7,336.7,
61.25,320.9,320.9,
62.5,320.3,320.3,
63.75,316.3,316.3,
65.0,305.9,305.9,
66.25,297.7,297.7,
67.5,286.9,286.9,
68.75,274.7,274.7,
70.0,263.6,263.6,
71.25,251.9,251.9,
72.5,246.2,246.2,
73.75,231.4,231.4,
75.0,224.7,224.7,
76.25,216.5,216.5,
77.5,208.8,208.8,
78.75,200.8,200.8,
80.0,193.2,193.2,
81.25,181.0,181.0,
82.5,174.2,174.2,
83.75,165.9,165.9,
85.0,160.4,160.4,
86.25,155.1,155.1,
87.5,153.2,153.2,
88.75,147.7,147.7,
90.0,141.5,141.5,
91.25,137.2,137.2,
92.5,136.8,136.8,
93.75,127.9,127.9,
95.0,126.2,126.2,
96.25,121.7,121.7,
97.5,116.7,116.7,
98.75,115.1,115.1,
100.0,111.1,111.1,
101.25,109.2,109.2,
102.5,106.2,106.2,
103.75,104.7,104.7,
105.0,102.5,102.5,
106.25,103.2,103.2,
107.5,100.3,100.3,
108.75,97.7,97.7,
110.0,98.8,98.8,
111.25,97.5,97.5,
112.5,96.6,96.6,
113.75,96.9,96.9,
115.0,95.8,95.8,
116.25,94.6,94.6,
117.5,93.6,93.6,
118.75,92.6,92.6,
120.0,92.9,92.9,
121.25,90.8,90.8,
122.5,92.2,92.2,
123.75,90.1,90.1,
125.0,89.2,89.2,
126.25,86.5,86.5,
127.5,85.6,85.6,
128.75,86.4,86.4,
130.0,83.5,83.5,
131.25,84.9,84.9,
132.5,82.9,82.9,
133.75,82.6,82.6,
135.0,81.8,81.8,
136.25,80.4,80.4,
137.5,81.3,81.3,
138.75,80.8,80.8,
140.0,78.6,78.6,
141.25,79.5,79.5,
142.5,77.9,77.9,
143.75,77.6,77.6,
145.0,76.6,76.6,
146.25,76.5,76.5,
147.5,77.2,77.2,
148.75,74.7,74.7,
150.0,75.3,75.3,
151.25,74.4,74.4,
152.5,73.5,73.5,
153.75,72.2,72.2,
155.0,71.6,71.6,
156.25,72.6,72.6,
157.5,69.5,69.5,
158.75,68.9,68.9,
160.0,68.8,68.8,
161.25,67.4,67.4,
162.5,67.1,67.1,
163.75,65.8,65.8,
165.0,64.7,64.7,
166.25,64.6,64.6,
167.5,63.2,63.2,
168.75,63.9,63.9,
170.0,62.5,62.5,
171.25,62.4,62.4,
172.5,63.3,63.3,
173.75,63.0,63.0,
175.0,61.0,61.0,
176.25,60.5,60.5,
177.5,60.2,60.2,
178.75,60.2,60.2,
180.0,58.8,58.8,
181.25,60.0,60.0,
182.5,59.1,59.1,
183.75,59.5,59.5,
185.0,58.2,58.2,
186.25,57.2,57.2,
187.5,57.8,57.8,
188.75,57.3,57.3,
190.0,56.6,56.6,
191.25,57.1,57.1,
192.5,56.5,56.5,
193.75,55.8,55.8,
195.0,54.4,54.4,
196.25,54.3,54.3,
197.5,53.2,53.2,
198.75,53.9,53.9,
200.0,52.8,52.8,
201.25,52.7,52.7,
202.5,53.0,53.0,
203.75,51.5,51.5,
205.0,51.1,51.1,
206.25,50.2,50.2,
207.5,48.5,48.5,
208.75,49.1,49.1,
210.0,49.4,49.4,
211.25,47.7,47.7,
212.5,47.2,47.2,
213.75,47.5,47.5,
215.0,47.9,47.9,
216.25,47.1,47.1,
217.5,46.9,46.9,
218.75,46.6,46.6,
220.0,44.9,44.9,
221.25,44.9,44.9,
222.5,44.3,44.3,
223.75,43.9,43.9,
225.0,43.8,43.8,
226.25,44.2,44.2,
227.5,43.8,43.8,
228.75,43.0,43.0,
230.0,43.0,43.0,
231.25,42.9,42.9,
232.5,43.1,43.1,
233.75,42.6,42.6,
235.0,42.9,42.9,
236.25,42.5,42.5,
237.5,42.1,42.1,
238.75,42.4,42.4,
240.0,42.8,42.8,
241.25,41.7,41.7,
242.5,41.2,41.2,
243.75,39.7,39.7,
245.0,39.8,39.8,
246.25,39.6,39.6,
247.5,38.9,38.9,
248.75,39.2,39.2,
250.0,38.2,38.2,
251.25,38.0,38.0,
252.5,37.3,37.3,
253.75,36.9,36.9,
255.0,36.5,36.5,
256.25,36.4,36.4,
257.5,35.8,35.8,
258.75,35.6,35.6,
260.0,35.3,35.3,
261.25,34.9,34.9,
262.5,35.0,35.0,
263.75,35.1,35.1,
265.0,34.5,34.5,
266.25,35.0,35.0,
267.5,34.8,34.8,
268.75,34.5,34.5,
270.0,34.4,34.4,
271.25,33.7,33.7,
272.5,33.7,33.7,
273.75,33.1,33.1,
275.0,33.2,33.2,
276.25,32.9,32.9,
277.5,32.5,32.5,
278.75,32.5,32.5,
280.0,32.5,32.5,
281.25,32.7,32.7,
282.5,32.8,32.8,
283.75,33.1,33.1,
285.0,33.3,33.3,
286.25,33.4,33.4,
287.5,33.5,33.5,
288.75,32.9,32.9,
290.0,31.9,31.9,
291.25,31.9,31.9,
292.5,31.1,31.1,
293.75,31.5,31.5,
295.0,31.2,31.2,
296.25,31.4,31.4,
297.5,31.3,31.3,
298.75,30.8,30.8,
300.0,30.6,30.6,
301.25,30.1,30.1,
302.5,30.3,30.3,
303.75,29.6,29.6,
305.0,28.9,28.9,
306.25,28.9,28.9,
307.5,27.7,27.7,
308.75,26.7,26.7,
310.0,26.3,26.3,
311.25,26.1,26.1,
312.5,25.7,25.7,
313.75,26.1,26.1,
315.0,25.6,25.6,
316.25,25.7,25.7,
317.5,26.0,26.0,
318.75,26.3,26.3,
320.0,26.2,26.2,
321.25,26.5,26.5,
322.5,26.7,26.7,
323.75,26.7,26.7,
325.0,26.2,26.2,
326.25,26.1,26.1,
327.5,25.9,25.9,
328.75,25.3,25.3,
330.0,25.8,25.8,
331.25,26.2,26.2,
332.5,25.5,25.5,
333.75,25.1,25.1,
335.0,25.2,25.2,
336.25,25.1,25.1,
337.5,25.0,25.0,
338.75,25.3,25.3,
340.0,25.8,25.8,
341.25,25.5,25.5,
342.5,25.2,25.2,
343.75,24.7,24.7,
345.0,23.9,23.9,
345.5,23.5,23.5,

File: Rubber_Band_HRRPUA_35.csv
Time after Ignition,Rubber_Band_R1,Mean,Std. Dev.
0.0,5.5,5.5,
1.25,12.3,12.3,
2.5,35.1,35.1,
3.75,60.7,60.7,
5.0,89.3,89.3,
6.25,116.2,116.2,
7.5,148.5,148.5,
8.75,184.8,184.8,
10.0,213.7,213.7,
11.25,244.6,244.6,
12.5,266.0,266.0,
13.75,282.3,282.3,
15.0,301.0,301.0,
16.25,318.5,318.5,
17.5,343.1,343.1,
18.75,369.9,369.9,
20.0,385.9,385.9,
21.25,411.8,411.8,
22.5,437.1,437.1,
23.75,431.4,431.4,
25.0,438.2,438.2,
26.25,454.6,454.6,
27.5,442.3,442.3,
28.75,449.1,449.1,
30.0,456.1,456.1,
31.25,448.4,448.4,
32.5,446.0,446.0,
33.75,458.4,458.4,
35.0,451.7,451.7,
36.25,443.6,443.6,
37.5,444.8,444.8,
38.75,442.9,442.9,
40.0,446.3,446.3,
41.25,433.2,433.2,
42.5,423.0,423.0,
43.75,420.4,420.4,
45.0,418.5,418.5,
46.25,408.0,408.0,
47.5,398.5,398.5,
48.75,381.8,381.8,
50.0,397.0,397.0,
51.25,384.9,384.9,
52.5,386.2,386.2,
53.75,385.8,385.8,
55.0,380.0,380.0,
56.25,368.8,368.8,
57.5,354.6,354.6,
58.75,352.3,352.3,
60.0,350.6,350.6,
61.25,347.4,347.4,
62.5,343.5,343.5,
63.75,332.5,332.5,
65.0,331.6,331.6,
66.25,311.6,311.6,
67.5,307.3,307.3,
68.75,296.6,296.6,
70.0,287.3,287.3,
71.25,274.5,274.5,
72.5,264.9,264.9,
73.75,249.3,249.3,
75.0,249.1,249.1,
76.25,236.5,236.5,
77.5,227.4,227.4,
78.75,219.0,219.0,
80.0,209.4,209.4,
81.25,196.0,196.0,
82.5,190.0,190.0,
83.75,180.5,180.5,
85.0,178.0,178.0,
86.25,174.5,174.5,
87.5,166.2,166.2,
88.75,161.8,161.8,
90.0,156.6,156.6,
91.25,154.1,154.1,
92.5,150.5,150.5,
93.75,143.9,143.9,
95.0,142.6,142.6,
96.25,138.0,138.0,
97.5,138.6,138.6,
98.75,134.9,134.9,
100.0,134.9,134.9,
101.25,131.9,131.9,
102.5,130.9,130.9,
103.75,128.5,128.5,
105.0,125.5,125.5,
106.25,124.2,124.2,
107.5,124.1,124.1,
108.75,121.2,121.2,
110.0,118.4,118.4,
111.25,118.3,118.3,
112.5,118.2,118.2,
113.75,116.0,116.0,
115.0,113.8,113.8,
116.25,111.3,111.3,
117.5,110.4,110.4,
118.75,108.1,108.1,
120.0,106.6,106.6,
121.25,102.9,102.9,
122.5,99.7,99.7,
123.75,99.0,99.0,
125.0,97.2,97.2,
126.25,95.6,95.6,
127.5,96.7,96.7,
128.75,91.1,91.1,
130.0,91.4,91.4,
131.25,89.7,89.7,
132.5,88.2,88.2,
133.75,87.1,87.1,
135.0,83.8,83.8,
136.25,82.6,82.6,
137.5,82.3,82.3,
138.75,80.0,80.0,
140.0,78.4,78.4,
141.25,78.1,78.1,
142.5,76.0,76.0,
143.75,73.8,73.8,
145.0,72.2,72.2,
146.25,71.4,71.4,
147.5,70.7,70.7,
148.75,69.1,69.1,
150.0,67.6,67.6,
151.25,67.6,67.6,
152.5,66.7,66.7,
153.75,66.6,66.6,
155.0,64.7,64.7,
156.25,63.6,63.6,
157.5,64.1,64.1,
158.75,63.3,63.3,
160.0,61.9,61.9,
161.25,62.0,62.0,
162.5,61.8,61.8,
163.75,59.1,59.1,
165.0,58.6,58.6,
166.25,57.7,57.7,
167.5,56.5,56.5,
168.75,54.8,54.8,
170.0,54.8,54.8,
171.25,54.0,54.0,
172.5,52.4,52.4,
173.75,52.6,52.6,
175.0,51.4,51.4,
176.25,50.8,50.8,
177.5,50.4,50.4,
178.75,48.8,48.8,
180.0,47.8,47.8,
181.25,47.5,47.5,
182.5,47.1,47.1,
183.75,46.7,46.7,
185.0,46.6,46.6,
186.25,45.2,45.2,
187.5,45.8,45.8,
188.75,45.6,45.6,
190.0,45.0,45.0,
191.25,43.5,43.5,
192.5,43.4,43.4,
193.75,43.8,43.8,
195.0,43.1,43.1,
196.25,42.1,42.1,
197.5,42.4,42.4,
198.75,41.3,41.3,
200.0,40.9,40.9,
201.25,40.2,40.2,
202.5,39.7,39.7,
203.75,39.4,39.4,
205.0,39.4,39.4,
206.25,39.2,39.2,
207.5,38.4,38.4,
208.75,38.6,38.6,
210.0,38.7,38.7,
211.25,38.1,38.1,
212.5,38.7,38.7,
213.75,39.0,39.0,
215.0,38.3,38.3,
216.25,38.2,38.2,
217.5,38.0,38.0,
218.75,37.2,37.2,
220.0,36.7,36.7,
221.25,36.7,36.7,
222.5,36.3,36.3,
223.75,36.6,36.6,
225.0,35.7,35.7,
226.25,34.9,34.9,
227.5,34.4,34.4,
228.75,34.5,34.5,
230.0,34.5,34.5,
231.25,34.8,34.8,
232.5,34.7,34.7,
233.75,34.8,34.8,
235.0,34.8,34.8,
236.25,34.2,34.2,
237.5,34.5,34.5,
238.75,34.0,34.0,
240.0,34.1,34.1,
241.25,33.7,33.7,
242.5,32.9,32.9,
243.75,33.3,33.3,
245.0,32.2,32.2,
246.25,32.1,32.1,
247.5,31.5,31.5,
248.75,30.7,30.7,
250.0,30.4,30.4,
251.25,29.6,29.6,
252.5,29.3,29.3,
253.75,29.2,29.2,
255.0,29.8,29.8,
256.25,30.1,30.1,
257.5,29.9,29.9,
258.75,30.0,30.0,
260.0,29.5,29.5,
261.25,29.5,29.5,
262.5,28.9,28.9,
263.75,28.7,28.7,
265.0,28.7,28.7,
266.25,28.0,28.0,
267.5,28.2,28.2,
268.75,28.2,28.2,
270.0,27.6,27.6,
271.25,27.6,27.6,
272.5,27.5,27.5,
273.75,27.6,27.6,
275.0,27.4,27.4,
276.25,27.4,27.4,
277.5,27.2,27.2,
278.75,27.5,27.5,
280.0,27.3,27.3,
281.25,27.3,27.3,
282.5,27.6,27.6,
283.75,27.0,27.0,
285.0,25.7,25.7,
286.25,25.4,25.4,
287.5,25.3,25.3,
288.75,25.1,25.1,
290.0,24.9,24.9,
291.25,24.6,24.6,
292.5,24.7,24.7,
293.75,24.8,24.8,
295.0,24.4,24.4,
296.25,23.8,23.8,
297.5,23.3,23.3,
298.75,23.2,23.2,
300.0,22.9,22.9,
301.25,22.6,22.6,
302.5,22.3,22.3,
303.75,22.1,22.1,
305.0,21.9,21.9,
306.25,21.9,21.9,
307.5,22.1,22.1,
308.75,22.8,22.8,
310.0,23.2,23.2,
311.25,23.8,23.8,
312.5,23.3,23.3,
312.75,23.0,23.0,

File: Rubber_Band_HRRPUA_50.csv
Time after Ignition,Rubber_Band_R1,Mean,Std. Dev.
0.0,13.4,13.4,
0.75,22.8,22.8,
1.5,37.0,37.0,
2.25,54.7,54.7,
3.0,78.8,78.8,
3.75,105.1,105.1,
4.5,136.0,136.0,
5.25,160.7,160.7,
6.0,183.2,183.2,
6.75,209.5,209.5,
7.5,231.1,231.1,
8.25,253.3,253.3,
9.0,273.8,273.8,
9.75,299.6,299.6,
10.5,324.8,324.8,
11.25,356.8,356.8,
12.0,379.6,379.6,
12.75,402.0,402.0,
13.5,432.5,432.5,
14.25,429.4,429.4,
15.0,451.8,451.8,
15.75,466.3,466.3,
16.5,477.4,477.4,
17.25,506.7,506.7,
18.0,519.0,519.0,
18.75,537.2,537.2,
19.5,552.8,552.8,
20.25,553.2,553.2,
21.0,545.8,545.8,
21.75,589.9,589.9,
22.5,575.1,575.1,
23.25,574.1,574.1,
24.0,580.5,580.5,
24.75,607.1,607.1,
25.5,572.9,572.9,
26.25,586.6,586.6,
27.0,581.9,581.9,
27.75,576.3,576.3,
28.5,570.6,570.6,
29.25,570.7,570.7,
30.0,588.9,588.9,
30.75,570.6,570.6,
31.5,552.5,552.5,
32.25,561.7,561.7,
33.0,551.5,551.5,
33.75,549.7,549.7,
34.5,535.9,535.9,
35.25,540.1,540.1,
36.0,544.6,544.6,
36.75,555.6,555.6,
37.5,537.4,537.4,
38.25,554.2,554.2,
39.0,540.7,540.7,
39.75,543.9,543.9,
40.5,543.8,543.8,
41.25,547.2,547.2,
42.0,511.9,511.9,
42.75,525.0,525.0,
43.5,508.9,508.9,
44.25,505.2,505.2,
45.0,509.3,509.3,
45.75,495.6,495.6,
46.5,488.9,488.9,
47.25,484.3,484.3,
48.0,472.2,472.2,
48.75,470.1,470.1,
49.5,455.2,455.2,
50.25,449.0,449.0,
51.0,442.1,442.1,
51.75,431.3,431.3,
52.5,407.3,407.3,
53.25,390.1,390.1,
54.0,378.1,378.1,
54.75,370.4,370.4,
55.5,350.7,350.7,
56.25,337.2,337.2,
57.0,330.6,330.6,
57.75,312.4,312.4,
58.5,307.0,307.0,
59.25,294.7,294.7,
60.0,282.7,282.7,
60.75,271.3,271.3,
61.5,260.7,260.7,
62.25,250.7,250.7,
63.0,241.4,241.4,
63.75,233.1,233.1,
64.5,220.9,220.9,
65.25,207.5,207.5,
66.0,200.5,200.5,
66.75,190.6,190.6,
67.5,188.4,188.4,
68.25,181.9,181.9,
69.0,180.2,180.2,
69.75,174.0,174.0,
70.5,171.1,171.1,
71.25,169.0,169.0,
72.0,164.9,164.9,
72.75,164.5,164.5,
73.5,159.8,159.8,
74.25,158.0,158.0,
75.0,154.4,154.4,
75.75,156.3,156.3,
76.5,155.9,155.9,
77.25,154.5,154.5,
78.0,150.8,150.8,
78.75,152.2,152.2,
79.5,148.6,148.6,
80.25,149.8,149.8,
81.0,149.5,149.5,
81.75,147.9,147.9,
82.5,149.1,149.1,
83.25,149.2,149.2,
84.0,149.7,149.7,
84.75,146.6,146.6,
85.5,146.8,146.8,
86.25,146.9,146.9,
87.0,148.1,148.1,
87.75,147.6,147.6,
88.5,147.8,147.8,
89.25,147.9,147.9,
90.0,148.4,148.4,
90.75,147.6,147.6,
91.5,146.7,146.7,
92.25,146.3,146.3,
93.0,149.1,149.1,
93.75,147.1,147.1,
94.5,148.0,148.0,
95.25,146.8,146.8,
96.0,143.0,143.0,
96.75,143.5,143.5,
97.5,141.1,141.1,
98.25,140.5,140.5,
99.0,140.6,140.6,
99.75,139.2,139.2,
100.5,138.5,138.5,
101.25,135.9,135.9,
102.0,134.9,134.9,
102.75,133.1,133.1,
103.5,129.4,129.4,
104.25,130.8,130.8,
105.0,126.7,126.7,
105.75,128.3,128.3,
106.5,127.9,127.9,
107.25,126.4,126.4,
108.0,127.7,127.7,
108.75,124.0,124.0,
109.5,122.9,122.9,
110.25,122.4,122.4,
111.0,122.7,122.7,
111.75,120.6,120.6,
112.5,120.5,120.5,
113.25,120.1,120.1,
114.0,117.8,117.8,
114.75,115.1,115.1,
115.5,112.4,112.4,
116.25,112.8,112.8,
117.0,109.1,109.1,
117.75,107.3,107.3,
118.5,103.8,103.8,
119.25,102.9,102.9,
120.0,100.6,100.6,
120.75,99.5,99.5,
121.5,97.9,97.9,
122.25,96.2,96.2,
123.0,93.5,93.5,
123.75,92.3,92.3,
124.5,90.7,90.7,
125.25,87.9,87.9,
126.0,89.5,89.5,
126.75,84.6,84.6,
127.5,82.8,82.8,
128.25,82.5,82.5,
129.0,80.0,80.0,
129.75,78.0,78.0,
130.5,76.3,76.3,
131.25,75.3,75.3,
132.0,73.3,73.3,
132.75,72.8,72.8,
133.5,72.1,72.1,
134.25,69.2,69.2,
135.0,69.4,69.4,
135.75,67.2,67.2,
136.5,65.9,65.9,
137.25,64.8,64.8,
138.0,62.4,62.4,
138.75,61.8,61.8,
139.5,59.1,59.1,
140.25,59.3,59.3,
141.0,58.4,58.4,
141.75,59.2,59.2,
142.5,57.7,57.7,
143.25,55.4,55.4,
144.0,55.5,55.5,
144.75,53.8,53.8,
145.5,51.8,51.8,
146.25,51.8,51.8,
147.0,50.8,50.8,
147.75,49.8,49.8,
148.5,49.1,49.1,
149.25,48.5,48.5,
150.0,47.1,47.1,
150.75,47.3,47.3,
151.5,46.7,46.7,
152.25,46.4,46.4,
153.0,44.9,44.9,
153.75,44.6,44.6,
154.5,44.5,44.5,
155.25,44.4,44.4,
156.0,43.3,43.3,
156.75,43.1,43.1,
157.5,42.8,42.8,
158.25,41.8,41.8,
159.0,41.9,41.9,
159.75,40.6,40.6,
160.5,40.5,40.5,
161.25,39.5,39.5,
162.0,38.7,38.7,
162.75,38.5,38.5,
163.5,37.8,37.8,
164.25,37.2,37.2,
165.0,36.8,36.8,
165.75,36.0,36.0,
166.5,35.8,35.8,
167.25,35.3,35.3,
168.0,34.3,34.3,
168.75,34.2,34.2,
169.5,33.7,33.7,
170.25,33.2,33.2,
171.0,33.1,33.1,
171.75,33.1,33.1,
172.5,32.4,32.4,
173.25,32.9,32.9,
174.0,31.9,31.9,
174.75,31.4,31.4,
175.5,31.1,31.1,
176.0,30.8,30.8,

File: Rubber_Band_HRRPUA_75.csv
Time after Ignition,Rubber_Band_R1,Mean,Std. Dev.
0.0,13.2,13.2,
0.75,30.0,30.0,
1.5,58.1,58.1,
2.25,84.6,84.6,
3.0,121.9,121.9,
3.75,152.3,152.3,
4.5,179.0,179.0,
5.25,213.4,213.4,
6.0,228.7,228.7,
6.75,253.5,253.5,
7.5,290.4,290.4,
8.25,334.5,334.5,
9.0,364.5,364.5,
9.75,383.8,383.8,
10.5,432.1,432.1,
11.25,462.3,462.3,
12.0,495.9,495.9,
12.75,537.0,537.0,
13.5,561.5,561.5,
14.25,560.3,560.3,
15.0,622.0,622.0,
15.75,620.6,620.6,
16.5,622.9,622.9,
17.25,676.1,676.1,
18.0,686.8,686.8,
18.75,683.6,683.6,
19.5,688.0,688.0,
20.25,732.7,732.7,
21.0,682.5,682.5,
21.75,722.0,722.0,
22.5,698.3,698.3,
23.25,699.5,699.5,
24.0,687.5,687.5,
24.75,685.5,685.5,
25.5,710.4,710.4,
26.25,689.3,689.3,
27.0,669.3,669.3,
27.75,685.5,685.5,
28.5,681.6,681.6,
29.25,695.7,695.7,
30.0,704.0,704.0,
30.75,687.5,687.5,
31.5,691.4,691.4,
32.25,669.9,669.9,
33.0,686.6,686.6,
33.75,707.3,707.3,
34.5,642.7,642.7,
35.25,666.3,666.3,
36.0,632.2,632.2,
36.75,621.1,621.1,
37.5,617.9,617.9,
38.25,616.4,616.4,
39.0,587.0,587.0,
39.75,588.4,588.4,
40.5,563.2,563.2,
41.25,544.0,544.0,
42.0,518.4,518.4,
42.75,479.0,479.0,
43.5,446.3,446.3,
44.25,437.7,437.7,
45.0,416.6,416.6,
45.75,389.6,389.6,
46.5,371.5,371.5,
47.25,361.1,361.1,
48.0,332.9,332.9,
48.75,311.8,311.8,
49.5,295.3,295.3,
50.25,272.7,272.7,
51.0,258.0,258.0,
51.75,244.0,244.0,
52.5,229.2,229.2,
53.25,226.3,226.3,
54.0,215.0,215.0,
54.75,209.8,209.8,
55.5,201.4,201.4,
56.25,195.4,195.4,
57.0,191.3,191.3,
57.75,182.2,182.2,
58.5,183.9,183.9,
59.25,177.9,177.9,
60.0,178.6,178.6,
60.75,173.7,173.7,
61.5,176.7,176.7,
62.25,171.2,171.2,
63.0,170.0,170.0,
63.75,169.7,169.7,
64.5,168.6,168.6,
65.25,168.8,168.8,
66.0,167.1,167.1,
66.75,165.4,165.4,
67.5,166.6,166.6,
68.25,162.9,162.9,
69.0,162.2,162.2,
69.75,160.0,160.0,
70.5,161.2,161.2,
71.25,156.8,156.8,
72.0,155.0,155.0,
72.75,154.8,154.8,
73.5,153.3,153.3,
74.25,151.5,151.5,
75.0,150.4,150.4,
75.75,148.5,148.5,
76.5,151.9,151.9,
77.25,149.3,149.3,
78.0,149.4,149.4,
78.75,150.6,150.6,
79.5,147.3,147.3,
80.25,148.5,148.5,
81.0,147.0,147.0,
81.75,147.3,147.3,
82.5,147.5,147.5,
83.25,147.7,147.7,
84.0,149.4,149.4,
84.75,152.2,152.2,
85.5,147.3,147.3,
86.25,150.4,150.4,
87.0,149.9,149.9,
87.75,151.2,151.2,
88.5,149.7,149.7,
89.25,148.4,148.4,
90.0,146.3,146.3,
90.75,146.9,146.9,
91.5,147.2,147.2,
92.25,145.3,145.3,
93.0,144.2,144.2,
93.75,142.4,142.4,
94.5,141.4,141.4,
95.25,141.2,141.2,
96.0,139.2,139.2,
96.75,139.0,139.0,
97.5,135.2,135.2,
98.25,131.3,131.3,
99.0,129.4,129.4,
99.75,128.0,128.0,
100.5,123.9,123.9,
101.25,122.5,122.5,
102.0,120.2,120.2,
102.75,116.7,116.7,
103.5,114.9,114.9,
104.25,113.9,113.9,
105.0,113.3,113.3,
105.75,110.2,110.2,
106.5,108.3,108.3,
107.25,106.0,106.0,
108.0,101.5,101.5,
108.75,100.9,100.9,
109.5,100.2,100.2,
110.25,99.7,99.7,
111.0,97.1,97.1,
111.75,95.6,95.6,
112.5,94.1,94.1,
113.25,92.7,92.7,
114.0,92.6,92.6,
114.75,87.9,87.9,
115.5,88.6,88.6,
116.25,88.9,88.9,
117.0,86.1,86.1,
117.75,85.7,85.7,
118.5,85.7,85.7,
119.25,83.2,83.2,
120.0,80.2,80.2,
120.75,79.4,79.4,
121.5,77.8,77.8,
122.25,77.1,77.1,
123.0,76.4,76.4,
123.75,75.1,75.1,
124.5,73.3,73.3,
125.25,73.0,73.0,
126.0,72.1,72.1,
126.75,71.0,71.0,
127.5,69.9,69.9,
128.25,70.1,70.1,
129.0,69.1,69.1,
129.75,67.0,67.0,
130.5,67.6,67.6,
131.25,66.7,66.7,
132.0,65.2,65.2,
132.75,65.1,65.1,
133.5,63.0,63.0,
134.25,63.0,63.0,
135.0,61.9,61.9,
135.75,60.4,60.4,
136.5,59.3,59.3,
137.25,58.6,58.6,
138.0,58.0,58.0,
138.75,55.8,55.8,
139.5,55.3,55.3,
140.25,54.8,54.8,
141.0,53.1,53.1,
141.75,52.7,52.7,
142.5,51.3,51.3,
143.25,50.7,50.7,
144.0,50.4,50.4,
144.75,48.9,48.9,
145.5,48.3,48.3,
146.25,47.2,47.2,
147.0,46.6,46.6,
147.75,45.2,45.2,
148.5,45.5,45.5,
149.25,44.9,44.9,
150.0,44.4,44.4,
150.75,44.1,44.1,
151.5,43.6,43.6,
152.25,42.9,42.9,
153.0,42.7,42.7,
153.75,41.8,41.8,
154.5,41.3,41.3,
155.25,41.3,41.3,
156.0,41.1,41.1,
156.75,41.2,41.2,
157.5,40.3,40.3,
158.25,40.8,40.8,
159.0,40.4,40.4,
159.75,40.9,40.9,
160.5,39.9,39.9,
161.25,39.0,39.0,
162.0,39.1,39.1,
162.75,39.0,39.0,
163.5,38.2,38.2,
164.25,38.1,38.1,
165.0,38.7,38.7,
165.75,38.2,38.2,
166.5,38.2,38.2,
167.25,37.9,37.9,
168.0,37.8,37.8,
168.75,38.1,38.1,
169.5,38.4,38.4,
170.25,37.8,37.8,
171.0,37.8,37.8,
171.75,37.4,37.4,
172.5,37.5,37.5,
173.25,37.2,37.2,
174.0,37.3,37.3,
174.75,37.3,37.3,
175.5,36.6,36.6,
176.25,37.4,37.4,
177.0,36.3,36.3,
177.75,36.1,36.1,
178.5,35.0,35.0,
179.25,35.6,35.6,
180.0,35.9,35.9,
180.75,35.4,35.4,
181.5,34.9,34.9,
182.25,35.2,35.2,
183.0,35.0,35.0,
183.75,35.1,35.1,
184.25,34.4,34.4,

File: Rubber_Band_HRRPUA_100.csv
Time after Ignition,Rubber_Band_R1,Mean,Std. Dev.
0.0,17.2,17.2,
0.75,32.1,32.1,
1.5,52.0,52.0,
2.25,103.1,103.1,
3.0,158.2,158.2,
3.75,222.4,222.4,
4.5,312.7,312.7,
5.25,364.4,364.4,
6.0,437.3,437.3,
6.75,524.1,524.1,
7.5,596.9,596.9,
8.25,685.9,685.9,
9.0,741.8,741.8,
9.75,805.9,805.9,
10.5,857.8,857.8,
11.25,879.9,879.9,
12.0,949.4,949.4,
12.75,964.4,964.4,
13.5,1024.2,1024.2,
14.25,965.0,965.0,
15.0,1062.4,1062.4,
15.75,1067.9,1067.9,
16.5,1035.7,1035.7,
17.25,1046.3,1046.3,
18.0,1096.6,1096.6,
18.75,1067.4,1067.4,
19.5,1062.0,1062.0,
20.25,1038.6,1038.6,
21.0,1058.0,1058.0,
21.75,1022.1,1022.1,
22.5,976.7,976.7,
23.25,1031.4,1031.4,
24.0,1031.4,1031.4,
24.75,1018.3,1018.3,
25.5,1055.1,1055.1,
26.25,993.4,993.4,
27.0,1001.0,1001.0,
27.75,894.2,894.2,
28.5,915.6,915.6,
29.25,920.5,920.5,
30.0,845.0,845.0,
30.75,824.9,824.9,
31.5,799.8,799.8,
32.25,759.7,759.7,
33.0,722.5,722.5,
33.75,701.3,701.3,
34.5,653.4,653.4,
35.25,616.6,616.6,
36.0,568.1,568.1,
36.75,528.1,528.1,
37.5,479.4,479.4,
38.25,438.5,438.5,
39.0,407.5,407.5,
39.75,370.0,370.0,
40.5,347.5,347.5,
41.25,325.2,325.2,
42.0,297.9,297.9,
42.75,284.1,284.1,
43.5,265.5,265.5,
44.25,243.5,243.5,
45.0,233.2,233.2,
45.75,219.0,219.0,
46.5,208.2,208.2,
47.25,199.6,199.6,
48.0,193.2,193.2,
48.75,186.0,186.0,
49.5,183.5,183.5,
50.25,177.0,177.0,
51.0,174.1,174.1,
51.75,169.8,169.8,
52.5,167.4,167.4,
53.25,169.7,169.7,
54.0,163.5,163.5,
54.75,163.2,163.2,
55.5,161.0,161.0,
56.25,156.9,156.9,
57.0,155.7,155.7,
57.75,153.4,153.4,
58.5,149.5,149.5,
59.25,148.9,148.9,
60.0,147.4,147.4,
60.75,145.9,145.9,
61.5,142.6,142.6,
62.25,140.0,140.0,
63.0,140.8,140.8,
63.75,141.8,141.8,
64.5,137.4,137.4,
65.25,136.9,136.9,
66.0,133.8,133.8,
66.75,137.3,137.3,
67.5,136.5,136.5,
68.25,134.1,134.1,
69.0,133.3,133.3,
69.75,134.0,134.0,
70.5,133.0,133.0,
71.25,129.6,129.6,
72.0,129.4,129.4,
72.75,128.1,128.1,
73.5,126.1,126.1,
74.25,126.5,126.5,
75.0,125.5,125.5,
75.75,122.9,122.9,
76.5,123.2,123.2,
77.25,123.7,123.7,
78.0,124.2,124.2,
78.75,122.4,122.4,
79.5,118.3,118.3,
80.25,119.8,119.8,
81.0,118.5,118.5,
81.75,115.4,115.4,
82.5,114.1,114.1,
83.25,113.0,113.0,
84.0,112.3,112.3,
84.75,113.6,113.6,
85.5,112.4,112.4,
86.25,113.0,113.0,
87.0,111.6,111.6,
87.75,110.2,110.2,
88.5,109.0,109.0,
89.25,108.6,108.6,
90.0,107.6,107.6,
90.75,107.1,107.1,
91.5,105.4,105.4,
92.25,103.7,103.7,
93.0,103.2,103.2,
93.75,101.4,101.4,
94.5,100.4,100.4,
95.25,99.2,99.2,
96.0,98.6,98.6,
96.75,97.0,97.0,
97.5,95.7,95.7,
98.25,93.6,93.6,
99.0,91.6,91.6,
99.75,89.4,89.4,
100.5,87.5,87.5,
101.25,83.8,83.8,
102.0,84.5,84.5,
102.75,82.0,82.0,
103.5,81.3,81.3,
104.25,79.9,79.9,
105.0,79.0,79.0,
105.75,79.3,79.3,
106.5,77.7,77.7,
107.25,77.6,77.6,
108.0,76.9,76.9,
108.75,75.3,75.3,
109.5,73.3,73.3,
110.25,73.6,73.6,
111.0,72.6,72.6,
111.75,72.2,72.2,
112.5,71.6,71.6,
113.25,70.9,70.9,
114.0,70.2,70.2,
114.75,69.4,69.4,
115.5,67.6,67.6,
116.25,66.9,66.9,
117.0,66.2,66.2,
117.75,65.2,65.2,
118.5,65.9,65.9,
119.25,64.3,64.3,
120.0,62.4,62.4,
120.75,62.7,62.7,
121.5,61.8,61.8,
122.25,60.9,60.9,
123.0,60.7,60.7,
123.75,60.1,60.1,
124.5,59.0,59.0,
125.25,58.1,58.1,
126.0,58.5,58.5,
126.75,56.6,56.6,
127.5,57.0,57.0,
128.25,57.1,57.1,
129.0,57.1,57.1,
129.75,55.5,55.5,
130.5,55.3,55.3,
131.25,54.9,54.9,
132.0,54.5,54.5,
132.75,53.7,53.7,
133.5,54.0,54.0,
134.25,53.8,53.8,
135.0,53.2,53.2,
135.75,52.8,52.8,
136.5,52.9,52.9,
137.25,54.5,54.5,
138.0,53.1,53.1,
138.75,53.0,53.0,
139.5,51.4,51.4,
140.25,52.0,52.0,
141.0,51.9,51.9,
141.75,50.7,50.7,
142.5,50.3,50.3,
143.25,50.7,50.7,
144.0,50.9,50.9,
144.75,50.9,50.9,
145.5,50.2,50.2,
146.25,50.6,50.6,
147.0,49.7,49.7,
147.75,49.8,49.8,
148.5,49.9,49.9,
149.25,49.1,49.1,
150.0,49.0,49.0,
150.75,48.2,48.2,
151.5,47.2,47.2,
152.0,47.5,47.5,