Folder: fsri_materials_database/01_Data/Roof_Felt/FTIR/IS

Note: README.md
# Materials and Products Database
### Repository of materials and products properties and fire test data to improve fire modeling and fire investigation.

This project was supported in part by Award No. 2019-DU-BX-0018, awarded by the National Institute of Justice, Office of Justice Programs, U.S. Department of Justice. The opinions, findings, and conclusions or recommendations expressed in this publication / program / exhibition are those of the author(s) and do not necessarily reflect those of the Department of Justice.

***
***

__Cite this database:__ "McKinnon, M., Weinschenk, C., Dow, N., DiDomizio, M., and Madrzykowski, D. Materials and Products Database (Version 1.0.0), Fire Safety Research Institute, UL Research Institutes. Columbia, MD 21045, 2023."

__Cite the Technical Reference Guide:__ "McKinnon, M., Weinschenk, C., and Madrzykowski, D. Materials and Products Database - Technical Reference Guide, Fire Safety Research Institute, UL Research Institutes. Columbia, MD 21045, 2023."

__Cite the User Guide:__ "McKinnon, M., and Weinschenk, C. Materials and Products Database - User Guide, Fire Safety Research Institute, UL Research Institutes. Columbia, MD 21045, 2023."

***
***

## Database Structure

## 01_Data/
Raw data generated from each apparatus are included here in plain-text format. The data is organized first by material, next by the short name of test apparatus used, and where applicable additional filtering by test settings.

### Test Apparatus and Data File Structure
- __Cone Calorimeter__ (Cone)
    + Data file structure includes the material, the short name for the apparatus, heat flux setting and scan/scalar, date of test, and replicate number. Scan is for the raw output data and scalar is for the initial conditions and high-level test parameters. 
        * Example: __MDF_Cone_HF25scalar_210323_R1__ stands for the first replicate of scalar data generated from a medium density fiber board test in cone calorimeter exposed to 25 kW/m<sup>2</sup> on March 23, 2021.
    + A _Cone_Notes.csv_ is generated for each material from the __plot_Cone_data.py__ script. For materials whose experiments deviated from typical behavior relevant pictures are included in the respective material directory.
- __Fourier Transform Infrared Spectrometer__ (FTIR)
    + The FTIR directory contains subdirectories for the Attenuated Total Reflectance method (ATR) and the Integrating Sphere (IS)
    + Data file structure for the ATR experiment files includes the material, the abbreviated name for the apparatus, date of test, and replicate number. 
        * Example: __MDF_ATR_210323_R5__ stands for the fifth replicate of data collected with the ATR accessory conducted on June 8, 2021.
    + Data file structure for the IS experiment files includes the material, the abbreviated name for the apparatus, the measurand, whether the test is a sample measurement or standard reference, date of test, and replicate number.
        * Example: __OSB_IS_REFLECT_MEAS_2

File: Roof_Felt_IS_S_220829_R1.dpt
7497.03,0.17194
7473.89,0.17422
7450.74,0.17204
7427.6,0.16863
7404.45,0.17784
7381.31,0.17793
7358.16,0.17308
7335.02,0.17429
7311.87,0.17857
7288.73,0.17957
7265.58,0.16820
7242.44,0.17468
7219.29,0.17668
7196.15,0.18130
7173,0.18050
7149.86,0.18166
7126.71,0.18583
7103.57,0.18062
7080.42,0.17882
7057.28,0.18323
7034.13,0.18436
7010.99,0.18650
6987.84,0.18350
6964.7,0.18202
6941.55,0.18287
6918.41,0.18338
6895.26,0.17905
6872.12,0.18104
6848.97,0.18544
6825.83,0.18715
6802.68,0.18895
6779.54,0.18976
6756.39,0.18471
6733.25,0.18984
6710.1,0.18839
6686.96,0.18806
6663.82,0.19419
6640.67,0.19514
6617.53,0.19303
6594.38,0.19519
6571.24,0.19953
6548.09,0.19732
6524.95,0.19994
6501.8,0.20082
6478.66,0.19937
6455.51,0.20333
6432.37,0.20673
6409.22,0.20482
6386.08,0.20506
6362.93,0.20841
6339.79,0.21122
6316.64,0.21170
6293.5,0.21168
6270.35,0.21420
6247.21,0.21621
6224.06,0.21929
6200.92,0.22274
6177.77,0.22162
6154.63,0.22372
6131.48,0.22525
6108.34,0.22328
6085.19,0.22690
6062.05,0.22844
6038.9,0.22863
6015.76,0.22943
5992.61,0.22524
5969.47,0.22576
5946.32,0.22313
5923.18,0.21898
5900.03,0.21993
5876.89,0.21501
5853.74,0.21109
5830.6,0.21085
5807.45,0.20866
5784.31,0.20743
5761.16,0.21430
5738.02,0.21974
5714.87,0.21887
5691.73,0.21995
5668.58,0.21997
5645.44,0.22556
5622.29,0.22972
5599.15,0.23376
5576,0.23671
5552.86,0.23852
5529.71,0.24119
5506.57,0.24036
5483.42,0.24369
5460.28,0.24498
5437.13,0.24623
5413.99,0.24966
5390.84,0.25099
5367.7,0.25403
5344.55,0.25503
5321.41,0.25372
5298.26,0.25299
5275.12,0.24368
5251.97,0.23347
5228.83,0.22398
5205.68,0.22070
5182.54,0.21914
5159.39,0.22314
5136.25,0.22797
5113.1,0.23162
5089.96,0.23557
5066.81,0.24107
5043.67,0.24486
5020.52,0.24852
4997.38,0.25046
4974.23,0.25135
4951.09,0.24808
4927.94,0.24659
4904.8,0.24014
4881.65,0.23353
4858.51,0.22596
4835.36,0.22052
4812.22,0.21493
4789.07,0.21113
4765.93,0.20857
4742.78,0.20851
4719.64,0.21046
4696.49,0.21325
4673.35,0.21524
4650.2,0.21722
4627.06,0.22029
4603.92,0.22538
4580.77,0.22846
4557.63,0.23308
4534.48,0.23544
4511.34,0.23635
4488.19,0.23311
4465.05,0.22401
4441.9,0.20706
4418.76,0.18249
4395.61,0.16226
4372.47,0.16060
4349.32,0.15013
4326.18,0.13799
4303.03,0.14868
4279.89,0.14901
4256.74,0.14085
4233.6,0.14980
4210.45,0.15259
4187.31,0.15323
4164.16,0.15398
4141.02,0.15567
4117.87,0.15345
4094.73,0.14995
4071.58,0.14214
4048.44,0.13695
4025.29,0.13517
4002.15,0.13701
3979,0.14066
3955.86,0.14532
3932.71,0.15034
3909.57,0.15478
3886.42,0.15871
3863.28,0.16398
3840.13,0.16929
3816.99,0.17113
3793.84,0.17251
3770.7,0.17182
3747.55,0.16979
3724.41,0.16270
3701.26,0.13657
3678.12,0.12105
3654.97,0.09531
3631.83,0.08014
3608.68,0.06863
3585.54,0.06117
3562.39,0.05586
3539.25,0.05235
3516.1,0.04973
3492.96,0.04810
3469.81,0.04666
3446.67,0.04520
3423.52,0.04409
3400.38,0.04372
3377.23,0.04438
3354.09,0.04378
3330.94,0.04462
3307.8,0.04529
3284.65,0.04672
3261.51,0.04817
3238.36,0.04891
3215.22,0.05112
3192.07,0.05264
3168.93,0.05501
3145.78,0.05672
3122.64,0.05835
3099.49,0.05907
3076.35,0.05992
3053.2,0.06082
3030.06,0.06098
3006.91,0.05949
2983.77,0.05348
2960.62,0.04798
2937.48,0.04708
2914.33,0.05405
2891.19,0.05224
2868.04,0.05235
2844.9,0.05692
2821.75,0.06311
2798.61,0.06845
2775.46,0.07089
2752.32,0.07221
2729.17,0.07163
2706.03,0.07472
2682.88,0.07712
2659.74,0.08004
2636.59,0.08255
2613.45,0.08548
2590.3,0.08782
2567.16,0.09051
2544.02,0.09165
2520.87,0.09346
2497.73,0.09767
2474.58,0.10188
2451.44,0.10561
2428.29,0.10986
2405.15,0.11377
2382,0.11763
2358.86,0.12115
2335.71,0.12371
2312.57,0.12590
2289.42,0.12594
2266.28,0.12500
2243.13,0.12324
2219.99,0.12377
2196.84,0.12380
2173.7,0.11839
2150.55,0.11392
2127.41,0.11409
2104.26,0.11748
2081.12,0.11981
2057.97,0.11908
2034.83,0.12156
2011.68,0.12945
1988.54,0.13492
1965.39,0.13727
1942.25,0.13828
1919.1,0.13922
1895.96,0.13843
1872.81,0.13850
1849.67,0.13638
1826.52,0.13203
1803.38,0.12109
1780.23,0.10520
1757.09,0.07579
1733.94,0.06536
1710.8,0.06615
1687.65,0.06231
1664.51,0.05666
1641.36,0.05495
1618.22,0.05247
1595.07,0.05003
1571.93,0.05440
1548.78,0.05771
1525.64,0.05857
1502.49,0.05174
1479.35,0.05003
1456.2,0.04571
1433.06,0.04643
1409.91,0.04913
1386.77,0.04640
1363.62,0.04552
1340.48,0.04565
1317.33,0.04477
1294.19,0.04759
1271.04,0.04582
1247.9,0.04557
1224.75,0.04728
1201.61,0.04757
1178.46,0.04708
1155.32,0.04271
1132.17,0.03736
1109.03,0.03972
1085.88,0.03909
1062.74,0.05611
1039.59,0.05937
1016.45,0.06574
993.304,0.06700
970.159,0.07214
947.014,0.07901
923.869,0.07690
900.724,0.06764
877.579,0.07137
854.434,0.07078
831.289,0.06787
808.144,0.06462
784.999,0.06263
761.854,0.05833
738.709,0.05537
715.565,0.05173
692.42,0.05088
669.275,0.05009
646.13,0.04850
622.985,0.04843
599.84,0.05184

File: Roof_Felt_IS_S_220829_R2.dpt
7497.03,0.16867
7473.89,0.17298
7450.74,0.17213
7427.6,0.17566
7404.45,0.17401
7381.31,0.17749
7358.16,0.17982
7335.02,0.17417
7311.87,0.17279
7288.73,0.17888
7265.58,0.17903
7242.44,0.18073
7219.29,0.17860
7196.15,0.17369
7173,0.18226
7149.86,0.17960
7126.71,0.17426
7103.57,0.18575
7080.42,0.17707
7057.28,0.18233
7034.13,0.17178
7010.99,0.17529
6987.84,0.18282
6964.7,0.18265
6941.55,0.18389
6918.41,0.18234
6895.26,0.18170
6872.12,0.18165
6848.97,0.18292
6825.83,0.17935
6802.68,0.18654
6779.54,0.19014
6756.39,0.18731
6733.25,0.18781
6710.1,0.18766
6686.96,0.19140
6663.82,0.19375
6640.67,0.19590
6617.53,0.19173
6594.38,0.19353
6571.24,0.19517
6548.09,0.20034
6524.95,0.20180
6501.8,0.19832
6478.66,0.20300
6455.51,0.20449
6432.37,0.20774
6409.22,0.20664
6386.08,0.20935
6362.93,0.20742
6339.79,0.21292
6316.64,0.21435
6293.5,0.21333
6270.35,0.21741
6247.21,0.21799
6224.06,0.21782
6200.92,0.21964
6177.77,0.22271
6154.63,0.22421
6131.48,0.22351
6108.34,0.22462
6085.19,0.22762
6062.05,0.22869
6038.9,0.22760
6015.76,0.23025
5992.61,0.22792
5969.47,0.22790
5946.32,0.22357
5923.18,0.21809
5900.03,0.21932
5876.89,0.21645
5853.74,0.21466
5830.6,0.21099
5807.45,0.20720
5784.31,0.20920
5761.16,0.21662
5738.02,0.21887
5714.87,0.22024
5691.73,0.21963
5668.58,0.22026
5645.44,0.22529
5622.29,0.22926
5599.15,0.23509
5576,0.23624
5552.86,0.23940
5529.71,0.23964
5506.57,0.24249
5483.42,0.24140
5460.28,0.24555
5437.13,0.24746
5413.99,0.24881
5390.84,0.25239
5367.7,0.25570
5344.55,0.25485
5321.41,0.25646
5298.26,0.24953
5275.12,0.24454
5251.97,0.23322
5228.83,0.22471
5205.68,0.22176
5182.54,0.22173
5159.39,0.22475
5136.25,0.22883
5113.1,0.23501
5089.96,0.23776
5066.81,0.24210
5043.67,0.24580
5020.52,0.24907
4997.38,0.25125
4974.23,0.25089
4951.09,0.24997
4927.94,0.24630
4904.8,0.24032
4881.65,0.23259
4858.51,0.22725
4835.36,0.21973
4812.22,0.21589
4789.07,0.21213
4765.93,0.20886
4742.78,0.20890
4719.64,0.21095
4696.49,0.21315
4673.35,0.21540
4650.2,0.21840
4627.06,0.21999
4603.92,0.22450
4580.77,0.22955
4557.63,0.23395
4534.48,0.23547
4511.34,0.23705
4488.19,0.23313
4465.05,0.22373
4441.9,0.20682
4418.76,0.18284
4395.61,0.16216
4372.47,0.16047
4349.32,0.15039
4326.18,0.13737
4303.03,0.14832
4279.89,0.14907
4256.74,0.14069
4233.6,0.14970
4210.45,0.15264
4187.31,0.15386
4164.16,0.15435
4141.02,0.15521
4117.87,0.15463
4094.73,0.14989
4071.58,0.14246
4048.44,0.13753
4025.29,0.13547
4002.15,0.13768
3979,0.14081
3955.86,0.14497
3932.71,0.15041
3909.57,0.15524
3886.42,0.15920
3863.28,0.16466
3840.13,0.16965
3816.99,0.17116
3793.84,0.17251
3770.7,0.17367
3747.55,0.17018
3724.41,0.16343
3701.26,0.13773
3678.12,0.12265
3654.97,0.09658
3631.83,0.08093
3608.68,0.06874
3585.54,0.06123
3562.39,0.05612
3539.25,0.05268
3516.1,0.05018
3492.96,0.04831
3469.81,0.04575
3446.67,0.04561
3423.52,0.04448
3400.38,0.04423
3377.23,0.04380
3354.09,0.04370
3330.94,0.04415
3307.8,0.04528
3284.65,0.04627
3261.51,0.04786
3238.36,0.05018
3215.22,0.05144
3192.07,0.05254
3168.93,0.05512
3145.78,0.05716
3122.64,0.05878
3099.49,0.06015
3076.35,0.06040
3053.2,0.06188
3030.06,0.06115
3006.91,0.05947
2983.77,0.05387
2960.62,0.04773
2937.48,0.04777
2914.33,0.05382
2891.19,0.05242
2868.04,0.05230
2844.9,0.05745
2821.75,0.06329
2798.61,0.06827
2775.46,0.07112
2752.32,0.07283
2729.17,0.07212
2706.03,0.07513
2682.88,0.07762
2659.74,0.08001
2636.59,0.08299
2613.45,0.08602
2590.3,0.08838
2567.16,0.09019
2544.02,0.09115
2520.87,0.09347
2497.73,0.09799
2474.58,0.10234
2451.44,0.10566
2428.29,0.10926
2405.15,0.11397
2382,0.11760
2358.86,0.12130
2335.71,0.12460
2312.57,0.12620
2289.42,0.12655
2266.28,0.12518
2243.13,0.12384
2219.99,0.12404
2196.84,0.12389
2173.7,0.11894
2150.55,0.11404
2127.41,0.11473
2104.26,0.11820
2081.12,0.12041
2057.97,0.11991
2034.83,0.12269
2011.68,0.13048
1988.54,0.13544
1965.39,0.13777
1942.25,0.13927
1919.1,0.13964
1895.96,0.13903
1872.81,0.13902
1849.67,0.13691
1826.52,0.13264
1803.38,0.12131
1780.23,0.10509
1757.09,0.07574
1733.94,0.06535
1710.8,0.06649
1687.65,0.06265
1664.51,0.05684
1641.36,0.05493
1618.22,0.05199
1595.07,0.05009
1571.93,0.05437
1548.78,0.05813
1525.64,0.05885
1502.49,0.05180
1479.35,0.04984
1456.2,0.04553
1433.06,0.04558
1409.91,0.04898
1386.77,0.04676
1363.62,0.04589
1340.48,0.04543
1317.33,0.04516
1294.19,0.04784
1271.04,0.04655
1247.9,0.04591
1224.75,0.04713
1201.61,0.04758
1178.46,0.04763
1155.32,0.04294
1132.17,0.03736
1109.03,0.03976
1085.88,0.03893
1062.74,0.05528
1039.59,0.05996
1016.45,0.06620
993.304,0.06717
970.159,0.07237
947.014,0.07820
923.869,0.07628
900.724,0.06770
877.579,0.07077
854.434,0.07085
831.289,0.06896
808.144,0.06494
784.999,0.06367
761.854,0.05987
738.709,0.05582
715.565,0.05082
692.42,0.05212
669.275,0.04937
646.13,0.05026
622.985,0.04895
599.84,0.05158

File: Roof_Felt_IS_S_220829_R3.dpt
7497.03,0.17089
7473.89,0.16814
7450.74,0.17137
7427.6,0.17811
7404.45,0.17306
7381.31,0.17714
7358.16,0.17467
7335.02,0.17104
7311.87,0.17691
7288.73,0.17507
7265.58,0.17873
7242.44,0.18083
7219.29,0.17513
7196.15,0.18033
7173,0.17700
7149.86,0.17420
7126.71,0.17978
7103.57,0.18383
7080.42,0.17437
7057.28,0.17756
7034.13,0.18543
7010.99,0.18701
6987.84,0.17812
6964.7,0.18274
6941.55,0.18268
6918.41,0.18164
6895.26,0.18951
6872.12,0.18476
6848.97,0.18260
6825.83,0.18578
6802.68,0.19019
6779.54,0.18581
6756.39,0.18759
6733.25,0.19470
6710.1,0.19002
6686.96,0.19038
6663.82,0.19722
6640.67,0.18994
6617.53,0.19288
6594.38,0.19467
6571.24,0.20048
6548.09,0.19992
6524.95,0.20434
6501.8,0.20234
6478.66,0.19982
6455.51,0.20256
6432.37,0.20595
6409.22,0.20696
6386.08,0.20662
6362.93,0.20984
6339.79,0.20823
6316.64,0.21226
6293.5,0.21427
6270.35,0.21365
6247.21,0.21964
6224.06,0.21887
6200.92,0.21975
6177.77,0.22278
6154.63,0.22168
6131.48,0.22521
6108.34,0.22652
6085.19,0.22845
6062.05,0.22939
6038.9,0.22769
6015.76,0.22832
5992.61,0.22900
5969.47,0.22595
5946.32,0.22425
5923.18,0.22249
5900.03,0.21591
5876.89,0.21299
5853.74,0.21213
5830.6,0.21182
5807.45,0.20974
5784.31,0.21079
5761.16,0.21420
5738.02,0.21880
5714.87,0.21931
5691.73,0.22132
5668.58,0.21981
5645.44,0.22445
5622.29,0.22803
5599.15,0.23542
5576,0.23613
5552.86,0.23861
5529.71,0.24039
5506.57,0.24101
5483.42,0.24171
5460.28,0.24410
5437.13,0.24749
5413.99,0.24990
5390.84,0.25140
5367.7,0.25424
5344.55,0.25492
5321.41,0.25434
5298.26,0.25213
5275.12,0.24505
5251.97,0.23619
5228.83,0.22836
5205.68,0.22472
5182.54,0.22482
5159.39,0.22667
5136.25,0.23189
5113.1,0.23659
5089.96,0.23945
5066.81,0.24549
5043.67,0.24743
5020.52,0.25014
4997.38,0.25284
4974.23,0.25320
4951.09,0.25095
4927.94,0.24646
4904.8,0.24065
4881.65,0.23422
4858.51,0.22688
4835.36,0.21968
4812.22,0.21432
4789.07,0.21072
4765.93,0.21001
4742.78,0.20910
4719.64,0.21052
4696.49,0.21403
4673.35,0.21563
4650.2,0.21861
4627.06,0.22048
4603.92,0.22483
4580.77,0.22930
4557.63,0.23316
4534.48,0.23590
4511.34,0.23695
4488.19,0.23320
4465.05,0.22316
4441.9,0.20714
4418.76,0.18313
4395.61,0.16198
4372.47,0.16018
4349.32,0.14995
4326.18,0.13698
4303.03,0.14828
4279.89,0.14843
4256.74,0.14054
4233.6,0.15012
4210.45,0.15337
4187.31,0.15314
4164.16,0.15394
4141.02,0.15480
4117.87,0.15400
4094.73,0.15096
4071.58,0.14261
4048.44,0.13770
4025.29,0.13566
4002.15,0.13755
3979,0.14153
3955.86,0.14593
3932.71,0.15062
3909.57,0.15541
3886.42,0.16020
3863.28,0.16439
3840.13,0.17056
3816.99,0.17296
3793.84,0.17333
3770.7,0.17433
3747.55,0.17271
3724.41,0.16506
3701.26,0.13836
3678.12,0.12482
3654.97,0.09782
3631.83,0.08252
3608.68,0.07065
3585.54,0.06263
3562.39,0.05692
3539.25,0.05289
3516.1,0.04966
3492.96,0.04825
3469.81,0.04680
3446.67,0.04554
3423.52,0.04486
3400.38,0.04410
3377.23,0.04414
3354.09,0.04340
3330.94,0.04474
3307.8,0.04562
3284.65,0.04549
3261.51,0.04757
3238.36,0.04962
3215.22,0.05150
3192.07,0.05302
3168.93,0.05491
3145.78,0.05749
3122.64,0.05838
3099.49,0.06087
3076.35,0.06091
3053.2,0.06142
3030.06,0.06111
3006.91,0.05956
2983.77,0.05413
2960.62,0.04727
2937.48,0.04735
2914.33,0.05402
2891.19,0.05314
2868.04,0.05219
2844.9,0.05749
2821.75,0.06271
2798.61,0.06799
2775.46,0.07135
2752.32,0.07217
2729.17,0.07198
2706.03,0.07509
2682.88,0.07759
2659.74,0.07978
2636.59,0.08328
2613.45,0.08557
2590.3,0.08825
2567.16,0.09065
2544.02,0.09144
2520.87,0.09400
2497.73,0.09797
2474.58,0.10210
2451.44,0.10543
2428.29,0.10983
2405.15,0.11442
2382,0.11819
2358.86,0.12239
2335.71,0.12514
2312.57,0.12702
2289.42,0.12735
2266.28,0.12650
2243.13,0.12468
2219.99,0.12532
2196.84,0.12495
2173.7,0.12005
2150.55,0.11575
2127.41,0.11578
2104.26,0.11921
2081.12,0.12204
2057.97,0.12098
2034.83,0.12358
2011.68,0.13134
1988.54,0.13674
1965.39,0.13918
1942.25,0.14061
1919.1,0.14057
1895.96,0.13971
1872.81,0.14006
1849.67,0.13789
1826.52,0.13363
1803.38,0.12293
1780.23,0.10576
1757.09,0.07546
1733.94,0.06544
1710.8,0.06660
1687.65,0.06319
1664.51,0.05722
1641.36,0.05530
1618.22,0.05233
1595.07,0.05026
1571.93,0.05419
1548.78,0.05841
1525.64,0.05901
1502.49,0.05215
1479.35,0.04992
1456.2,0.04625
1433.06,0.04627
1409.91,0.04877
1386.77,0.04659
1363.62,0.04586
1340.48,0.04572
1317.33,0.04514
1294.19,0.04772
1271.04,0.04612
1247.9,0.04620
1224.75,0.04667
1201.61,0.04715
1178.46,0.04727
1155.32,0.04253
1132.17,0.03693
1109.03,0.03911
1085.88,0.03994
1062.74,0.05575
1039.59,0.05942
1016.45,0.06550
993.304,0.06715
970.159,0.07274
947.014,0.07900
923.869,0.07697
900.724,0.06711
877.579,0.07124
854.434,0.07079
831.289,0.06950
808.144,0.06516
784.999,0.06418
761.854,0.05977
738.709,0.05609
715.565,0.05283
692.42,0.05057
669.275,0.04994
646.13,0.04987
622.985,0.04815
599.84,0.05210

File: Roof_Felt_IS_S_220829_R4.dpt
7497.03,0.15986
7473.89,0.16584
7450.74,0.17648
7427.6,0.17016
7404.45,0.18006
7381.31,0.17889
7358.16,0.17888
7335.02,0.17247
7311.87,0.17922
7288.73,0.17773
7265.58,0.17554
7242.44,0.17641
7219.29,0.18401
7196.15,0.17564
7173,0.18343
7149.86,0.17919
7126.71,0.18168
7103.57,0.17713
7080.42,0.17930
7057.28,0.18161
7034.13,0.18106
7010.99,0.18042
6987.84,0.18621
6964.7,0.18026
6941.55,0.18463
6918.41,0.18601
6895.26,0.18479
6872.12,0.18630
6848.97,0.18527
6825.83,0.18574
6802.68,0.19084
6779.54,0.18699
6756.39,0.18358
6733.25,0.19286
6710.1,0.18969
6686.96,0.18940
6663.82,0.19226
6640.67,0.19486
6617.53,0.19490
6594.38,0.19390
6571.24,0.19531
6548.09,0.19869
6524.95,0.19844
6501.8,0.20120
6478.66,0.19978
6455.51,0.20698
6432.37,0.20466
6409.22,0.20719
6386.08,0.20725
6362.93,0.20605
6339.79,0.20959
6316.64,0.20828
6293.5,0.21058
6270.35,0.21385
6247.21,0.21549
6224.06,0.21885
6200.92,0.21814
6177.77,0.22118
6154.63,0.22472
6131.48,0.22311
6108.34,0.22443
6085.19,0.22482
6062.05,0.22756
6038.9,0.22808
6015.76,0.23065
5992.61,0.22585
5969.47,0.22305
5946.32,0.22559
5923.18,0.22181
5900.03,0.21498
5876.89,0.21493
5853.74,0.21034
5830.6,0.21185
5807.45,0.20695
5784.31,0.20815
5761.16,0.21302
5738.02,0.21914
5714.87,0.22044
5691.73,0.22068
5668.58,0.22030
5645.44,0.22507
5622.29,0.22862
5599.15,0.23265
5576,0.23678
5552.86,0.23890
5529.71,0.24018
5506.57,0.24029
5483.42,0.24108
5460.28,0.24482
5437.13,0.24657
5413.99,0.24874
5390.84,0.25300
5367.7,0.25545
5344.55,0.25625
5321.41,0.25574
5298.26,0.25304
5275.12,0.24517
5251.97,0.23628
5228.83,0.22678
5205.68,0.22370
5182.54,0.22426
5159.39,0.22702
5136.25,0.23139
5113.1,0.23637
5089.96,0.23966
5066.81,0.24379
5043.67,0.24872
5020.52,0.25200
4997.38,0.25114
4974.23,0.25268
4951.09,0.25057
4927.94,0.24681
4904.8,0.24073
4881.65,0.23357
4858.51,0.22719
4835.36,0.22033
4812.22,0.21485
4789.07,0.21240
4765.93,0.20899
4742.78,0.20872
4719.64,0.21121
4696.49,0.21347
4673.35,0.21480
4650.2,0.21828
4627.06,0.22059
4603.92,0.22485
4580.77,0.22851
4557.63,0.23358
4534.48,0.23596
4511.34,0.23573
4488.19,0.23277
4465.05,0.22349
4441.9,0.20769
4418.76,0.18248
4395.61,0.16234
4372.47,0.15923
4349.32,0.14947
4326.18,0.13740
4303.03,0.14797
4279.89,0.14850
4256.74,0.14025
4233.6,0.14994
4210.45,0.15181
4187.31,0.15380
4164.16,0.15373
4141.02,0.15498
4117.87,0.15484
4094.73,0.15005
4071.58,0.14218
4048.44,0.13718
4025.29,0.13628
4002.15,0.13751
3979,0.14128
3955.86,0.14565
3932.71,0.15074
3909.57,0.15573
3886.42,0.16008
3863.28,0.16499
3840.13,0.17019
3816.99,0.17229
3793.84,0.17398
3770.7,0.17472
3747.55,0.17205
3724.41,0.16533
3701.26,0.13853
3678.12,0.12557
3654.97,0.09879
3631.83,0.08321
3608.68,0.07129
3585.54,0.06264
3562.39,0.05673
3539.25,0.05343
3516.1,0.05056
3492.96,0.04813
3469.81,0.04656
3446.67,0.04485
3423.52,0.04491
3400.38,0.04476
3377.23,0.04370
3354.09,0.04446
3330.94,0.04476
3307.8,0.04546
3284.65,0.04646
3261.51,0.04821
3238.36,0.04951
3215.22,0.05105
3192.07,0.05296
3168.93,0.05482
3145.78,0.05733
3122.64,0.05939
3099.49,0.06002
3076.35,0.06101
3053.2,0.06157
3030.06,0.06166
3006.91,0.05931
2983.77,0.05366
2960.62,0.04742
2937.48,0.04749
2914.33,0.05398
2891.19,0.05358
2868.04,0.05224
2844.9,0.05717
2821.75,0.06310
2798.61,0.06835
2775.46,0.07143
2752.32,0.07250
2729.17,0.07225
2706.03,0.07518
2682.88,0.07794
2659.74,0.07995
2636.59,0.08305
2613.45,0.08542
2590.3,0.08793
2567.16,0.09027
2544.02,0.09130
2520.87,0.09375
2497.73,0.09778
2474.58,0.10258
2451.44,0.10595
2428.29,0.10995
2405.15,0.11435
2382,0.11868
2358.86,0.12204
2335.71,0.12493
2312.57,0.12697
2289.42,0.12724
2266.28,0.12650
2243.13,0.12488
2219.99,0.12571
2196.84,0.12545
2173.7,0.12010
2150.55,0.11541
2127.41,0.11582
2104.26,0.11970
2081.12,0.12193
2057.97,0.12108
2034.83,0.12340
2011.68,0.13151
1988.54,0.13679
1965.39,0.13912
1942.25,0.14039
1919.1,0.14088
1895.96,0.13986
1872.81,0.13997
1849.67,0.13801
1826.52,0.13350
1803.38,0.12254
1780.23,0.10571
1757.09,0.07542
1733.94,0.06549
1710.8,0.06626
1687.65,0.06298
1664.51,0.05748
1641.36,0.05534
1618.22,0.05191
1595.07,0.04998
1571.93,0.05434
1548.78,0.05784
1525.64,0.05876
1502.49,0.05195
1479.35,0.04981
1456.2,0.04561
1433.06,0.04603
1409.91,0.04924
1386.77,0.04647
1363.62,0.04590
1340.48,0.04524
1317.33,0.04505
1294.19,0.04772
1271.04,0.04610
1247.9,0.04531
1224.75,0.04670
1201.61,0.04754
1178.46,0.04703
1155.32,0.04312
1132.17,0.03757
1109.03,0.03879
1085.88,0.03937
1062.74,0.05434
1039.59,0.05926
1016.45,0.06618
993.304,0.06702
970.159,0.07247
947.014,0.07919
923.869,0.07701
900.724,0.06747
877.579,0.07155
854.434,0.07215
831.289,0.06944
808.144,0.06580
784.999,0.06419
761.854,0.05981
738.709,0.05570
715.565,0.05263
692.42,0.05101
669.275,0.04903
646.13,0.05089
622.985,0.04753
599.84,0.05291