Folder: fsri_materials_database/01_Data/Roof_Felt/FTIR/IS (part 2)

File: Roof_Felt_IS_S_220829_R5.dpt
7497.03,0.17191
7473.89,0.17241
7450.74,0.16628
7427.6,0.17038
7404.45,0.17334
7381.31,0.18155
7358.16,0.17682
7335.02,0.17573
7311.87,0.17913
7288.73,0.17433
7265.58,0.17314
7242.44,0.16915
7219.29,0.17214
7196.15,0.17838
7173,0.17661
7149.86,0.18412
7126.71,0.17907
7103.57,0.18056
7080.42,0.17517
7057.28,0.17947
7034.13,0.18212
7010.99,0.17662
6987.84,0.18381
6964.7,0.17779
6941.55,0.18137
6918.41,0.18012
6895.26,0.18431
6872.12,0.18480
6848.97,0.18282
6825.83,0.18545
6802.68,0.19066
6779.54,0.18860
6756.39,0.19076
6733.25,0.19128
6710.1,0.18443
6686.96,0.18922
6663.82,0.19180
6640.67,0.19274
6617.53,0.19732
6594.38,0.19706
6571.24,0.19808
6548.09,0.19787
6524.95,0.20116
6501.8,0.20148
6478.66,0.20244
6455.51,0.20347
6432.37,0.20655
6409.22,0.20450
6386.08,0.20760
6362.93,0.21108
6339.79,0.20884
6316.64,0.21124
6293.5,0.21537
6270.35,0.21764
6247.21,0.21842
6224.06,0.21984
6200.92,0.22112
6177.77,0.22097
6154.63,0.22380
6131.48,0.22391
6108.34,0.22496
6085.19,0.22819
6062.05,0.22597
6038.9,0.22799
6015.76,0.23009
5992.61,0.22709
5969.47,0.22458
5946.32,0.22450
5923.18,0.22161
5900.03,0.21788
5876.89,0.21477
5853.74,0.21545
5830.6,0.21050
5807.45,0.20714
5784.31,0.20747
5761.16,0.21514
5738.02,0.21983
5714.87,0.22152
5691.73,0.22050
5668.58,0.22019
5645.44,0.22487
5622.29,0.23093
5599.15,0.23283
5576,0.23780
5552.86,0.24082
5529.71,0.24086
5506.57,0.24267
5483.42,0.24497
5460.28,0.24539
5437.13,0.24716
5413.99,0.25204
5390.84,0.25226
5367.7,0.25638
5344.55,0.25707
5321.41,0.25446
5298.26,0.25294
5275.12,0.24631
5251.97,0.23703
5228.83,0.22937
5205.68,0.22410
5182.54,0.22653
5159.39,0.22952
5136.25,0.23360
5113.1,0.23738
5089.96,0.24277
5066.81,0.24503
5043.67,0.24961
5020.52,0.25212
4997.38,0.25434
4974.23,0.25331
4951.09,0.25105
4927.94,0.24743
4904.8,0.24056
4881.65,0.23414
4858.51,0.22667
4835.36,0.22135
4812.22,0.21550
4789.07,0.21271
4765.93,0.21004
4742.78,0.20962
4719.64,0.21204
4696.49,0.21488
4673.35,0.21728
4650.2,0.21799
4627.06,0.22183
4603.92,0.22514
4580.77,0.22957
4557.63,0.23429
4534.48,0.23675
4511.34,0.23692
4488.19,0.23395
4465.05,0.22477
4441.9,0.20817
4418.76,0.18314
4395.61,0.16227
4372.47,0.16057
4349.32,0.15060
4326.18,0.13820
4303.03,0.14883
4279.89,0.14903
4256.74,0.14146
4233.6,0.15002
4210.45,0.15322
4187.31,0.15454
4164.16,0.15467
4141.02,0.15605
4117.87,0.15438
4094.73,0.15057
4071.58,0.14252
4048.44,0.13757
4025.29,0.13613
4002.15,0.13790
3979,0.14174
3955.86,0.14587
3932.71,0.15119
3909.57,0.15627
3886.42,0.15968
3863.28,0.16534
3840.13,0.17146
3816.99,0.17285
3793.84,0.17492
3770.7,0.17520
3747.55,0.17343
3724.41,0.16645
3701.26,0.13995
3678.12,0.12568
3654.97,0.09919
3631.83,0.08381
3608.68,0.07139
3585.54,0.06248
3562.39,0.05615
3539.25,0.05333
3516.1,0.05003
3492.96,0.04786
3469.81,0.04564
3446.67,0.04539
3423.52,0.04476
3400.38,0.04467
3377.23,0.04434
3354.09,0.04407
3330.94,0.04473
3307.8,0.04573
3284.65,0.04567
3261.51,0.04779
3238.36,0.04948
3215.22,0.05126
3192.07,0.05320
3168.93,0.05547
3145.78,0.05717
3122.64,0.05910
3099.49,0.06079
3076.35,0.06134
3053.2,0.06176
3030.06,0.06149
3006.91,0.05951
2983.77,0.05444
2960.62,0.04762
2937.48,0.04775
2914.33,0.05409
2891.19,0.05314
2868.04,0.05227
2844.9,0.05734
2821.75,0.06337
2798.61,0.06829
2775.46,0.07162
2752.32,0.07315
2729.17,0.07229
2706.03,0.07519
2682.88,0.07808
2659.74,0.08064
2636.59,0.08322
2613.45,0.08577
2590.3,0.08851
2567.16,0.09094
2544.02,0.09219
2520.87,0.09356
2497.73,0.09805
2474.58,0.10283
2451.44,0.10610
2428.29,0.11037
2405.15,0.11476
2382,0.11899
2358.86,0.12253
2335.71,0.12544
2312.57,0.12732
2289.42,0.12794
2266.28,0.12727
2243.13,0.12548
2219.99,0.12633
2196.84,0.12596
2173.7,0.12037
2150.55,0.11630
2127.41,0.11639
2104.26,0.11989
2081.12,0.12253
2057.97,0.12163
2034.83,0.12409
2011.68,0.13224
1988.54,0.13767
1965.39,0.13986
1942.25,0.14109
1919.1,0.14148
1895.96,0.14076
1872.81,0.14099
1849.67,0.13875
1826.52,0.13411
1803.38,0.12329
1780.23,0.10595
1757.09,0.07591
1733.94,0.06552
1710.8,0.06682
1687.65,0.06303
1664.51,0.05748
1641.36,0.05544
1618.22,0.05252
1595.07,0.05011
1571.93,0.05468
1548.78,0.05822
1525.64,0.05901
1502.49,0.05256
1479.35,0.04995
1456.2,0.04611
1433.06,0.04644
1409.91,0.04915
1386.77,0.04661
1363.62,0.04591
1340.48,0.04531
1317.33,0.04540
1294.19,0.04770
1271.04,0.04646
1247.9,0.04575
1224.75,0.04654
1201.61,0.04778
1178.46,0.04748
1155.32,0.04293
1132.17,0.03760
1109.03,0.03991
1085.88,0.03958
1062.74,0.05507
1039.59,0.05992
1016.45,0.06609
993.304,0.06725
970.159,0.07303
947.014,0.07826
923.869,0.07765
900.724,0.06774
877.579,0.07163
854.434,0.07105
831.289,0.06893
808.144,0.06573
784.999,0.06414
761.854,0.05987
738.709,0.05545
715.565,0.05270
692.42,0.05121
669.275,0.04982
646.13,0.05042
622.985,0.04909
599.84,0.05470

File: Roof_Felt_IS_S_220829_R6.dpt
7497.03,0.16620
7473.89,0.16066
7450.74,0.15674
7427.6,0.17428
7404.45,0.16521
7381.31,0.17067
7358.16,0.18227
7335.02,0.16954
7311.87,0.17611
7288.73,0.17768
7265.58,0.18848
7242.44,0.17793
7219.29,0.18341
7196.15,0.18371
7173,0.17665
7149.86,0.18105
7126.71,0.18124
7103.57,0.17830
7080.42,0.18395
7057.28,0.18396
7034.13,0.17843
7010.99,0.17994
6987.84,0.17172
6964.7,0.17829
6941.55,0.17460
6918.41,0.18147
6895.26,0.18588
6872.12,0.18500
6848.97,0.18818
6825.83,0.18503
6802.68,0.18751
6779.54,0.18442
6756.39,0.18794
6733.25,0.19325
6710.1,0.18894
6686.96,0.19116
6663.82,0.19624
6640.67,0.19584
6617.53,0.19573
6594.38,0.19696
6571.24,0.19663
6548.09,0.19624
6524.95,0.20145
6501.8,0.19984
6478.66,0.20276
6455.51,0.20321
6432.37,0.20558
6409.22,0.20625
6386.08,0.20544
6362.93,0.20749
6339.79,0.20764
6316.64,0.21120
6293.5,0.21072
6270.35,0.21263
6247.21,0.21668
6224.06,0.22092
6200.92,0.21980
6177.77,0.22090
6154.63,0.22148
6131.48,0.22783
6108.34,0.22682
6085.19,0.22787
6062.05,0.22754
6038.9,0.23283
6015.76,0.22661
5992.61,0.22616
5969.47,0.22428
5946.32,0.22560
5923.18,0.22038
5900.03,0.21644
5876.89,0.21340
5853.74,0.21390
5830.6,0.21079
5807.45,0.20724
5784.31,0.20909
5761.16,0.21451
5738.02,0.21922
5714.87,0.22010
5691.73,0.22043
5668.58,0.21904
5645.44,0.22725
5622.29,0.22824
5599.15,0.23474
5576,0.23691
5552.86,0.24006
5529.71,0.24205
5506.57,0.24155
5483.42,0.24285
5460.28,0.24458
5437.13,0.24607
5413.99,0.25040
5390.84,0.25226
5367.7,0.25479
5344.55,0.25543
5321.41,0.25496
5298.26,0.25318
5275.12,0.24610
5251.97,0.23719
5228.83,0.23103
5205.68,0.22576
5182.54,0.22590
5159.39,0.23050
5136.25,0.23268
5113.1,0.24069
5089.96,0.24114
5066.81,0.24513
5043.67,0.25067
5020.52,0.25284
4997.38,0.25379
4974.23,0.25341
4951.09,0.25139
4927.94,0.24859
4904.8,0.24149
4881.65,0.23457
4858.51,0.22703
4835.36,0.22049
4812.22,0.21559
4789.07,0.21278
4765.93,0.20998
4742.78,0.20987
4719.64,0.21265
4696.49,0.21338
4673.35,0.21611
4650.2,0.21898
4627.06,0.22091
4603.92,0.22450
4580.77,0.22967
4557.63,0.23423
4534.48,0.23635
4511.34,0.23680
4488.19,0.23358
4465.05,0.22405
4441.9,0.20829
4418.76,0.18254
4395.61,0.16246
4372.47,0.16074
4349.32,0.15073
4326.18,0.13762
4303.03,0.14845
4279.89,0.14903
4256.74,0.14010
4233.6,0.15015
4210.45,0.15298
4187.31,0.15406
4164.16,0.15483
4141.02,0.15560
4117.87,0.15418
4094.73,0.15014
4071.58,0.14292
4048.44,0.13817
4025.29,0.13564
4002.15,0.13779
3979,0.14153
3955.86,0.14614
3932.71,0.15128
3909.57,0.15589
3886.42,0.15973
3863.28,0.16519
3840.13,0.17128
3816.99,0.17309
3793.84,0.17473
3770.7,0.17520
3747.55,0.17315
3724.41,0.16675
3701.26,0.14021
3678.12,0.12559
3654.97,0.10007
3631.83,0.08441
3608.68,0.07113
3585.54,0.06317
3562.39,0.05727
3539.25,0.05293
3516.1,0.05052
3492.96,0.04789
3469.81,0.04699
3446.67,0.04581
3423.52,0.04520
3400.38,0.04446
3377.23,0.04395
3354.09,0.04468
3330.94,0.04481
3307.8,0.04549
3284.65,0.04698
3261.51,0.04783
3238.36,0.04883
3215.22,0.05131
3192.07,0.05276
3168.93,0.05531
3145.78,0.05680
3122.64,0.05880
3099.49,0.06032
3076.35,0.06076
3053.2,0.06140
3030.06,0.06155
3006.91,0.05989
2983.77,0.05350
2960.62,0.04783
2937.48,0.04732
2914.33,0.05412
2891.19,0.05327
2868.04,0.05234
2844.9,0.05720
2821.75,0.06323
2798.61,0.06864
2775.46,0.07141
2752.32,0.07268
2729.17,0.07198
2706.03,0.07533
2682.88,0.07796
2659.74,0.08008
2636.59,0.08267
2613.45,0.08594
2590.3,0.08881
2567.16,0.09083
2544.02,0.09188
2520.87,0.09370
2497.73,0.09826
2474.58,0.10283
2451.44,0.10598
2428.29,0.11048
2405.15,0.11472
2382,0.11854
2358.86,0.12284
2335.71,0.12561
2312.57,0.12734
2289.42,0.12801
2266.28,0.12720
2243.13,0.12545
2219.99,0.12612
2196.84,0.12616
2173.7,0.12086
2150.55,0.11651
2127.41,0.11661
2104.26,0.12031
2081.12,0.12262
2057.97,0.12170
2034.83,0.12425
2011.68,0.13241
1988.54,0.13825
1965.39,0.13994
1942.25,0.14100
1919.1,0.14187
1895.96,0.14061
1872.81,0.14091
1849.67,0.13841
1826.52,0.13428
1803.38,0.12309
1780.23,0.10619
1757.09,0.07559
1733.94,0.06591
1710.8,0.06698
1687.65,0.06352
1664.51,0.05725
1641.36,0.05571
1618.22,0.05248
1595.07,0.04998
1571.93,0.05445
1548.78,0.05847
1525.64,0.05887
1502.49,0.05214
1479.35,0.04964
1456.2,0.04594
1433.06,0.04608
1409.91,0.04899
1386.77,0.04646
1363.62,0.04578
1340.48,0.04535
1317.33,0.04470
1294.19,0.04791
1271.04,0.04572
1247.9,0.04583
1224.75,0.04694
1201.61,0.04754
1178.46,0.04779
1155.32,0.04273
1132.17,0.03767
1109.03,0.03927
1085.88,0.03918
1062.74,0.05547
1039.59,0.06055
1016.45,0.06589
993.304,0.06735
970.159,0.07243
947.014,0.07864
923.869,0.07761
900.724,0.06795
877.579,0.07109
854.434,0.07233
831.289,0.07012
808.144,0.06596
784.999,0.06497
761.854,0.06015
738.709,0.05528
715.565,0.05281
692.42,0.05224
669.275,0.04804
646.13,0.04954
622.985,0.04919
599.84,0.05109

File: Roof_Felt_IS_S_220829_R7.dpt
7497.03,0.17128
7473.89,0.17019
7450.74,0.16904
7427.6,0.17837
7404.45,0.17683
7381.31,0.17360
7358.16,0.16812
7335.02,0.17567
7311.87,0.17475
7288.73,0.17788
7265.58,0.17873
7242.44,0.18739
7219.29,0.18143
7196.15,0.17597
7173,0.18630
7149.86,0.18030
7126.71,0.17941
7103.57,0.18089
7080.42,0.17673
7057.28,0.17961
7034.13,0.18444
7010.99,0.17388
6987.84,0.17654
6964.7,0.18183
6941.55,0.18255
6918.41,0.18228
6895.26,0.18185
6872.12,0.18069
6848.97,0.18321
6825.83,0.19230
6802.68,0.18780
6779.54,0.18780
6756.39,0.19055
6733.25,0.18888
6710.1,0.18649
6686.96,0.19144
6663.82,0.19003
6640.67,0.19381
6617.53,0.19678
6594.38,0.19532
6571.24,0.19513
6548.09,0.19628
6524.95,0.20127
6501.8,0.20417
6478.66,0.19775
6455.51,0.20660
6432.37,0.20220
6409.22,0.20593
6386.08,0.20697
6362.93,0.20741
6339.79,0.21088
6316.64,0.21448
6293.5,0.21224
6270.35,0.21341
6247.21,0.21641
6224.06,0.22010
6200.92,0.22223
6177.77,0.22078
6154.63,0.22271
6131.48,0.22747
6108.34,0.22349
6085.19,0.22734
6062.05,0.22650
6038.9,0.22872
6015.76,0.23012
5992.61,0.22546
5969.47,0.22496
5946.32,0.22232
5923.18,0.21924
5900.03,0.21944
5876.89,0.21300
5853.74,0.21278
5830.6,0.21084
5807.45,0.20779
5784.31,0.20842
5761.16,0.21169
5738.02,0.22048
5714.87,0.21756
5691.73,0.21923
5668.58,0.22075
5645.44,0.22282
5622.29,0.23032
5599.15,0.23241
5576,0.23704
5552.86,0.24017
5529.71,0.24021
5506.57,0.24221
5483.42,0.24195
5460.28,0.24301
5437.13,0.24699
5413.99,0.24944
5390.84,0.25170
5367.7,0.25467
5344.55,0.25611
5321.41,0.25614
5298.26,0.25240
5275.12,0.24695
5251.97,0.23628
5228.83,0.22987
5205.68,0.22704
5182.54,0.22728
5159.39,0.22983
5136.25,0.23223
5113.1,0.23663
5089.96,0.24124
5066.81,0.24558
5043.67,0.24994
5020.52,0.25209
4997.38,0.25372
4974.23,0.25323
4951.09,0.25100
4927.94,0.24654
4904.8,0.23986
4881.65,0.23253
4858.51,0.22722
4835.36,0.21975
4812.22,0.21506
4789.07,0.21110
4765.93,0.20955
4742.78,0.20796
4719.64,0.21042
4696.49,0.21398
4673.35,0.21691
4650.2,0.21792
4627.06,0.21966
4603.92,0.22436
4580.77,0.22936
4557.63,0.23326
4534.48,0.23551
4511.34,0.23651
4488.19,0.23200
4465.05,0.22426
4441.9,0.20667
4418.76,0.18237
4395.61,0.16226
4372.47,0.15961
4349.32,0.14980
4326.18,0.13789
4303.03,0.14819
4279.89,0.14866
4256.74,0.13999
4233.6,0.14935
4210.45,0.15240
4187.31,0.15367
4164.16,0.15373
4141.02,0.15555
4117.87,0.15346
4094.73,0.15044
4071.58,0.14207
4048.44,0.13744
4025.29,0.13540
4002.15,0.13825
3979,0.14168
3955.86,0.14607
3932.71,0.15105
3909.57,0.15593
3886.42,0.15993
3863.28,0.16494
3840.13,0.17038
3816.99,0.17277
3793.84,0.17444
3770.7,0.17547
3747.55,0.17303
3724.41,0.16631
3701.26,0.13906
3678.12,0.12644
3654.97,0.10098
3631.83,0.08475
3608.68,0.07210
3585.54,0.06278
3562.39,0.05656
3539.25,0.05288
3516.1,0.05034
3492.96,0.04782
3469.81,0.04621
3446.67,0.04470
3423.52,0.04443
3400.38,0.04459
3377.23,0.04476
3354.09,0.04418
3330.94,0.04452
3307.8,0.04565
3284.65,0.04637
3261.51,0.04824
3238.36,0.04972
3215.22,0.05125
3192.07,0.05258
3168.93,0.05525
3145.78,0.05692
3122.64,0.05898
3099.49,0.06074
3076.35,0.06142
3053.2,0.06145
3030.06,0.06165
3006.91,0.05963
2983.77,0.05389
2960.62,0.04748
2937.48,0.04764
2914.33,0.05366
2891.19,0.05285
2868.04,0.05245
2844.9,0.05690
2821.75,0.06286
2798.61,0.06812
2775.46,0.07166
2752.32,0.07243
2729.17,0.07288
2706.03,0.07549
2682.88,0.07806
2659.74,0.08032
2636.59,0.08288
2613.45,0.08611
2590.3,0.08811
2567.16,0.09113
2544.02,0.09169
2520.87,0.09348
2497.73,0.09800
2474.58,0.10234
2451.44,0.10586
2428.29,0.10999
2405.15,0.11441
2382,0.11850
2358.86,0.12229
2335.71,0.12494
2312.57,0.12716
2289.42,0.12770
2266.28,0.12672
2243.13,0.12494
2219.99,0.12616
2196.84,0.12609
2173.7,0.12034
2150.55,0.11615
2127.41,0.11648
2104.26,0.12031
2081.12,0.12272
2057.97,0.12144
2034.83,0.12399
2011.68,0.13229
1988.54,0.13749
1965.39,0.14002
1942.25,0.14102
1919.1,0.14181
1895.96,0.14063
1872.81,0.14047
1849.67,0.13829
1826.52,0.13406
1803.38,0.12290
1780.23,0.10577
1757.09,0.07545
1733.94,0.06520
1710.8,0.06649
1687.65,0.06320
1664.51,0.05760
1641.36,0.05543
1618.22,0.05236
1595.07,0.04973
1571.93,0.05472
1548.78,0.05830
1525.64,0.05864
1502.49,0.05196
1479.35,0.04947
1456.2,0.04595
1433.06,0.04570
1409.91,0.04932
1386.77,0.04633
1363.62,0.04526
1340.48,0.04511
1317.33,0.04511
1294.19,0.04745
1271.04,0.04604
1247.9,0.04555
1224.75,0.04683
1201.61,0.04743
1178.46,0.04707
1155.32,0.04253
1132.17,0.03747
1109.03,0.03910
1085.88,0.03936
1062.74,0.05522
1039.59,0.05987
1016.45,0.06576
993.304,0.06752
970.159,0.07268
947.014,0.07881
923.869,0.07774
900.724,0.06817
877.579,0.07115
854.434,0.07171
831.289,0.06900
808.144,0.06607
784.999,0.06396
761.854,0.06058
738.709,0.05635
715.565,0.05217
692.42,0.05103
669.275,0.04966
646.13,0.04943
622.985,0.04875
599.84,0.05313

File: Roof_Felt_IS_S_220829_R8.dpt
7497.03,0.16597
7473.89,0.17349
7450.74,0.16538
7427.6,0.17751
7404.45,0.17508
7381.31,0.16740
7358.16,0.17717
7335.02,0.17533
7311.87,0.16953
7288.73,0.17179
7265.58,0.17341
7242.44,0.17633
7219.29,0.18083
7196.15,0.18064
7173,0.17541
7149.86,0.17599
7126.71,0.18696
7103.57,0.18172
7080.42,0.18155
7057.28,0.17876
7034.13,0.18481
7010.99,0.17943
6987.84,0.18056
6964.7,0.18634
6941.55,0.18413
6918.41,0.18223
6895.26,0.17800
6872.12,0.18006
6848.97,0.18217
6825.83,0.18661
6802.68,0.18624
6779.54,0.18525
6756.39,0.18471
6733.25,0.18633
6710.1,0.18858
6686.96,0.19207
6663.82,0.19476
6640.67,0.19298
6617.53,0.19315
6594.38,0.19381
6571.24,0.20381
6548.09,0.19970
6524.95,0.20569
6501.8,0.20284
6478.66,0.20388
6455.51,0.20358
6432.37,0.20456
6409.22,0.20584
6386.08,0.20708
6362.93,0.21018
6339.79,0.20975
6316.64,0.21289
6293.5,0.20944
6270.35,0.21529
6247.21,0.21346
6224.06,0.21936
6200.92,0.21993
6177.77,0.22307
6154.63,0.22485
6131.48,0.22619
6108.34,0.22703
6085.19,0.22687
6062.05,0.22622
6038.9,0.22992
6015.76,0.22809
5992.61,0.22412
5969.47,0.22415
5946.32,0.22285
5923.18,0.21948
5900.03,0.21510
5876.89,0.21466
5853.74,0.21037
5830.6,0.20951
5807.45,0.20815
5784.31,0.20865
5761.16,0.21193
5738.02,0.22138
5714.87,0.22254
5691.73,0.21975
5668.58,0.22159
5645.44,0.22348
5622.29,0.22886
5599.15,0.23338
5576,0.23676
5552.86,0.23861
5529.71,0.23998
5506.57,0.24152
5483.42,0.24215
5460.28,0.24500
5437.13,0.24726
5413.99,0.25025
5390.84,0.25199
5367.7,0.25271
5344.55,0.25671
5321.41,0.25569
5298.26,0.25233
5275.12,0.24762
5251.97,0.23899
5228.83,0.23120
5205.68,0.22787
5182.54,0.22878
5159.39,0.23086
5136.25,0.23499
5113.1,0.23993
5089.96,0.24308
5066.81,0.24646
5043.67,0.25134
5020.52,0.25267
4997.38,0.25375
4974.23,0.25215
4951.09,0.25244
4927.94,0.24770
4904.8,0.24191
4881.65,0.23384
4858.51,0.22646
4835.36,0.22020
4812.22,0.21540
4789.07,0.21134
4765.93,0.21006
4742.78,0.20941
4719.64,0.21110
4696.49,0.21333
4673.35,0.21577
4650.2,0.21758
4627.06,0.21989
4603.92,0.22437
4580.77,0.22960
4557.63,0.23512
4534.48,0.23552
4511.34,0.23585
4488.19,0.23329
4465.05,0.22347
4441.9,0.20671
4418.76,0.18221
4395.61,0.16242
4372.47,0.16068
4349.32,0.15009
4326.18,0.13762
4303.03,0.14759
4279.89,0.14843
4256.74,0.14052
4233.6,0.15028
4210.45,0.15317
4187.31,0.15330
4164.16,0.15418
4141.02,0.15532
4117.87,0.15406
4094.73,0.15079
4071.58,0.14228
4048.44,0.13756
4025.29,0.13562
4002.15,0.13822
3979,0.14195
3955.86,0.14618
3932.71,0.15113
3909.57,0.15599
3886.42,0.16032
3863.28,0.16580
3840.13,0.17053
3816.99,0.17380
3793.84,0.17480
3770.7,0.17584
3747.55,0.17379
3724.41,0.16723
3701.26,0.14069
3678.12,0.12667
3654.97,0.10048
3631.83,0.08463
3608.68,0.07173
3585.54,0.06326
3562.39,0.05666
3539.25,0.05328
3516.1,0.04982
3492.96,0.04820
3469.81,0.04609
3446.67,0.04498
3423.52,0.04479
3400.38,0.04467
3377.23,0.04445
3354.09,0.04413
3330.94,0.04467
3307.8,0.04500
3284.65,0.04688
3261.51,0.04786
3238.36,0.05008
3215.22,0.05135
3192.07,0.05317
3168.93,0.05508
3145.78,0.05679
3122.64,0.05883
3099.49,0.06059
3076.35,0.06116
3053.2,0.06127
3030.06,0.06180
3006.91,0.05937
2983.77,0.05376
2960.62,0.04751
2937.48,0.04680
2914.33,0.05403
2891.19,0.05268
2868.04,0.05170
2844.9,0.05750
2821.75,0.06325
2798.61,0.06818
2775.46,0.07123
2752.32,0.07246
2729.17,0.07252
2706.03,0.07520
2682.88,0.07780
2659.74,0.08020
2636.59,0.08291
2613.45,0.08575
2590.3,0.08851
2567.16,0.09069
2544.02,0.09197
2520.87,0.09411
2497.73,0.09801
2474.58,0.10259
2451.44,0.10618
2428.29,0.11038
2405.15,0.11454
2382,0.11870
2358.86,0.12204
2335.71,0.12554
2312.57,0.12792
2289.42,0.12801
2266.28,0.12737
2243.13,0.12554
2219.99,0.12666
2196.84,0.12647
2173.7,0.12127
2150.55,0.11639
2127.41,0.11673
2104.26,0.12054
2081.12,0.12315
2057.97,0.12206
2034.83,0.12463
2011.68,0.13258
1988.54,0.13817
1965.39,0.14022
1942.25,0.14159
1919.1,0.14200
1895.96,0.14093
1872.81,0.14089
1849.67,0.13889
1826.52,0.13436
1803.38,0.12333
1780.23,0.10605
1757.09,0.07568
1733.94,0.06560
1710.8,0.06707
1687.65,0.06362
1664.51,0.05757
1641.36,0.05554
1618.22,0.05212
1595.07,0.04992
1571.93,0.05444
1548.78,0.05869
1525.64,0.05914
1502.49,0.05232
1479.35,0.04964
1456.2,0.04609
1433.06,0.04621
1409.91,0.04902
1386.77,0.04618
1363.62,0.04545
1340.48,0.04538
1317.33,0.04483
1294.19,0.04702
1271.04,0.04573
1247.9,0.04578
1224.75,0.04679
1201.61,0.04755
1178.46,0.04750
1155.32,0.04323
1132.17,0.03727
1109.03,0.03926
1085.88,0.03943
1062.74,0.05567
1039.59,0.06025
1016.45,0.06568
993.304,0.06707
970.159,0.07269
947.014,0.07910
923.869,0.07696
900.724,0.06836
877.579,0.07081
854.434,0.07243
831.289,0.06883
808.144,0.06523
784.999,0.06465
761.854,0.05921
738.709,0.05617
715.565,0.05319
692.42,0.05131
669.275,0.04946
646.13,0.04947
622.985,0.04792
599.84,0.05226