Folder: fsri_materials_database/01_Data/PET/Cone (part 2)

File: PET_HRRPUA_75.csv
Time after Ignition,PET_R1,PET_R2,PET_R3,Mean,Std. Dev.
0.0,148.6,17.5,58.7,74.9,67.0
1.25,203.8,35.7,86.5,108.7,86.2
2.5,246.8,61.5,128.1,145.4,93.9
3.75,291.6,87.6,169.6,182.9,102.7
5.0,330.4,124.5,224.7,226.5,102.9
6.25,376.5,161.8,259.3,265.9,107.5
7.5,421.6,211.0,300.8,311.1,105.7
8.75,480.2,239.6,334.5,351.4,121.2
10.0,531.3,269.8,364.1,388.4,132.4
11.25,543.9,298.3,437.3,426.5,123.2
12.5,573.9,339.4,477.2,463.5,117.9
13.75,624.7,381.6,516.9,507.8,121.8
15.0,636.2,418.0,556.5,536.9,110.4
16.25,659.4,446.8,608.1,571.4,110.9
17.5,682.4,499.3,612.3,598.0,92.4
18.75,658.8,506.5,628.9,598.1,80.7
20.0,701.1,555.7,622.6,626.5,72.8
21.25,692.4,565.6,676.3,644.8,69.0
22.5,705.5,577.9,662.1,648.5,64.9
23.75,697.7,619.7,678.6,665.3,40.7
25.0,701.2,604.8,673.0,659.7,49.6
26.25,689.4,597.4,670.8,652.5,48.6
27.5,680.1,635.0,656.0,657.0,22.6
28.75,668.9,628.7,681.3,659.6,27.5
30.0,662.4,621.7,654.5,646.2,21.5
31.25,692.7,668.2,661.3,674.0,16.5
32.5,645.9,640.9,647.8,644.9,3.6
33.75,663.4,634.8,638.2,645.4,15.6
35.0,672.6,628.6,626.7,642.7,26.0
36.25,666.0,643.1,654.3,654.5,11.5
37.5,664.8,631.7,624.0,640.2,21.7
38.75,646.0,628.7,625.4,633.3,11.1
40.0,646.6,638.7,607.9,631.1,20.4
41.25,615.5,646.5,623.7,628.5,16.1
42.5,636.2,630.8,607.2,624.7,15.4
43.75,643.6,622.9,617.3,627.9,13.8
45.0,634.5,632.1,618.5,628.4,8.6
46.25,640.8,642.6,615.0,632.8,15.4
47.5,634.2,644.9,621.6,633.6,11.7
48.75,641.0,656.8,621.3,639.7,17.8
50.0,628.3,634.6,593.9,618.9,21.9
51.25,637.8,641.3,612.6,630.6,15.7
52.5,638.0,660.8,601.1,633.3,30.2
53.75,636.5,634.5,618.7,629.9,9.7
55.0,640.7,639.6,612.8,631.0,15.8
56.25,657.7,645.5,614.5,639.2,22.2
57.5,656.0,636.1,617.7,636.6,19.2
58.75,647.7,631.4,612.6,630.6,17.6
60.0,673.5,640.5,604.2,639.4,34.6
61.25,650.8,647.3,606.7,634.9,24.5
62.5,642.9,642.9,622.1,636.0,12.0
63.75,659.6,640.2,627.8,642.5,16.0
65.0,633.8,652.8,625.1,637.2,14.2
66.25,643.0,626.4,614.3,627.9,14.4
67.5,613.8,619.5,637.7,623.7,12.5
68.75,623.2,626.6,655.8,635.2,17.9
70.0,644.6,604.0,660.0,636.2,29.0
71.25,635.8,627.4,654.0,639.1,13.6
72.5,620.0,614.1,692.4,642.2,43.6
73.75,627.0,610.1,678.6,638.5,35.7
75.0,607.8,632.1,687.0,642.3,40.6
76.25,646.7,601.7,678.8,642.4,38.7
77.5,613.0,592.9,695.2,633.7,54.2
78.75,598.6,612.5,701.1,637.4,55.6
80.0,585.2,591.4,680.8,619.1,53.5
81.25,553.5,616.9,693.7,621.4,70.3
82.5,529.8,592.4,703.8,608.7,88.1
83.75,520.2,602.9,688.1,603.7,83.9
85.0,500.6,586.3,688.5,591.8,94.1
86.25,502.7,597.3,669.9,590.0,83.8
87.5,516.5,602.3,652.2,590.3,68.6
88.75,504.1,591.1,635.4,576.9,66.8
90.0,523.7,546.5,612.4,560.8,46.0
91.25,518.7,546.8,635.8,567.1,61.1
92.5,527.9,548.9,636.6,571.1,57.7
93.75,518.5,537.8,691.2,582.5,94.6
95.0,524.0,532.4,620.0,558.8,53.2
96.25,511.6,547.5,655.0,571.4,74.6
97.5,535.6,551.9,646.3,577.9,59.8
98.75,543.1,559.6,630.1,577.6,46.2
100.0,535.0,586.7,652.0,591.2,58.6
101.25,546.9,577.8,641.4,588.7,48.2
102.5,531.9,595.4,638.2,588.5,53.5
103.75,539.5,605.1,637.0,593.9,49.7
105.0,551.8,574.0,622.5,582.8,36.1
106.25,542.0,571.2,616.3,576.5,37.4
107.5,538.2,591.8,611.4,580.5,37.9
108.75,547.0,585.5,606.3,579.6,30.1
110.0,539.8,590.8,584.7,571.8,27.9
111.25,552.7,566.9,587.3,569.0,17.4
112.5,551.1,568.9,589.3,569.8,19.1
113.75,558.5,566.9,571.3,565.6,6.5
115.0,552.7,548.9,577.9,559.8,15.7
116.25,538.8,560.3,571.0,556.7,16.4
117.5,540.4,544.2,559.7,548.1,10.2
118.75,509.8,547.8,546.9,534.8,21.7
120.0,516.4,555.9,551.5,541.3,21.7
121.25,500.5,545.8,540.5,528.9,24.8
122.5,492.4,525.2,533.0,516.9,21.5
123.75,502.4,519.9,525.7,516.0,12.1
125.0,501.9,518.4,522.0,514.1,10.7
126.25,489.8,511.1,518.6,506.5,14.9
127.5,502.8,505.6,507.8,505.4,2.5
128.75,501.3,492.9,513.7,502.6,10.5
130.0,488.6,499.0,498.2,495.3,5.8
131.25,494.6,494.6,502.9,497.4,4.8
132.5,492.1,489.3,506.2,495.9,9.0
133.75,505.9,481.8,497.2,495.0,12.2
135.0,498.5,494.7,503.2,498.8,4.2
136.25,510.5,488.0,490.3,496.3,12.4
137.5,509.6,506.4,499.4,505.1,5.2
138.75,505.3,488.9,516.6,503.6,13.9
140.0,517.4,499.8,519.8,512.3,10.9
141.25,511.1,485.4,522.6,506.4,19.1
142.5,515.7,504.7,541.3,520.6,18.8
143.75,510.8,509.9,541.7,520.8,18.1
145.0,494.0,508.9,549.9,517.6,29.0
146.25,516.3,511.3,571.7,533.1,33.5
147.5,507.6,495.3,569.1,524.0,39.5
148.75,517.8,515.8,588.0,540.5,41.1
150.0,507.2,497.5,597.1,533.9,54.9
151.25,501.7,506.6,609.1,539.1,60.6
152.5,514.8,511.2,607.1,544.4,54.3
153.75,508.3,491.9,617.6,539.2,68.3
155.0,506.1,522.2,606.9,545.1,54.1
156.25,501.3,505.3,615.4,540.7,64.8
157.5,506.0,532.4,616.8,551.7,57.9
158.75,503.9,512.6,638.2,551.6,75.1
160.0,485.3,510.3,630.4,542.0,77.5
161.25,478.3,530.6,613.6,540.8,68.2
162.5,477.0,531.6,631.0,546.5,78.1
163.75,476.2,521.9,622.3,540.1,74.7
165.0,467.7,519.9,638.2,542.0,87.4
166.25,476.3,518.7,648.0,547.6,89.4
167.5,456.7,527.1,654.5,546.1,100.3
168.75,460.4,525.5,652.5,546.1,97.7
170.0,466.9,524.2,669.3,553.5,104.3
171.25,467.7,520.4,657.6,548.5,98.0
172.5,471.5,522.4,696.4,563.5,117.9
173.75,465.1,539.3,677.9,560.8,108.0
175.0,487.9,522.7,660.7,557.1,91.4
176.25,474.1,527.0,662.1,554.4,96.9
177.5,488.5,518.0,636.8,547.7,78.5
178.75,472.8,519.4,639.2,543.8,85.9
180.0,470.2,503.4,631.9,535.2,85.4
181.25,480.6,520.4,622.4,541.1,73.1
182.5,480.8,510.5,618.0,536.5,72.2
183.75,485.0,529.0,615.0,543.0,66.1
185.0,487.8,519.2,608.7,538.6,62.7
186.25,499.1,513.4,602.0,538.1,55.7
187.5,504.8,526.9,603.4,545.0,51.8
188.75,509.1,522.3,593.5,541.6,45.4
190.0,517.8,546.3,620.0,561.4,52.7
191.25,520.6,532.4,613.5,555.5,50.5
192.5,532.2,538.1,616.9,562.4,47.3
193.75,529.0,531.2,627.9,562.7,56.5
195.0,547.3,525.9,626.0,566.4,52.7
196.25,553.9,516.7,655.9,575.5,72.1
197.5,551.3,527.0,666.7,581.6,74.6
198.75,581.7,534.9,668.0,594.9,67.5
200.0,584.9,519.9,676.9,593.9,78.9
201.25,602.4,519.7,696.6,606.2,88.5
202.5,614.4,540.6,688.7,614.6,74.1
203.75,595.2,550.5,699.4,615.0,76.4
205.0,626.9,561.5,718.1,635.5,78.6
206.25,633.8,579.6,705.9,639.8,63.3
207.5,649.2,576.1,732.3,652.5,78.2
208.75,649.4,580.4,755.2,661.7,88.0
210.0,641.3,619.0,779.9,680.1,87.2
211.25,631.9,616.6,781.3,676.6,91.0
212.5,624.8,630.3,763.6,672.9,78.6
213.75,624.2,659.5,771.4,685.0,76.8
215.0,629.0,667.6,765.8,687.5,70.5
216.25,610.7,723.2,771.8,701.9,82.7
217.5,611.4,704.7,748.0,688.0,69.8
218.75,605.1,775.7,725.5,702.1,87.7
220.0,599.6,781.9,686.8,689.4,91.1
221.25,591.7,790.1,650.3,677.3,101.9
222.5,595.3,793.2,616.0,668.2,108.8
223.75,596.6,817.5,596.4,670.2,127.6
225.0,614.7,813.4,579.8,669.3,126.0
226.25,605.0,803.0,571.4,659.8,125.1
227.5,602.5,798.2,548.9,649.9,131.2
228.75,590.9,768.3,535.1,631.4,121.7
230.0,574.8,776.3,520.0,623.7,135.0
231.25,559.2,764.1,494.5,605.9,140.8
232.5,582.0,753.1,490.9,608.7,133.1
233.75,570.5,761.3,471.9,601.2,147.1
235.0,556.9,762.2,457.8,592.3,155.3
236.25,547.7,732.1,444.9,574.9,145.5
237.5,566.0,727.2,438.0,577.1,144.9
238.75,562.3,715.8,427.1,568.4,144.4
240.0,561.2,671.7,413.3,548.7,129.6
241.25,564.2,669.0,408.0,547.0,131.3
242.5,545.1,643.7,395.2,528.0,125.1
243.75,544.5,628.3,388.2,520.3,121.9
245.0,520.3,616.7,377.0,504.6,120.6
246.25,497.6,592.4,368.1,486.0,112.6
247.5,489.1,573.6,366.8,476.5,104.0
248.75,465.0,557.4,354.5,459.0,101.6
250.0,454.3,532.6,351.1,446.0,91.0
251.25,436.2,514.2,341.0,430.5,86.7
252.5,432.8,508.0,338.9,426.6,84.7
253.75,416.8,489.9,330.5,412.4,79.8
255.0,404.2,483.5,318.4,402.0,82.6
256.25,394.9,456.6,312.9,388.1,72.1
257.5,388.4,455.0,306.4,383.3,74.4
258.75,376.4,442.3,295.9,371.5,73.3
260.0,370.7,418.1,291.4,360.0,64.0
261.25,355.7,414.3,284.8,351.6,64.8
262.5,358.5,400.7,280.0,346.4,61.2
263.75,345.3,377.6,275.8,332.9,52.0
265.0,343.3,365.6,270.9,326.6,49.5
266.25,336.0,356.7,260.2,317.6,50.8
267.5,321.8,343.8,259.6,308.4,43.7
268.75,322.9,334.1,254.0,303.7,43.4
270.0,305.0,324.7,247.9,292.5,39.9
271.25,303.1,311.3,239.0,284.5,39.6
272.5,298.9,309.6,230.3,279.6,43.0
273.75,290.7,301.4,227.3,273.1,40.1
275.0,282.8,289.2,223.9,265.3,36.0
276.25,284.4,283.1,212.9,260.1,40.9
277.5,278.0,274.9,209.3,254.0,38.8
278.75,275.9,268.2,207.1,250.4,37.7
280.0,264.1,259.8,195.3,239.7,38.5
281.25,264.8,251.2,189.3,235.1,40.2
282.5,260.4,245.6,180.3,228.8,42.6
283.75,253.3,244.2,173.8,223.8,43.5
285.0,251.1,230.6,171.4,217.7,41.4
286.25,245.8,225.4,164.8,212.0,42.1
287.5,242.5,222.2,162.2,208.9,41.7
288.75,240.2,217.1,158.3,205.2,42.2
290.0,232.1,208.1,151.2,197.2,41.5
291.25,229.7,206.5,145.8,194.0,43.3
292.5,220.4,197.0,138.9,185.4,41.9
293.75,216.0,192.2,130.7,179.6,44.0
295.0,206.9,183.7,125.5,172.0,41.9
296.25,202.0,178.9,119.1,166.7,42.8
297.5,197.1,170.9,112.0,160.0,43.6
298.75,192.9,160.6,105.7,153.1,44.0
300.0,185.7,153.2,99.3,146.1,43.6
301.25,178.1,142.1,91.6,137.3,43.4
302.5,175.5,133.0,87.6,132.0,44.0
303.75,172.4,125.5,82.8,126.9,44.8
305.0,166.3,118.1,79.1,121.1,43.7
306.25,159.2,109.5,77.5,115.4,41.2
307.5,147.9,106.1,76.7,110.2,35.8
308.75,143.4,101.1,74.3,106.3,34.8
310.0,134.9,96.6,73.7,101.7,30.9
311.25,128.3,92.3,70.9,97.1,29.0
312.5,119.0,90.4,71.1,93.5,24.1
313.75,108.8,87.9,70.4,89.0,19.2
315.0,99.6,,70.9,85.2,20.3
316.25,92.2,,68.2,80.2,17.0
317.5,87.5,,68.4,78.0,13.5
318.75,84.1,,69.3,76.7,10.5
320.0,80.3,,69.4,74.9,7.7
321.25,77.6,,68.8,73.2,6.3
322.5,74.7,,68.2,71.5,4.6
323.75,72.8,,69.0,70.9,2.7
325.0,71.2,,67.7,69.4,2.5
326.25,70.4,,67.0,68.7,2.4
327.5,69.6,,,69.6,
328.75,68.8,,,68.8,
330.0,68.6,,,68.6,
331.25,67.2,,,67.2,
332.5,65.1,,,65.1,
333.75,63.8,,,63.8,
335.0,64.5,,,64.5,
336.25,63.3,,,63.3,
337.5,62.6,,,62.6,
338.75,61.7,,,61.7,
340.0,61.0,,,61.0,
340.75,60.4,,,60.4,