Folder: fsri_materials_database/01_Data/Polyolefin_Carpet_Low_Pile/FTIR/IS (part 2)

File: Polyolefin_Carpet_Low_Pile_IS_S_220819_R6.dpt
7497.03,0.11084
7473.89,0.12339
7450.74,0.11661
7427.6,0.11801
7404.45,0.11827
7381.31,0.11460
7358.16,0.11456
7335.02,0.11558
7311.87,0.11532
7288.73,0.11541
7265.58,0.12355
7242.44,0.11860
7219.29,0.11265
7196.15,0.11969
7173,0.11704
7149.86,0.11927
7126.71,0.11345
7103.57,0.11891
7080.42,0.11673
7057.28,0.11513
7034.13,0.11332
7010.99,0.11903
6987.84,0.11636
6964.7,0.12143
6941.55,0.12107
6918.41,0.11490
6895.26,0.11740
6872.12,0.11786
6848.97,0.11769
6825.83,0.11891
6802.68,0.11997
6779.54,0.12123
6756.39,0.11639
6733.25,0.12040
6710.1,0.11525
6686.96,0.11819
6663.82,0.12205
6640.67,0.11768
6617.53,0.11696
6594.38,0.12079
6571.24,0.11527
6548.09,0.11996
6524.95,0.11782
6501.8,0.11750
6478.66,0.11731
6455.51,0.12150
6432.37,0.11791
6409.22,0.11795
6386.08,0.11761
6362.93,0.11592
6339.79,0.11845
6316.64,0.11890
6293.5,0.12126
6270.35,0.11648
6247.21,0.12073
6224.06,0.12004
6200.92,0.11948
6177.77,0.11937
6154.63,0.12155
6131.48,0.11749
6108.34,0.11849
6085.19,0.11857
6062.05,0.11572
6038.9,0.11693
6015.76,0.11819
5992.61,0.11669
5969.47,0.11874
5946.32,0.11781
5923.18,0.11176
5900.03,0.10542
5876.89,0.10384
5853.74,0.09966
5830.6,0.10385
5807.45,0.10123
5784.31,0.09950
5761.16,0.09901
5738.02,0.10534
5714.87,0.10888
5691.73,0.10937
5668.58,0.10930
5645.44,0.10784
5622.29,0.10929
5599.15,0.11273
5576,0.11223
5552.86,0.11072
5529.71,0.11283
5506.57,0.11258
5483.42,0.11207
5460.28,0.11337
5437.13,0.11289
5413.99,0.11394
5390.84,0.11582
5367.7,0.11825
5344.55,0.11625
5321.41,0.11728
5298.26,0.11622
5275.12,0.11769
5251.97,0.11747
5228.83,0.11641
5205.68,0.11682
5182.54,0.11850
5159.39,0.11798
5136.25,0.11842
5113.1,0.11943
5089.96,0.11777
5066.81,0.11897
5043.67,0.11843
5020.52,0.11829
4997.38,0.11860
4974.23,0.11927
4951.09,0.12087
4927.94,0.12142
4904.8,0.12039
4881.65,0.12084
4858.51,0.12089
4835.36,0.12052
4812.22,0.12110
4789.07,0.12121
4765.93,0.12094
4742.78,0.12127
4719.64,0.12139
4696.49,0.12228
4673.35,0.12121
4650.2,0.12070
4627.06,0.12025
4603.92,0.12141
4580.77,0.11907
4557.63,0.11951
4534.48,0.11927
4511.34,0.11890
4488.19,0.11797
4465.05,0.11768
4441.9,0.11193
4418.76,0.09634
4395.61,0.07667
4372.47,0.08380
4349.32,0.08259
4326.18,0.05795
4303.03,0.06796
4279.89,0.07425
4256.74,0.06985
4233.6,0.06509
4210.45,0.07131
4187.31,0.07950
4164.16,0.07418
4141.02,0.08072
4117.87,0.07790
4094.73,0.08536
4071.58,0.07471
4048.44,0.07762
4025.29,0.08721
4002.15,0.09206
3979,0.09425
3955.86,0.09870
3932.71,0.09799
3909.57,0.09989
3886.42,0.10020
3863.28,0.10165
3840.13,0.10326
3816.99,0.10247
3793.84,0.10378
3770.7,0.10245
3747.55,0.10520
3724.41,0.10787
3701.26,0.10764
3678.12,0.10821
3654.97,0.11361
3631.83,0.11064
3608.68,0.11407
3585.54,0.11320
3562.39,0.11198
3539.25,0.10928
3516.1,0.10748
3492.96,0.10608
3469.81,0.10272
3446.67,0.09767
3423.52,0.09374
3400.38,0.09361
3377.23,0.09080
3354.09,0.08845
3330.94,0.09113
3307.8,0.09267
3284.65,0.09124
3261.51,0.09128
3238.36,0.08853
3215.22,0.07334
3192.07,0.06496
3168.93,0.06856
3145.78,0.06504
3122.64,0.06860
3099.49,0.07192
3076.35,0.07138
3053.2,0.06465
3030.06,0.05547
3006.91,0.03523
2983.77,0.01706
2960.62,0.01678
2937.48,0.01685
2914.33,0.01921
2891.19,0.01898
2868.04,0.01877
2844.9,0.01860
2821.75,0.02105
2798.61,0.02992
2775.46,0.04952
2752.32,0.05644
2729.17,0.04231
2706.03,0.05276
2682.88,0.05699
2659.74,0.05867
2636.59,0.06932
2613.45,0.06365
2590.3,0.07031
2567.16,0.07550
2544.02,0.08539
2520.87,0.09519
2497.73,0.10034
2474.58,0.10411
2451.44,0.10378
2428.29,0.09492
2405.15,0.09946
2382,0.10237
2358.86,0.10026
2335.71,0.10788
2312.57,0.11591
2289.42,0.11765
2266.28,0.11241
2243.13,0.11615
2219.99,0.11818
2196.84,0.11530
2173.7,0.11334
2150.55,0.12110
2127.41,0.11775
2104.26,0.13185
2081.12,0.13525
2057.97,0.14054
2034.83,0.13952
2011.68,0.14078
1988.54,0.13975
1965.39,0.13968
1942.25,0.13874
1919.1,0.13645
1895.96,0.13221
1872.81,0.13685
1849.67,0.13387
1826.52,0.13066
1803.38,0.13329
1780.23,0.12847
1757.09,0.11649
1733.94,0.10070
1710.8,0.10443
1687.65,0.10077
1664.51,0.10169
1641.36,0.09197
1618.22,0.09697
1595.07,0.10265
1571.93,0.10316
1548.78,0.09461
1525.64,0.08908
1502.49,0.07488
1479.35,0.03377
1456.2,0.01702
1433.06,0.02764
1409.91,0.05544
1386.77,0.02710
1363.62,0.02601
1340.48,0.05915
1317.33,0.07006
1294.19,0.05581
1271.04,0.07925
1247.9,0.07088
1224.75,0.07857
1201.61,0.08378
1178.46,0.05983
1155.32,0.03436
1132.17,0.08047
1109.03,0.07305
1085.88,0.09224
1062.74,0.09976
1039.59,0.08145
1016.45,0.08472
993.304,0.04221
970.159,0.03219
947.014,0.10514
923.869,0.12806
900.724,0.06408
877.579,0.11565
854.434,0.09034
831.289,0.08178
808.144,0.05973
784.999,0.13684
761.854,0.15059
738.709,0.14968
715.565,0.14353
692.42,0.15115
669.275,0.15132
646.13,0.15303
622.985,0.15465
599.84,0.15471

File: Polyolefin_Carpet_Low_Pile_IS_S_220819_R7.dpt
7497.03,0.11985
7473.89,0.12034
7450.74,0.12043
7427.6,0.11628
7404.45,0.11358
7381.31,0.12630
7358.16,0.12451
7335.02,0.11480
7311.87,0.11679
7288.73,0.11364
7265.58,0.11436
7242.44,0.11231
7219.29,0.11437
7196.15,0.11712
7173,0.11526
7149.86,0.11556
7126.71,0.11723
7103.57,0.11902
7080.42,0.11876
7057.28,0.11482
7034.13,0.11154
7010.99,0.11834
6987.84,0.11431
6964.7,0.11540
6941.55,0.11542
6918.41,0.11799
6895.26,0.11655
6872.12,0.11483
6848.97,0.11873
6825.83,0.12108
6802.68,0.11941
6779.54,0.11766
6756.39,0.11966
6733.25,0.11611
6710.1,0.11700
6686.96,0.11263
6663.82,0.12145
6640.67,0.11640
6617.53,0.11431
6594.38,0.11776
6571.24,0.11800
6548.09,0.11749
6524.95,0.12461
6501.8,0.11867
6478.66,0.12207
6455.51,0.11906
6432.37,0.11921
6409.22,0.12053
6386.08,0.12054
6362.93,0.11971
6339.79,0.11866
6316.64,0.11839
6293.5,0.11705
6270.35,0.12116
6247.21,0.11838
6224.06,0.11883
6200.92,0.11929
6177.77,0.11778
6154.63,0.11937
6131.48,0.11939
6108.34,0.12063
6085.19,0.11800
6062.05,0.11918
6038.9,0.11649
6015.76,0.12025
5992.61,0.11814
5969.47,0.11962
5946.32,0.11851
5923.18,0.11244
5900.03,0.10634
5876.89,0.10367
5853.74,0.09956
5830.6,0.10482
5807.45,0.10244
5784.31,0.10165
5761.16,0.10094
5738.02,0.10531
5714.87,0.10705
5691.73,0.11005
5668.58,0.10910
5645.44,0.10979
5622.29,0.11142
5599.15,0.11182
5576,0.11136
5552.86,0.11148
5529.71,0.11172
5506.57,0.11243
5483.42,0.11138
5460.28,0.11476
5437.13,0.11380
5413.99,0.11507
5390.84,0.11620
5367.7,0.11604
5344.55,0.11689
5321.41,0.11645
5298.26,0.11619
5275.12,0.11728
5251.97,0.11630
5228.83,0.11754
5205.68,0.11677
5182.54,0.11653
5159.39,0.11696
5136.25,0.11721
5113.1,0.11716
5089.96,0.11788
5066.81,0.11888
5043.67,0.11859
5020.52,0.11940
4997.38,0.11967
4974.23,0.11967
4951.09,0.12056
4927.94,0.12033
4904.8,0.12012
4881.65,0.12097
4858.51,0.12030
4835.36,0.12009
4812.22,0.12145
4789.07,0.12232
4765.93,0.12147
4742.78,0.12094
4719.64,0.12221
4696.49,0.12234
4673.35,0.12081
4650.2,0.12069
4627.06,0.12078
4603.92,0.12019
4580.77,0.11987
4557.63,0.11925
4534.48,0.11956
4511.34,0.12011
4488.19,0.11868
4465.05,0.11751
4441.9,0.11172
4418.76,0.09636
4395.61,0.07630
4372.47,0.08382
4349.32,0.08398
4326.18,0.05806
4303.03,0.06890
4279.89,0.07442
4256.74,0.06887
4233.6,0.06592
4210.45,0.07157
4187.31,0.07921
4164.16,0.07452
4141.02,0.08096
4117.87,0.07789
4094.73,0.08482
4071.58,0.07430
4048.44,0.07810
4025.29,0.08744
4002.15,0.09163
3979,0.09504
3955.86,0.09814
3932.71,0.09755
3909.57,0.09921
3886.42,0.10028
3863.28,0.10147
3840.13,0.10314
3816.99,0.10223
3793.84,0.10406
3770.7,0.10316
3747.55,0.10467
3724.41,0.10770
3701.26,0.10775
3678.12,0.10919
3654.97,0.11374
3631.83,0.11138
3608.68,0.11361
3585.54,0.11421
3562.39,0.11230
3539.25,0.10936
3516.1,0.10747
3492.96,0.10583
3469.81,0.10273
3446.67,0.09799
3423.52,0.09308
3400.38,0.09355
3377.23,0.09211
3354.09,0.08749
3330.94,0.09127
3307.8,0.09258
3284.65,0.09100
3261.51,0.09111
3238.36,0.08993
3215.22,0.07493
3192.07,0.06447
3168.93,0.06802
3145.78,0.06534
3122.64,0.06945
3099.49,0.07229
3076.35,0.07083
3053.2,0.06435
3030.06,0.05502
3006.91,0.03515
2983.77,0.01744
2960.62,0.01665
2937.48,0.01699
2914.33,0.01903
2891.19,0.01834
2868.04,0.01850
2844.9,0.01815
2821.75,0.02132
2798.61,0.02989
2775.46,0.04924
2752.32,0.05644
2729.17,0.04249
2706.03,0.05235
2682.88,0.05797
2659.74,0.05915
2636.59,0.06948
2613.45,0.06431
2590.3,0.07049
2567.16,0.07608
2544.02,0.08526
2520.87,0.09510
2497.73,0.10092
2474.58,0.10492
2451.44,0.10363
2428.29,0.09504
2405.15,0.09991
2382,0.10225
2358.86,0.10100
2335.71,0.10800
2312.57,0.11621
2289.42,0.11741
2266.28,0.11290
2243.13,0.11681
2219.99,0.11834
2196.84,0.11534
2173.7,0.11320
2150.55,0.12144
2127.41,0.11818
2104.26,0.13226
2081.12,0.13570
2057.97,0.14070
2034.83,0.14001
2011.68,0.14133
1988.54,0.14003
1965.39,0.13977
1942.25,0.13874
1919.1,0.13702
1895.96,0.13212
1872.81,0.13682
1849.67,0.13417
1826.52,0.13100
1803.38,0.13393
1780.23,0.12834
1757.09,0.11689
1733.94,0.10091
1710.8,0.10507
1687.65,0.10059
1664.51,0.10186
1641.36,0.09227
1618.22,0.09771
1595.07,0.10204
1571.93,0.10356
1548.78,0.09470
1525.64,0.08894
1502.49,0.07481
1479.35,0.03384
1456.2,0.01731
1433.06,0.02736
1409.91,0.05564
1386.77,0.02752
1363.62,0.02595
1340.48,0.05915
1317.33,0.07034
1294.19,0.05596
1271.04,0.07900
1247.9,0.07123
1224.75,0.07885
1201.61,0.08420
1178.46,0.06038
1155.32,0.03402
1132.17,0.08045
1109.03,0.07350
1085.88,0.09270
1062.74,0.09912
1039.59,0.08163
1016.45,0.08474
993.304,0.04258
970.159,0.03280
947.014,0.10463
923.869,0.12766
900.724,0.06474
877.579,0.11482
854.434,0.09049
831.289,0.08049
808.144,0.05924
784.999,0.13665
761.854,0.15007
738.709,0.15109
715.565,0.14306
692.42,0.15177
669.275,0.15160
646.13,0.15368
622.985,0.15300
599.84,0.15354

File: Polyolefin_Carpet_Low_Pile_IS_S_220819_R8.dpt
7497.03,0.11431
7473.89,0.11597
7450.74,0.11756
7427.6,0.11448
7404.45,0.11634
7381.31,0.11272
7358.16,0.12817
7335.02,0.11760
7311.87,0.11693
7288.73,0.11322
7265.58,0.12263
7242.44,0.11442
7219.29,0.12532
7196.15,0.11584
7173,0.11002
7149.86,0.10958
7126.71,0.11544
7103.57,0.11445
7080.42,0.11870
7057.28,0.11838
7034.13,0.11599
7010.99,0.11103
6987.84,0.11414
6964.7,0.11662
6941.55,0.11862
6918.41,0.12452
6895.26,0.11389
6872.12,0.11693
6848.97,0.11441
6825.83,0.11687
6802.68,0.11785
6779.54,0.11905
6756.39,0.12161
6733.25,0.11875
6710.1,0.11867
6686.96,0.12344
6663.82,0.11989
6640.67,0.12311
6617.53,0.11803
6594.38,0.11655
6571.24,0.12179
6548.09,0.11639
6524.95,0.11956
6501.8,0.11795
6478.66,0.11913
6455.51,0.12012
6432.37,0.11495
6409.22,0.11823
6386.08,0.11771
6362.93,0.11825
6339.79,0.11851
6316.64,0.11947
6293.5,0.12071
6270.35,0.11912
6247.21,0.11737
6224.06,0.11826
6200.92,0.11859
6177.77,0.11845
6154.63,0.12015
6131.48,0.11808
6108.34,0.11973
6085.19,0.11631
6062.05,0.11939
6038.9,0.11870
6015.76,0.11918
5992.61,0.11845
5969.47,0.11886
5946.32,0.11586
5923.18,0.11287
5900.03,0.10642
5876.89,0.10101
5853.74,0.10010
5830.6,0.10429
5807.45,0.09915
5784.31,0.10219
5761.16,0.10124
5738.02,0.10523
5714.87,0.10810
5691.73,0.10825
5668.58,0.10977
5645.44,0.11017
5622.29,0.11052
5599.15,0.11104
5576,0.11325
5552.86,0.11186
5529.71,0.11260
5506.57,0.11233
5483.42,0.11159
5460.28,0.11309
5437.13,0.11260
5413.99,0.11664
5390.84,0.11561
5367.7,0.11703
5344.55,0.11760
5321.41,0.11703
5298.26,0.11591
5275.12,0.11645
5251.97,0.11725
5228.83,0.11754
5205.68,0.11686
5182.54,0.11653
5159.39,0.11880
5136.25,0.11821
5113.1,0.11882
5089.96,0.11785
5066.81,0.11864
5043.67,0.11837
5020.52,0.11811
4997.38,0.12018
4974.23,0.12182
4951.09,0.11931
4927.94,0.12111
4904.8,0.12016
4881.65,0.11932
4858.51,0.12085
4835.36,0.12111
4812.22,0.12156
4789.07,0.12050
4765.93,0.12193
4742.78,0.12093
4719.64,0.12228
4696.49,0.12090
4673.35,0.12045
4650.2,0.12141
4627.06,0.12040
4603.92,0.11952
4580.77,0.12008
4557.63,0.11937
4534.48,0.11887
4511.34,0.11927
4488.19,0.11849
4465.05,0.11666
4441.9,0.11266
4418.76,0.09621
4395.61,0.07579
4372.47,0.08329
4349.32,0.08308
4326.18,0.05801
4303.03,0.06822
4279.89,0.07453
4256.74,0.06948
4233.6,0.06575
4210.45,0.07111
4187.31,0.07904
4164.16,0.07459
4141.02,0.08055
4117.87,0.07852
4094.73,0.08477
4071.58,0.07434
4048.44,0.07762
4025.29,0.08770
4002.15,0.09147
3979,0.09538
3955.86,0.09867
3932.71,0.09771
3909.57,0.09906
3886.42,0.10047
3863.28,0.10186
3840.13,0.10314
3816.99,0.10288
3793.84,0.10438
3770.7,0.10306
3747.55,0.10477
3724.41,0.10763
3701.26,0.10680
3678.12,0.10866
3654.97,0.11318
3631.83,0.11183
3608.68,0.11433
3585.54,0.11318
3562.39,0.11152
3539.25,0.10930
3516.1,0.10765
3492.96,0.10582
3469.81,0.10242
3446.67,0.09810
3423.52,0.09278
3400.38,0.09288
3377.23,0.09165
3354.09,0.08905
3330.94,0.09132
3307.8,0.09227
3284.65,0.09136
3261.51,0.09146
3238.36,0.08866
3215.22,0.07437
3192.07,0.06528
3168.93,0.06822
3145.78,0.06509
3122.64,0.06919
3099.49,0.07181
3076.35,0.07061
3053.2,0.06435
3030.06,0.05544
3006.91,0.03491
2983.77,0.01737
2960.62,0.01618
2937.48,0.01645
2914.33,0.01892
2891.19,0.01862
2868.04,0.01867
2844.9,0.01860
2821.75,0.02115
2798.61,0.02953
2775.46,0.04951
2752.32,0.05644
2729.17,0.04210
2706.03,0.05267
2682.88,0.05796
2659.74,0.05920
2636.59,0.06879
2613.45,0.06373
2590.3,0.07006
2567.16,0.07566
2544.02,0.08513
2520.87,0.09499
2497.73,0.10025
2474.58,0.10450
2451.44,0.10361
2428.29,0.09500
2405.15,0.09941
2382,0.10210
2358.86,0.10064
2335.71,0.10776
2312.57,0.11617
2289.42,0.11719
2266.28,0.11234
2243.13,0.11610
2219.99,0.11844
2196.84,0.11533
2173.7,0.11317
2150.55,0.12077
2127.41,0.11814
2104.26,0.13165
2081.12,0.13545
2057.97,0.14048
2034.83,0.13959
2011.68,0.14106
1988.54,0.14006
1965.39,0.13961
1942.25,0.13855
1919.1,0.13632
1895.96,0.13218
1872.81,0.13658
1849.67,0.13402
1826.52,0.13056
1803.38,0.13322
1780.23,0.12850
1757.09,0.11658
1733.94,0.10042
1710.8,0.10500
1687.65,0.10075
1664.51,0.10167
1641.36,0.09212
1618.22,0.09684
1595.07,0.10261
1571.93,0.10285
1548.78,0.09437
1525.64,0.08910
1502.49,0.07428
1479.35,0.03386
1456.2,0.01659
1433.06,0.02761
1409.91,0.05533
1386.77,0.02699
1363.62,0.02548
1340.48,0.05886
1317.33,0.07036
1294.19,0.05602
1271.04,0.07924
1247.9,0.07071
1224.75,0.07883
1201.61,0.08396
1178.46,0.06000
1155.32,0.03399
1132.17,0.08001
1109.03,0.07377
1085.88,0.09230
1062.74,0.09888
1039.59,0.08113
1016.45,0.08453
993.304,0.04178
970.159,0.03254
947.014,0.10453
923.869,0.12779
900.724,0.06429
877.579,0.11525
854.434,0.09080
831.289,0.08069
808.144,0.06000
784.999,0.13705
761.854,0.15068
738.709,0.14954
715.565,0.14244
692.42,0.15071
669.275,0.15194
646.13,0.15189
622.985,0.15280
599.84,0.15313

File: Polyolefin_Carpet_Low_Pile_IS_T_220819_R1.dpt
7497.03,0.02199
7473.89,0.01128
7450.74,0.02094
7427.6,0.01997
7404.45,0.02193
7381.31,0.02479
7358.16,0.01642
7335.02,0.01672
7311.87,0.02429
7288.73,0.01785
7265.58,0.01536
7242.44,0.01925
7219.29,0.01429
7196.15,0.02121
7173,0.01514
7149.86,0.02289
7126.71,0.02122
7103.57,0.02671
7080.42,0.02422
7057.28,0.02125
7034.13,0.02100
7010.99,0.02476
6987.84,0.01714
6964.7,0.02198
6941.55,0.01664
6918.41,0.02019
6895.26,0.01897
6872.12,0.02352
6848.97,0.02143
6825.83,0.02168
6802.68,0.01581
6779.54,0.02374
6756.39,0.01978
6733.25,0.01683
6710.1,0.01231
6686.96,0.01845
6663.82,0.01675
6640.67,0.02143
6617.53,0.02014
6594.38,0.02031
6571.24,0.01994
6548.09,0.02087
6524.95,0.02216
6501.8,0.02647
6478.66,0.02266
6455.51,0.01995
6432.37,0.01626
6409.22,0.02135
6386.08,0.02212
6362.93,0.01693
6339.79,0.01817
6316.64,0.02057
6293.5,0.01899
6270.35,0.01718
6247.21,0.02244
6224.06,0.01871
6200.92,0.02033
6177.77,0.01817
6154.63,0.01909
6131.48,0.01921
6108.34,0.01735
6085.19,0.02324
6062.05,0.01990
6038.9,0.01796
6015.76,0.02153
5992.61,0.02002
5969.47,0.02065
5946.32,0.01612
5923.18,0.01928
5900.03,0.01943
5876.89,0.01987
5853.74,0.01773
5830.6,0.01665
5807.45,0.01940
5784.31,0.01976
5761.16,0.01983
5738.02,0.01889
5714.87,0.01834
5691.73,0.01964
5668.58,0.02078
5645.44,0.01888
5622.29,0.01726
5599.15,0.01992
5576,0.01959
5552.86,0.01910
5529.71,0.01865
5506.57,0.01889
5483.42,0.01927
5460.28,0.01893
5437.13,0.01831
5413.99,0.02071
5390.84,0.01836
5367.7,0.01965
5344.55,0.01968
5321.41,0.01863
5298.26,0.01975
5275.12,0.01899
5251.97,0.02037
5228.83,0.01967
5205.68,0.02003
5182.54,0.02014
5159.39,0.02107
5136.25,0.01987
5113.1,0.02048
5089.96,0.02099
5066.81,0.02002
5043.67,0.02111
5020.52,0.01964
4997.38,0.02005
4974.23,0.01880
4951.09,0.01991
4927.94,0.01968
4904.8,0.02011
4881.65,0.01914
4858.51,0.01893
4835.36,0.02011
4812.22,0.01854
4789.07,0.01994
4765.93,0.01991
4742.78,0.01941
4719.64,0.02011
4696.49,0.02018
4673.35,0.01988
4650.2,0.01936
4627.06,0.02053
4603.92,0.02021
4580.77,0.01977
4557.63,0.01839
4534.48,0.01970
4511.34,0.01978
4488.19,0.01898
4465.05,0.02009
4441.9,0.01906
4418.76,0.02024
4395.61,0.01935
4372.47,0.02015
4349.32,0.02019
4326.18,0.02065
4303.03,0.02036
4279.89,0.01990
4256.74,0.01940
4233.6,0.02057
4210.45,0.02044
4187.31,0.01967
4164.16,0.01990
4141.02,0.02008
4117.87,0.02024
4094.73,0.02049
4071.58,0.01997
4048.44,0.01973
4025.29,0.01997
4002.15,0.01971
3979,0.01992
3955.86,0.01996
3932.71,0.01984
3909.57,0.02001
3886.42,0.02004
3863.28,0.02057
3840.13,0.02035
3816.99,0.02030
3793.84,0.02028
3770.7,0.02007
3747.55,0.02056
3724.41,0.01964
3701.26,0.01912
3678.12,0.01986
3654.97,0.01975
3631.83,0.01871
3608.68,0.01932
3585.54,0.01888
3562.39,0.01789
3539.25,0.01810
3516.1,0.01843
3492.96,0.01822
3469.81,0.01872
3446.67,0.01811
3423.52,0.01757
3400.38,0.01715
3377.23,0.01770
3354.09,0.01733
3330.94,0.01755
3307.8,0.01716
3284.65,0.01756
3261.51,0.01664
3238.36,0.01783
3215.22,0.01778
3192.07,0.01842
3168.93,0.01823
3145.78,0.01901
3122.64,0.01853
3099.49,0.01775
3076.35,0.01808
3053.2,0.01777
3030.06,0.01817
3006.91,0.01832
2983.77,0.01695
2960.62,0.01712
2937.48,0.01661
2914.33,0.01752
2891.19,0.01785
2868.04,0.01797
2844.9,0.01834
2821.75,0.01875
2798.61,0.01866
2775.46,0.01897
2752.32,0.01842
2729.17,0.01840
2706.03,0.01904
2682.88,0.01844
2659.74,0.01856
2636.59,0.01828
2613.45,0.01898
2590.3,0.01848
2567.16,0.01874
2544.02,0.01841
2520.87,0.01798
2497.73,0.01853
2474.58,0.01909
2451.44,0.01837
2428.29,0.01831
2405.15,0.01849
2382,0.01870
2358.86,0.01874
2335.71,0.01864
2312.57,0.01866
2289.42,0.01836
2266.28,0.01856
2243.13,0.01845
2219.99,0.01834
2196.84,0.01828
2173.7,0.01833
2150.55,0.01815
2127.41,0.01828
2104.26,0.01832
2081.12,0.01875
2057.97,0.01838
2034.83,0.01808
2011.68,0.01802
1988.54,0.01832
1965.39,0.01823
1942.25,0.01801
1919.1,0.01805
1895.96,0.01790
1872.81,0.01778
1849.67,0.01764
1826.52,0.01725
1803.38,0.01708
1780.23,0.01611
1757.09,0.01481
1733.94,0.01682
1710.8,0.01820
1687.65,0.01648
1664.51,0.01575
1641.36,0.01608
1618.22,0.01605
1595.07,0.01615
1571.93,0.01563
1548.78,0.01537
1525.64,0.01544
1502.49,0.01623
1479.35,0.01539
1456.2,0.01611
1433.06,0.01568
1409.91,0.01564
1386.77,0.01519
1363.62,0.01563
1340.48,0.01513
1317.33,0.01432
1294.19,0.01530
1271.04,0.01662
1247.9,0.01743
1224.75,0.01675
1201.61,0.01560
1178.46,0.01548
1155.32,0.01473
1132.17,0.01522
1109.03,0.01659
1085.88,0.01522
1062.74,0.01709
1039.59,0.01649
1016.45,0.01666
993.304,0.01840
970.159,0.01727
947.014,0.01680
923.869,0.01599
900.724,0.01616
877.579,0.01609
854.434,0.01588
831.289,0.01580
808.144,0.01584
784.999,0.01567
761.854,0.01522
738.709,0.01582
715.565,0.01515
692.42,0.01621
669.275,0.01402
646.13,0.01242
622.985,0.01254
599.84,0.01458

File: Polyolefin_Carpet_Low_Pile_IS_T_220819_R2.dpt
7497.03,0.02266
7473.89,0.02846
7450.74,0.01870
7427.6,0.02500
7404.45,0.01539
7381.31,0.02418
7358.16,0.02833
7335.02,0.01872
7311.87,0.02164
7288.73,0.01770
7265.58,0.02137
7242.44,0.02351
7219.29,0.01994
7196.15,0.02561
7173,0.02575
7149.86,0.01754
7126.71,0.02256
7103.57,0.01462
7080.42,0.01904
7057.28,0.02362
7034.13,0.02222
7010.99,0.02271
6987.84,0.01794
6964.7,0.01872
6941.55,0.02054
6918.41,0.02366
6895.26,0.02265
6872.12,0.01952
6848.97,0.01937
6825.83,0.01905
6802.68,0.02253
6779.54,0.02066
6756.39,0.01889
6733.25,0.02089
6710.1,0.01982
6686.96,0.01990
6663.82,0.01696
6640.67,0.02315
6617.53,0.02430
6594.38,0.02086
6571.24,0.01933
6548.09,0.02022
6524.95,0.01852
6501.8,0.01882
6478.66,0.01858
6455.51,0.02018
6432.37,0.02075
6409.22,0.01959
6386.08,0.02084
6362.93,0.02124
6339.79,0.01993
6316.64,0.02020
6293.5,0.02047
6270.35,0.01987
6247.21,0.01709
6224.06,0.01669
6200.92,0.02003
6177.77,0.01748
6154.63,0.02057
6131.48,0.02127
6108.34,0.01913
6085.19,0.01762
6062.05,0.01710
6038.9,0.01967
6015.76,0.01833
5992.61,0.01988
5969.47,0.01752
5946.32,0.01974
5923.18,0.01877
5900.03,0.01820
5876.89,0.02049
5853.74,0.01844
5830.6,0.02184
5807.45,0.01892
5784.31,0.01898
5761.16,0.01747
5738.02,0.01944
5714.87,0.01848
5691.73,0.01878
5668.58,0.01923
5645.44,0.01960
5622.29,0.01755
5599.15,0.01988
5576,0.01889
5552.86,0.01993
5529.71,0.01973
5506.57,0.01928
5483.42,0.01999
5460.28,0.01852
5437.13,0.02143
5413.99,0.01934
5390.84,0.01777
5367.7,0.02038
5344.55,0.01945
5321.41,0.02181
5298.26,0.01836
5275.12,0.01848
5251.97,0.01967
5228.83,0.01864
5205.68,0.01934
5182.54,0.01911
5159.39,0.01851
5136.25,0.01956
5113.1,0.01807
5089.96,0.01874
5066.81,0.01985
5043.67,0.01933
5020.52,0.01845
4997.38,0.01913
4974.23,0.01958
4951.09,0.01900
4927.94,0.01925
4904.8,0.01866
4881.65,0.01945
4858.51,0.01920
4835.36,0.01887
4812.22,0.01941
4789.07,0.01897
4765.93,0.01819
4742.78,0.02055
4719.64,0.01932
4696.49,0.01929
4673.35,0.01911
4650.2,0.01986
4627.06,0.01916
4603.92,0.01949
4580.77,0.01872
4557.63,0.01897
4534.48,0.01861
4511.34,0.01934
4488.19,0.01928
4465.05,0.01937
4441.9,0.01909
4418.76,0.01943
4395.61,0.02001
4372.47,0.02013
4349.32,0.01970
4326.18,0.01958
4303.03,0.01958
4279.89,0.01915
4256.74,0.01837
4233.6,0.01932
4210.45,0.01982
4187.31,0.01905
4164.16,0.01898
4141.02,0.01913
4117.87,0.01955
4094.73,0.01920
4071.58,0.01950
4048.44,0.01952
4025.29,0.01928
4002.15,0.01956
3979,0.01907
3955.86,0.01979
3932.71,0.01978
3909.57,0.01969
3886.42,0.01905
3863.28,0.01915
3840.13,0.01983
3816.99,0.01950
3793.84,0.01933
3770.7,0.01903
3747.55,0.01973
3724.41,0.01960
3701.26,0.01922
3678.12,0.01926
3654.97,0.01885
3631.83,0.01911
3608.68,0.01936
3585.54,0.01861
3562.39,0.01741
3539.25,0.01803
3516.1,0.01844
3492.96,0.01778
3469.81,0.01826
3446.67,0.01741
3423.52,0.01696
3400.38,0.01750
3377.23,0.01719
3354.09,0.01677
3330.94,0.01683
3307.8,0.01654
3284.65,0.01718
3261.51,0.01708
3238.36,0.01753
3215.22,0.01720
3192.07,0.01726
3168.93,0.01749
3145.78,0.01764
3122.64,0.01728
3099.49,0.01775
3076.35,0.01718
3053.2,0.01744
3030.06,0.01771
3006.91,0.01757
2983.77,0.01693
2960.62,0.01598
2937.48,0.01635
2914.33,0.01724
2891.19,0.01712
2868.04,0.01721
2844.9,0.01771
2821.75,0.01797
2798.61,0.01794
2775.46,0.01802
2752.32,0.01805
2729.17,0.01842
2706.03,0.01827
2682.88,0.01809
2659.74,0.01808
2636.59,0.01805
2613.45,0.01809
2590.3,0.01806
2567.16,0.01827
2544.02,0.01807
2520.87,0.01806
2497.73,0.01807
2474.58,0.01804
2451.44,0.01790
2428.29,0.01820
2405.15,0.01823
2382,0.01800
2358.86,0.01790
2335.71,0.01776
2312.57,0.01803
2289.42,0.01817
2266.28,0.01780
2243.13,0.01782
2219.99,0.01820
2196.84,0.01763
2173.7,0.01777
2150.55,0.01790
2127.41,0.01761
2104.26,0.01771
2081.12,0.01765
2057.97,0.01758
2034.83,0.01783
2011.68,0.01786
1988.54,0.01733
1965.39,0.01764
1942.25,0.01762
1919.1,0.01740
1895.96,0.01781
1872.81,0.01729
1849.67,0.01718
1826.52,0.01701
1803.38,0.01665
1780.23,0.01614
1757.09,0.01438
1733.94,0.01655
1710.8,0.01728
1687.65,0.01633
1664.51,0.01531
1641.36,0.01560
1618.22,0.01600
1595.07,0.01568
1571.93,0.01511
1548.78,0.01484
1525.64,0.01527
1502.49,0.01537
1479.35,0.01520
1456.2,0.01562
1433.06,0.01566
1409.91,0.01528
1386.77,0.01470
1363.62,0.01521
1340.48,0.01474
1317.33,0.01401
1294.19,0.01457
1271.04,0.01573
1247.9,0.01661
1224.75,0.01628
1201.61,0.01543
1178.46,0.01479
1155.32,0.01475
1132.17,0.01495
1109.03,0.01626
1085.88,0.01538
1062.74,0.01663
1039.59,0.01659
1016.45,0.01636
993.304,0.01789
970.159,0.01680
947.014,0.01692
923.869,0.01587
900.724,0.01616
877.579,0.01574
854.434,0.01525
831.289,0.01608
808.144,0.01647
784.999,0.01540
761.854,0.01480
738.709,0.01578
715.565,0.01490
692.42,0.01466
669.275,0.01596
646.13,0.01428
622.985,0.01392
599.84,0.01376