Folder: fsri_materials_database/01_Data/Polyolefin_Carpet_Low_Pile/FTIR/IS

Note: README.md
# Materials and Products Database
### Repository of materials and products properties and fire test data to improve fire modeling and fire investigation.

This project was supported in part by Award No. 2019-DU-BX-0018, awarded by the National Institute of Justice, Office of Justice Programs, U.S. Department of Justice. The opinions, findings, and conclusions or recommendations expressed in this publication / program / exhibition are those of the author(s) and do not necessarily reflect those of the Department of Justice.

***
***

__Cite this database:__ "McKinnon, M., Weinschenk, C., Dow, N., DiDomizio, M., and Madrzykowski, D. Materials and Products Database (Version 1.0.0), Fire Safety Research Institute, UL Research Institutes. Columbia, MD 21045, 2023."

__Cite the Technical Reference Guide:__ "McKinnon, M., Weinschenk, C., and Madrzykowski, D. Materials and Products Database - Technical Reference Guide, Fire Safety Research Institute, UL Research Institutes. Columbia, MD 21045, 2023."

__Cite the User Guide:__ "McKinnon, M., and Weinschenk, C. Materials and Products Database - User Guide, Fire Safety Research Institute, UL Research Institutes. Columbia, MD 21045, 2023."

***
***

## Database Structure

## 01_Data/
Raw data generated from each apparatus are included here in plain-text format. The data is organized first by material, next by the short name of test apparatus used, and where applicable additional filtering by test settings.

### Test Apparatus and Data File Structure
- __Cone Calorimeter__ (Cone)
    + Data file structure includes the material, the short name for the apparatus, heat flux setting and scan/scalar, date of test, and replicate number. Scan is for the raw output data and scalar is for the initial conditions and high-level test parameters. 
        * Example: __MDF_Cone_HF25scalar_210323_R1__ stands for the first replicate of scalar data generated from a medium density fiber board test in cone calorimeter exposed to 25 kW/m<sup>2</sup> on March 23, 2021.
    + A _Cone_Notes.csv_ is generated for each material from the __plot_Cone_data.py__ script. For materials whose experiments deviated from typical behavior relevant pictures are included in the respective material directory.
- __Fourier Transform Infrared Spectrometer__ (FTIR)
    + The FTIR directory contains subdirectories for the Attenuated Total Reflectance method (ATR) and the Integrating Sphere (IS)
    + Data file structure for the ATR experiment files includes the material, the abbreviated name for the apparatus, date of test, and replicate number. 
        * Example: __MDF_ATR_210323_R5__ stands for the fifth replicate of data collected with the ATR accessory conducted on June 8, 2021.
    + Data file structure for the IS experiment files includes the material, the abbreviated name for the apparatus, the measurand, whether the test is a sample measurement or standard reference, date of test, and replicate number.
        * Example: __OSB_IS_REFLECT_MEAS_2

File: Polyolefin_Carpet_Low_Pile_IS_S_220819_R1.dpt
7497.03,0.12729
7473.89,0.11761
7450.74,0.12310
7427.6,0.11929
7404.45,0.11789
7381.31,0.12139
7358.16,0.11568
7335.02,0.11136
7311.87,0.12164
7288.73,0.11484
7265.58,0.11345
7242.44,0.12369
7219.29,0.11376
7196.15,0.11917
7173,0.11867
7149.86,0.11911
7126.71,0.12455
7103.57,0.11593
7080.42,0.11030
7057.28,0.11941
7034.13,0.11252
7010.99,0.12150
6987.84,0.11288
6964.7,0.11849
6941.55,0.11393
6918.41,0.11902
6895.26,0.11548
6872.12,0.12311
6848.97,0.11783
6825.83,0.11495
6802.68,0.12287
6779.54,0.11737
6756.39,0.11145
6733.25,0.12139
6710.1,0.11801
6686.96,0.11971
6663.82,0.11501
6640.67,0.11876
6617.53,0.11579
6594.38,0.12016
6571.24,0.12173
6548.09,0.11616
6524.95,0.12008
6501.8,0.12018
6478.66,0.12343
6455.51,0.11740
6432.37,0.11918
6409.22,0.12041
6386.08,0.12025
6362.93,0.11716
6339.79,0.11925
6316.64,0.11953
6293.5,0.11982
6270.35,0.12129
6247.21,0.11871
6224.06,0.11809
6200.92,0.11817
6177.77,0.12140
6154.63,0.11952
6131.48,0.11823
6108.34,0.11777
6085.19,0.11868
6062.05,0.12056
6038.9,0.11880
6015.76,0.11643
5992.61,0.11852
5969.47,0.11708
5946.32,0.11657
5923.18,0.11088
5900.03,0.10617
5876.89,0.10556
5853.74,0.09858
5830.6,0.10426
5807.45,0.10004
5784.31,0.10444
5761.16,0.10151
5738.02,0.10673
5714.87,0.10774
5691.73,0.10931
5668.58,0.11058
5645.44,0.10989
5622.29,0.11202
5599.15,0.11195
5576,0.11263
5552.86,0.11267
5529.71,0.11230
5506.57,0.11300
5483.42,0.11098
5460.28,0.11291
5437.13,0.11290
5413.99,0.11625
5390.84,0.11576
5367.7,0.11827
5344.55,0.11699
5321.41,0.11540
5298.26,0.11841
5275.12,0.11764
5251.97,0.11851
5228.83,0.11763
5205.68,0.11859
5182.54,0.11834
5159.39,0.11872
5136.25,0.11798
5113.1,0.11867
5089.96,0.11825
5066.81,0.11735
5043.67,0.11817
5020.52,0.11870
4997.38,0.12038
4974.23,0.11996
4951.09,0.11977
4927.94,0.12066
4904.8,0.12154
4881.65,0.12036
4858.51,0.12225
4835.36,0.12105
4812.22,0.12091
4789.07,0.12173
4765.93,0.12185
4742.78,0.12155
4719.64,0.12222
4696.49,0.12220
4673.35,0.12194
4650.2,0.12018
4627.06,0.12012
4603.92,0.12119
4580.77,0.11930
4557.63,0.11910
4534.48,0.12048
4511.34,0.11955
4488.19,0.11889
4465.05,0.11796
4441.9,0.11329
4418.76,0.09594
4395.61,0.07632
4372.47,0.08467
4349.32,0.08350
4326.18,0.05859
4303.03,0.06843
4279.89,0.07398
4256.74,0.06995
4233.6,0.06599
4210.45,0.07139
4187.31,0.07979
4164.16,0.07504
4141.02,0.08151
4117.87,0.07821
4094.73,0.08516
4071.58,0.07448
4048.44,0.07876
4025.29,0.08750
4002.15,0.09222
3979,0.09517
3955.86,0.09845
3932.71,0.09837
3909.57,0.10046
3886.42,0.10078
3863.28,0.10195
3840.13,0.10342
3816.99,0.10257
3793.84,0.10477
3770.7,0.10335
3747.55,0.10576
3724.41,0.10815
3701.26,0.10816
3678.12,0.10960
3654.97,0.11362
3631.83,0.11053
3608.68,0.11400
3585.54,0.11376
3562.39,0.11185
3539.25,0.11013
3516.1,0.10754
3492.96,0.10623
3469.81,0.10352
3446.67,0.09764
3423.52,0.09428
3400.38,0.09385
3377.23,0.09213
3354.09,0.08885
3330.94,0.09227
3307.8,0.09320
3284.65,0.09094
3261.51,0.09146
3238.36,0.09011
3215.22,0.07462
3192.07,0.06542
3168.93,0.06933
3145.78,0.06573
3122.64,0.07034
3099.49,0.07236
3076.35,0.07119
3053.2,0.06491
3030.06,0.05627
3006.91,0.03550
2983.77,0.01781
2960.62,0.01705
2937.48,0.01734
2914.33,0.01930
2891.19,0.01869
2868.04,0.01924
2844.9,0.01875
2821.75,0.02177
2798.61,0.03046
2775.46,0.04990
2752.32,0.05719
2729.17,0.04315
2706.03,0.05321
2682.88,0.05820
2659.74,0.05966
2636.59,0.06889
2613.45,0.06432
2590.3,0.07073
2567.16,0.07624
2544.02,0.08567
2520.87,0.09575
2497.73,0.10069
2474.58,0.10486
2451.44,0.10432
2428.29,0.09564
2405.15,0.09979
2382,0.10281
2358.86,0.10121
2335.71,0.10861
2312.57,0.11669
2289.42,0.11782
2266.28,0.11314
2243.13,0.11646
2219.99,0.11849
2196.84,0.11590
2173.7,0.11348
2150.55,0.12135
2127.41,0.11844
2104.26,0.13213
2081.12,0.13601
2057.97,0.14081
2034.83,0.13957
2011.68,0.14171
1988.54,0.14029
1965.39,0.14017
1942.25,0.13860
1919.1,0.13705
1895.96,0.13246
1872.81,0.13728
1849.67,0.13457
1826.52,0.13157
1803.38,0.13397
1780.23,0.12896
1757.09,0.11729
1733.94,0.10114
1710.8,0.10515
1687.65,0.10135
1664.51,0.10204
1641.36,0.09216
1618.22,0.09743
1595.07,0.10313
1571.93,0.10348
1548.78,0.09482
1525.64,0.08921
1502.49,0.07520
1479.35,0.03430
1456.2,0.01782
1433.06,0.02760
1409.91,0.05573
1386.77,0.02767
1363.62,0.02649
1340.48,0.05925
1317.33,0.07067
1294.19,0.05659
1271.04,0.07967
1247.9,0.07096
1224.75,0.07936
1201.61,0.08433
1178.46,0.06045
1155.32,0.03530
1132.17,0.08068
1109.03,0.07423
1085.88,0.09326
1062.74,0.09904
1039.59,0.08181
1016.45,0.08483
993.304,0.04300
970.159,0.03300
947.014,0.10561
923.869,0.12745
900.724,0.06478
877.579,0.11551
854.434,0.09115
831.289,0.08211
808.144,0.06033
784.999,0.13724
761.854,0.15116
738.709,0.15138
715.565,0.14314
692.42,0.15131
669.275,0.15077
646.13,0.15432
622.985,0.15470
599.84,0.15478

File: Polyolefin_Carpet_Low_Pile_IS_S_220819_R3.dpt
7497.03,0.11507
7473.89,0.12213
7450.74,0.11719
7427.6,0.11778
7404.45,0.11607
7381.31,0.10803
7358.16,0.12471
7335.02,0.11593
7311.87,0.11267
7288.73,0.12303
7265.58,0.11535
7242.44,0.11483
7219.29,0.11682
7196.15,0.11703
7173,0.11400
7149.86,0.11788
7126.71,0.11318
7103.57,0.11532
7080.42,0.11694
7057.28,0.11382
7034.13,0.11075
7010.99,0.11747
6987.84,0.11337
6964.7,0.11408
6941.55,0.11468
6918.41,0.12475
6895.26,0.11745
6872.12,0.11589
6848.97,0.11638
6825.83,0.11414
6802.68,0.11764
6779.54,0.11960
6756.39,0.11704
6733.25,0.11279
6710.1,0.11499
6686.96,0.12098
6663.82,0.11460
6640.67,0.11672
6617.53,0.11615
6594.38,0.11718
6571.24,0.12081
6548.09,0.11773
6524.95,0.11867
6501.8,0.12001
6478.66,0.12170
6455.51,0.11903
6432.37,0.11490
6409.22,0.12042
6386.08,0.11908
6362.93,0.11949
6339.79,0.11826
6316.64,0.11688
6293.5,0.12000
6270.35,0.11920
6247.21,0.11836
6224.06,0.11801
6200.92,0.11842
6177.77,0.11850
6154.63,0.11877
6131.48,0.11661
6108.34,0.11917
6085.19,0.11894
6062.05,0.11801
6038.9,0.11756
6015.76,0.12030
5992.61,0.11768
5969.47,0.11704
5946.32,0.11501
5923.18,0.11025
5900.03,0.10326
5876.89,0.10342
5853.74,0.09980
5830.6,0.10509
5807.45,0.10158
5784.31,0.10241
5761.16,0.09983
5738.02,0.10606
5714.87,0.10894
5691.73,0.11001
5668.58,0.10707
5645.44,0.11045
5622.29,0.11000
5599.15,0.11260
5576,0.11177
5552.86,0.11247
5529.71,0.11501
5506.57,0.11140
5483.42,0.11174
5460.28,0.11244
5437.13,0.11317
5413.99,0.11443
5390.84,0.11602
5367.7,0.11700
5344.55,0.11582
5321.41,0.11807
5298.26,0.11644
5275.12,0.11587
5251.97,0.11671
5228.83,0.11648
5205.68,0.11703
5182.54,0.11766
5159.39,0.11732
5136.25,0.11752
5113.1,0.11888
5089.96,0.11883
5066.81,0.11764
5043.67,0.11787
5020.52,0.11901
4997.38,0.11893
4974.23,0.11953
4951.09,0.12050
4927.94,0.12059
4904.8,0.12070
4881.65,0.11978
4858.51,0.12089
4835.36,0.12165
4812.22,0.12062
4789.07,0.12090
4765.93,0.12195
4742.78,0.12247
4719.64,0.12231
4696.49,0.12166
4673.35,0.12156
4650.2,0.12008
4627.06,0.12034
4603.92,0.11977
4580.77,0.11880
4557.63,0.11872
4534.48,0.11894
4511.34,0.11870
4488.19,0.11841
4465.05,0.11735
4441.9,0.11201
4418.76,0.09587
4395.61,0.07635
4372.47,0.08331
4349.32,0.08335
4326.18,0.05799
4303.03,0.06754
4279.89,0.07298
4256.74,0.06960
4233.6,0.06606
4210.45,0.07108
4187.31,0.07869
4164.16,0.07500
4141.02,0.08019
4117.87,0.07753
4094.73,0.08436
4071.58,0.07380
4048.44,0.07790
4025.29,0.08746
4002.15,0.09196
3979,0.09467
3955.86,0.09839
3932.71,0.09694
3909.57,0.09901
3886.42,0.10038
3863.28,0.10160
3840.13,0.10289
3816.99,0.10214
3793.84,0.10421
3770.7,0.10320
3747.55,0.10531
3724.41,0.10728
3701.26,0.10684
3678.12,0.10924
3654.97,0.11302
3631.83,0.11112
3608.68,0.11352
3585.54,0.11307
3562.39,0.11186
3539.25,0.10919
3516.1,0.10739
3492.96,0.10493
3469.81,0.10270
3446.67,0.09731
3423.52,0.09228
3400.38,0.09248
3377.23,0.09134
3354.09,0.08890
3330.94,0.09128
3307.8,0.09275
3284.65,0.09121
3261.51,0.09093
3238.36,0.08807
3215.22,0.07346
3192.07,0.06442
3168.93,0.06841
3145.78,0.06501
3122.64,0.06865
3099.49,0.07153
3076.35,0.07127
3053.2,0.06375
3030.06,0.05561
3006.91,0.03525
2983.77,0.01766
2960.62,0.01654
2937.48,0.01701
2914.33,0.01879
2891.19,0.01828
2868.04,0.01859
2844.9,0.01801
2821.75,0.02130
2798.61,0.03001
2775.46,0.04929
2752.32,0.05718
2729.17,0.04191
2706.03,0.05198
2682.88,0.05788
2659.74,0.05940
2636.59,0.06866
2613.45,0.06335
2590.3,0.07005
2567.16,0.07536
2544.02,0.08525
2520.87,0.09523
2497.73,0.10006
2474.58,0.10468
2451.44,0.10383
2428.29,0.09433
2405.15,0.09968
2382,0.10215
2358.86,0.10050
2335.71,0.10760
2312.57,0.11588
2289.42,0.11701
2266.28,0.11223
2243.13,0.11614
2219.99,0.11777
2196.84,0.11522
2173.7,0.11302
2150.55,0.12046
2127.41,0.11804
2104.26,0.13172
2081.12,0.13520
2057.97,0.14011
2034.83,0.13959
2011.68,0.14086
1988.54,0.13969
1965.39,0.13942
1942.25,0.13840
1919.1,0.13617
1895.96,0.13203
1872.81,0.13656
1849.67,0.13371
1826.52,0.13071
1803.38,0.13291
1780.23,0.12816
1757.09,0.11659
1733.94,0.10034
1710.8,0.10439
1687.65,0.10056
1664.51,0.10166
1641.36,0.09219
1618.22,0.09720
1595.07,0.10203
1571.93,0.10280
1548.78,0.09453
1525.64,0.08871
1502.49,0.07451
1479.35,0.03390
1456.2,0.01686
1433.06,0.02737
1409.91,0.05523
1386.77,0.02782
1363.62,0.02540
1340.48,0.05878
1317.33,0.07021
1294.19,0.05603
1271.04,0.07870
1247.9,0.07078
1224.75,0.07819
1201.61,0.08412
1178.46,0.05919
1155.32,0.03431
1132.17,0.08005
1109.03,0.07288
1085.88,0.09266
1062.74,0.09870
1039.59,0.08186
1016.45,0.08420
993.304,0.04287
970.159,0.03203
947.014,0.10526
923.869,0.12688
900.724,0.06376
877.579,0.11440
854.434,0.09109
831.289,0.08100
808.144,0.05919
784.999,0.13633
761.854,0.15041
738.709,0.15036
715.565,0.14282
692.42,0.15088
669.275,0.15177
646.13,0.15280
622.985,0.15327
599.84,0.15591

File: Polyolefin_Carpet_Low_Pile_IS_S_220819_R4.dpt
7497.03,0.12205
7473.89,0.12356
7450.74,0.12144
7427.6,0.12096
7404.45,0.11478
7381.31,0.11373
7358.16,0.11196
7335.02,0.11958
7311.87,0.11854
7288.73,0.12143
7265.58,0.11994
7242.44,0.12180
7219.29,0.11209
7196.15,0.11462
7173,0.11522
7149.86,0.11688
7126.71,0.10975
7103.57,0.11881
7080.42,0.11773
7057.28,0.12102
7034.13,0.11541
7010.99,0.12216
6987.84,0.12106
6964.7,0.11921
6941.55,0.11312
6918.41,0.11976
6895.26,0.11852
6872.12,0.12012
6848.97,0.12162
6825.83,0.11703
6802.68,0.11742
6779.54,0.11872
6756.39,0.11844
6733.25,0.12037
6710.1,0.11555
6686.96,0.11600
6663.82,0.11553
6640.67,0.11503
6617.53,0.11929
6594.38,0.11884
6571.24,0.12078
6548.09,0.11723
6524.95,0.12192
6501.8,0.11987
6478.66,0.11781
6455.51,0.12171
6432.37,0.11724
6409.22,0.11737
6386.08,0.11694
6362.93,0.11997
6339.79,0.12142
6316.64,0.11896
6293.5,0.11665
6270.35,0.11787
6247.21,0.11964
6224.06,0.11780
6200.92,0.11722
6177.77,0.11597
6154.63,0.11926
6131.48,0.11799
6108.34,0.11486
6085.19,0.12021
6062.05,0.12201
6038.9,0.11672
6015.76,0.11780
5992.61,0.11629
5969.47,0.11529
5946.32,0.11711
5923.18,0.11460
5900.03,0.10542
5876.89,0.10303
5853.74,0.09971
5830.6,0.10329
5807.45,0.10325
5784.31,0.10108
5761.16,0.10033
5738.02,0.10543
5714.87,0.10892
5691.73,0.11109
5668.58,0.10898
5645.44,0.11083
5622.29,0.10834
5599.15,0.11314
5576,0.11167
5552.86,0.11333
5529.71,0.11170
5506.57,0.11349
5483.42,0.11373
5460.28,0.11129
5437.13,0.11283
5413.99,0.11381
5390.84,0.11577
5367.7,0.11659
5344.55,0.11793
5321.41,0.11687
5298.26,0.11562
5275.12,0.11729
5251.97,0.11542
5228.83,0.11752
5205.68,0.11684
5182.54,0.11627
5159.39,0.11838
5136.25,0.11759
5113.1,0.11726
5089.96,0.11744
5066.81,0.11862
5043.67,0.11758
5020.52,0.11925
4997.38,0.12011
4974.23,0.11888
4951.09,0.12025
4927.94,0.12029
4904.8,0.12100
4881.65,0.12134
4858.51,0.12090
4835.36,0.12030
4812.22,0.12120
4789.07,0.12160
4765.93,0.12165
4742.78,0.12201
4719.64,0.12186
4696.49,0.12131
4673.35,0.12080
4650.2,0.12089
4627.06,0.12049
4603.92,0.11983
4580.77,0.11889
4557.63,0.11880
4534.48,0.11909
4511.34,0.11949
4488.19,0.11880
4465.05,0.11732
4441.9,0.11247
4418.76,0.09556
4395.61,0.07633
4372.47,0.08382
4349.32,0.08307
4326.18,0.05741
4303.03,0.06867
4279.89,0.07372
4256.74,0.06959
4233.6,0.06656
4210.45,0.07077
4187.31,0.07906
4164.16,0.07464
4141.02,0.08065
4117.87,0.07763
4094.73,0.08496
4071.58,0.07422
4048.44,0.07804
4025.29,0.08765
4002.15,0.09144
3979,0.09441
3955.86,0.09805
3932.71,0.09805
3909.57,0.09912
3886.42,0.10023
3863.28,0.10140
3840.13,0.10308
3816.99,0.10204
3793.84,0.10306
3770.7,0.10344
3747.55,0.10432
3724.41,0.10698
3701.26,0.10750
3678.12,0.10891
3654.97,0.11369
3631.83,0.11089
3608.68,0.11410
3585.54,0.11300
3562.39,0.11145
3539.25,0.10915
3516.1,0.10731
3492.96,0.10545
3469.81,0.10189
3446.67,0.09795
3423.52,0.09287
3400.38,0.09230
3377.23,0.09168
3354.09,0.08823
3330.94,0.09133
3307.8,0.09216
3284.65,0.09110
3261.51,0.09119
3238.36,0.08917
3215.22,0.07342
3192.07,0.06403
3168.93,0.06799
3145.78,0.06498
3122.64,0.06925
3099.49,0.07239
3076.35,0.07078
3053.2,0.06424
3030.06,0.05524
3006.91,0.03498
2983.77,0.01733
2960.62,0.01655
2937.48,0.01672
2914.33,0.01879
2891.19,0.01855
2868.04,0.01859
2844.9,0.01833
2821.75,0.02137
2798.61,0.02981
2775.46,0.04929
2752.32,0.05625
2729.17,0.04226
2706.03,0.05222
2682.88,0.05774
2659.74,0.05915
2636.59,0.06851
2613.45,0.06355
2590.3,0.07005
2567.16,0.07556
2544.02,0.08510
2520.87,0.09486
2497.73,0.09981
2474.58,0.10456
2451.44,0.10363
2428.29,0.09474
2405.15,0.09931
2382,0.10207
2358.86,0.10018
2335.71,0.10775
2312.57,0.11574
2289.42,0.11689
2266.28,0.11216
2243.13,0.11600
2219.99,0.11768
2196.84,0.11495
2173.7,0.11307
2150.55,0.12074
2127.41,0.11755
2104.26,0.13113
2081.12,0.13485
2057.97,0.14019
2034.83,0.13935
2011.68,0.14073
1988.54,0.13942
1965.39,0.13929
1942.25,0.13816
1919.1,0.13592
1895.96,0.13191
1872.81,0.13648
1849.67,0.13380
1826.52,0.13052
1803.38,0.13273
1780.23,0.12813
1757.09,0.11596
1733.94,0.10004
1710.8,0.10463
1687.65,0.10047
1664.51,0.10143
1641.36,0.09204
1618.22,0.09698
1595.07,0.10219
1571.93,0.10279
1548.78,0.09416
1525.64,0.08903
1502.49,0.07483
1479.35,0.03365
1456.2,0.01757
1433.06,0.02777
1409.91,0.05542
1386.77,0.02741
1363.62,0.02541
1340.48,0.05860
1317.33,0.07007
1294.19,0.05580
1271.04,0.07928
1247.9,0.07073
1224.75,0.07858
1201.61,0.08380
1178.46,0.05969
1155.32,0.03415
1132.17,0.07963
1109.03,0.07332
1085.88,0.09210
1062.74,0.09909
1039.59,0.08175
1016.45,0.08413
993.304,0.04193
970.159,0.03289
947.014,0.10474
923.869,0.12814
900.724,0.06397
877.579,0.11474
854.434,0.08982
831.289,0.08132
808.144,0.05993
784.999,0.13641
761.854,0.15001
738.709,0.14995
715.565,0.14166
692.42,0.15175
669.275,0.15149
646.13,0.15376
622.985,0.15219
599.84,0.15205

File: Polyolefin_Carpet_Low_Pile_IS_S_220819_R5.dpt
7497.03,0.11210
7473.89,0.11808
7450.74,0.11351
7427.6,0.12120
7404.45,0.11303
7381.31,0.12100
7358.16,0.10981
7335.02,0.11643
7311.87,0.12203
7288.73,0.11867
7265.58,0.11951
7242.44,0.11949
7219.29,0.11442
7196.15,0.12162
7173,0.11416
7149.86,0.11516
7126.71,0.12367
7103.57,0.11685
7080.42,0.11387
7057.28,0.12033
7034.13,0.12151
7010.99,0.12168
6987.84,0.11660
6964.7,0.12057
6941.55,0.11382
6918.41,0.11848
6895.26,0.11465
6872.12,0.11468
6848.97,0.11699
6825.83,0.11735
6802.68,0.11490
6779.54,0.11636
6756.39,0.12594
6733.25,0.12029
6710.1,0.11459
6686.96,0.11742
6663.82,0.11715
6640.67,0.11739
6617.53,0.11750
6594.38,0.11787
6571.24,0.11832
6548.09,0.11691
6524.95,0.12158
6501.8,0.11815
6478.66,0.11593
6455.51,0.11866
6432.37,0.11625
6409.22,0.12083
6386.08,0.11918
6362.93,0.11960
6339.79,0.11868
6316.64,0.11828
6293.5,0.11929
6270.35,0.11899
6247.21,0.11827
6224.06,0.11904
6200.92,0.11892
6177.77,0.12080
6154.63,0.11901
6131.48,0.11957
6108.34,0.11871
6085.19,0.11979
6062.05,0.11749
6038.9,0.11642
6015.76,0.12122
5992.61,0.11647
5969.47,0.11679
5946.32,0.11698
5923.18,0.11111
5900.03,0.10509
5876.89,0.10242
5853.74,0.10184
5830.6,0.10307
5807.45,0.09957
5784.31,0.10019
5761.16,0.09989
5738.02,0.10656
5714.87,0.10964
5691.73,0.10856
5668.58,0.10873
5645.44,0.10778
5622.29,0.11070
5599.15,0.11244
5576,0.11222
5552.86,0.11170
5529.71,0.11266
5506.57,0.11123
5483.42,0.11346
5460.28,0.11199
5437.13,0.11442
5413.99,0.11435
5390.84,0.11541
5367.7,0.11549
5344.55,0.11545
5321.41,0.11749
5298.26,0.11543
5275.12,0.11665
5251.97,0.11802
5228.83,0.11490
5205.68,0.11547
5182.54,0.11717
5159.39,0.11638
5136.25,0.11708
5113.1,0.11733
5089.96,0.11697
5066.81,0.11883
5043.67,0.11831
5020.52,0.11935
4997.38,0.12006
4974.23,0.11906
4951.09,0.12067
4927.94,0.11941
4904.8,0.12085
4881.65,0.12047
4858.51,0.12048
4835.36,0.11977
4812.22,0.12008
4789.07,0.11904
4765.93,0.11990
4742.78,0.12064
4719.64,0.12125
4696.49,0.12086
4673.35,0.12045
4650.2,0.11974
4627.06,0.11952
4603.92,0.12041
4580.77,0.11896
4557.63,0.11943
4534.48,0.11898
4511.34,0.11862
4488.19,0.11846
4465.05,0.11718
4441.9,0.11172
4418.76,0.09530
4395.61,0.07647
4372.47,0.08345
4349.32,0.08292
4326.18,0.05833
4303.03,0.06839
4279.89,0.07369
4256.74,0.06980
4233.6,0.06662
4210.45,0.07133
4187.31,0.07902
4164.16,0.07483
4141.02,0.08033
4117.87,0.07746
4094.73,0.08394
4071.58,0.07452
4048.44,0.07829
4025.29,0.08719
4002.15,0.09222
3979,0.09478
3955.86,0.09820
3932.71,0.09781
3909.57,0.09851
3886.42,0.10035
3863.28,0.10216
3840.13,0.10319
3816.99,0.10192
3793.84,0.10402
3770.7,0.10326
3747.55,0.10438
3724.41,0.10725
3701.26,0.10756
3678.12,0.10887
3654.97,0.11239
3631.83,0.11025
3608.68,0.11371
3585.54,0.11365
3562.39,0.11111
3539.25,0.10873
3516.1,0.10737
3492.96,0.10494
3469.81,0.10189
3446.67,0.09784
3423.52,0.09299
3400.38,0.09324
3377.23,0.09123
3354.09,0.08840
3330.94,0.09125
3307.8,0.09281
3284.65,0.09042
3261.51,0.09192
3238.36,0.08887
3215.22,0.07369
3192.07,0.06396
3168.93,0.06804
3145.78,0.06540
3122.64,0.06979
3099.49,0.07188
3076.35,0.07080
3053.2,0.06361
3030.06,0.05537
3006.91,0.03507
2983.77,0.01764
2960.62,0.01680
2937.48,0.01669
2914.33,0.01888
2891.19,0.01855
2868.04,0.01833
2844.9,0.01841
2821.75,0.02129
2798.61,0.02999
2775.46,0.04963
2752.32,0.05658
2729.17,0.04217
2706.03,0.05249
2682.88,0.05744
2659.74,0.05906
2636.59,0.06869
2613.45,0.06339
2590.3,0.06966
2567.16,0.07543
2544.02,0.08527
2520.87,0.09463
2497.73,0.10001
2474.58,0.10423
2451.44,0.10378
2428.29,0.09459
2405.15,0.09932
2382,0.10217
2358.86,0.10012
2335.71,0.10738
2312.57,0.11591
2289.42,0.11647
2266.28,0.11193
2243.13,0.11588
2219.99,0.11762
2196.84,0.11506
2173.7,0.11276
2150.55,0.12054
2127.41,0.11754
2104.26,0.13114
2081.12,0.13489
2057.97,0.13995
2034.83,0.13910
2011.68,0.14055
1988.54,0.13927
1965.39,0.13912
1942.25,0.13788
1919.1,0.13592
1895.96,0.13144
1872.81,0.13607
1849.67,0.13339
1826.52,0.13028
1803.38,0.13271
1780.23,0.12800
1757.09,0.11630
1733.94,0.09996
1710.8,0.10469
1687.65,0.10042
1664.51,0.10123
1641.36,0.09153
1618.22,0.09684
1595.07,0.10208
1571.93,0.10260
1548.78,0.09415
1525.64,0.08852
1502.49,0.07431
1479.35,0.03354
1456.2,0.01747
1433.06,0.02729
1409.91,0.05555
1386.77,0.02698
1363.62,0.02541
1340.48,0.05867
1317.33,0.06991
1294.19,0.05570
1271.04,0.07890
1247.9,0.07065
1224.75,0.07858
1201.61,0.08397
1178.46,0.05995
1155.32,0.03434
1132.17,0.07984
1109.03,0.07292
1085.88,0.09164
1062.74,0.09928
1039.59,0.08091
1016.45,0.08447
993.304,0.04170
970.159,0.03266
947.014,0.10458
923.869,0.12737
900.724,0.06455
877.579,0.11440
854.434,0.09065
831.289,0.08084
808.144,0.05979
784.999,0.13632
761.854,0.15050
738.709,0.14995
715.565,0.14302
692.42,0.14984
669.275,0.15193
646.13,0.15380
622.985,0.15311
599.84,0.15401