Folder: fsri_materials_database/01_Data/Cotton_Sheet/FTIR/IS

Note: README.md
# Materials and Products Database
### Repository of materials and products properties and fire test data to improve fire modeling and fire investigation.

This project was supported in part by Award No. 2019-DU-BX-0018, awarded by the National Institute of Justice, Office of Justice Programs, U.S. Department of Justice. The opinions, findings, and conclusions or recommendations expressed in this publication / program / exhibition are those of the author(s) and do not necessarily reflect those of the Department of Justice.

***
***

__Cite this database:__ "McKinnon, M., Weinschenk, C., Dow, N., DiDomizio, M., and Madrzykowski, D. Materials and Products Database (Version 1.0.0), Fire Safety Research Institute, UL Research Institutes. Columbia, MD 21045, 2023."

__Cite the Technical Reference Guide:__ "McKinnon, M., Weinschenk, C., and Madrzykowski, D. Materials and Products Database - Technical Reference Guide, Fire Safety Research Institute, UL Research Institutes. Columbia, MD 21045, 2023."

__Cite the User Guide:__ "McKinnon, M., and Weinschenk, C. Materials and Products Database - User Guide, Fire Safety Research Institute, UL Research Institutes. Columbia, MD 21045, 2023."

***
***

## Database Structure

## 01_Data/
Raw data generated from each apparatus are included here in plain-text format. The data is organized first by material, next by the short name of test apparatus used, and where applicable additional filtering by test settings.

### Test Apparatus and Data File Structure
- __Cone Calorimeter__ (Cone)
    + Data file structure includes the material, the short name for the apparatus, heat flux setting and scan/scalar, date of test, and replicate number. Scan is for the raw output data and scalar is for the initial conditions and high-level test parameters. 
        * Example: __MDF_Cone_HF25scalar_210323_R1__ stands for the first replicate of scalar data generated from a medium density fiber board test in cone calorimeter exposed to 25 kW/m<sup>2</sup> on March 23, 2021.
    + A _Cone_Notes.csv_ is generated for each material from the __plot_Cone_data.py__ script. For materials whose experiments deviated from typical behavior relevant pictures are included in the respective material directory.
- __Fourier Transform Infrared Spectrometer__ (FTIR)
    + The FTIR directory contains subdirectories for the Attenuated Total Reflectance method (ATR) and the Integrating Sphere (IS)
    + Data file structure for the ATR experiment files includes the material, the abbreviated name for the apparatus, date of test, and replicate number. 
        * Example: __MDF_ATR_210323_R5__ stands for the fifth replicate of data collected with the ATR accessory conducted on June 8, 2021.
    + Data file structure for the IS experiment files includes the material, the abbreviated name for the apparatus, the measurand, whether the test is a sample measurement or standard reference, date of test, and replicate number.
        * Example: __OSB_IS_REFLECT_MEAS_2

File: Cotton_Sheet_IS_S_220826_R1.dpt
7497.03,0.62250
7473.89,0.61327
7450.74,0.63012
7427.6,0.60662
7404.45,0.61231
7381.31,0.60883
7358.16,0.60965
7335.02,0.60171
7311.87,0.60511
7288.73,0.60053
7265.58,0.60676
7242.44,0.60989
7219.29,0.60103
7196.15,0.59998
7173,0.59434
7149.86,0.60578
7126.71,0.59968
7103.57,0.59876
7080.42,0.58968
7057.28,0.58114
7034.13,0.57271
7010.99,0.56864
6987.84,0.56075
6964.7,0.55310
6941.55,0.54899
6918.41,0.54393
6895.26,0.55040
6872.12,0.54698
6848.97,0.54133
6825.83,0.53830
6802.68,0.53317
6779.54,0.52768
6756.39,0.52335
6733.25,0.51858
6710.1,0.52407
6686.96,0.52125
6663.82,0.52470
6640.67,0.51787
6617.53,0.52642
6594.38,0.52780
6571.24,0.52561
6548.09,0.52909
6524.95,0.53200
6501.8,0.52870
6478.66,0.52632
6455.51,0.53462
6432.37,0.52657
6409.22,0.53208
6386.08,0.53006
6362.93,0.53575
6339.79,0.53535
6316.64,0.53520
6293.5,0.53485
6270.35,0.54116
6247.21,0.54453
6224.06,0.54892
6200.92,0.55467
6177.77,0.56032
6154.63,0.56862
6131.48,0.56775
6108.34,0.57169
6085.19,0.57543
6062.05,0.57533
6038.9,0.58256
6015.76,0.58157
5992.61,0.58490
5969.47,0.58660
5946.32,0.58588
5923.18,0.58316
5900.03,0.58148
5876.89,0.57618
5853.74,0.57867
5830.6,0.57665
5807.45,0.57700
5784.31,0.57431
5761.16,0.57312
5738.02,0.57631
5714.87,0.57288
5691.73,0.57012
5668.58,0.56924
5645.44,0.57050
5622.29,0.56845
5599.15,0.56787
5576,0.56762
5552.86,0.56863
5529.71,0.56986
5506.57,0.56989
5483.42,0.56872
5460.28,0.57250
5437.13,0.57268
5413.99,0.57431
5390.84,0.57662
5367.7,0.57749
5344.55,0.57847
5321.41,0.57590
5298.26,0.57006
5275.12,0.55857
5251.97,0.54479
5228.83,0.52936
5205.68,0.52106
5182.54,0.51955
5159.39,0.52089
5136.25,0.52446
5113.1,0.52988
5089.96,0.53480
5066.81,0.53927
5043.67,0.54231
5020.52,0.54511
4997.38,0.54451
4974.23,0.54114
4951.09,0.53493
4927.94,0.52230
4904.8,0.50514
4881.65,0.48381
4858.51,0.46218
4835.36,0.44711
4812.22,0.43052
4789.07,0.42005
4765.93,0.41436
4742.78,0.41322
4719.64,0.42014
4696.49,0.42965
4673.35,0.44007
4650.2,0.44817
4627.06,0.45789
4603.92,0.46599
4580.77,0.47565
4557.63,0.48415
4534.48,0.49120
4511.34,0.49431
4488.19,0.49676
4465.05,0.49406
4441.9,0.47672
4418.76,0.44381
4395.61,0.41990
4372.47,0.43395
4349.32,0.43211
4326.18,0.41952
4303.03,0.40777
4279.89,0.39736
4256.74,0.39727
4233.6,0.40118
4210.45,0.40471
4187.31,0.41111
4164.16,0.41587
4141.02,0.41204
4117.87,0.40339
4094.73,0.38001
4071.58,0.35478
4048.44,0.32476
4025.29,0.30776
4002.15,0.31427
3979,0.32550
3955.86,0.33593
3932.71,0.34892
3909.57,0.35921
3886.42,0.36816
3863.28,0.37798
3840.13,0.39199
3816.99,0.39604
3793.84,0.39691
3770.7,0.39663
3747.55,0.39327
3724.41,0.37959
3701.26,0.35579
3678.12,0.31369
3654.97,0.24640
3631.83,0.18432
3608.68,0.13166
3585.54,0.09477
3562.39,0.07087
3539.25,0.05397
3516.1,0.04271
3492.96,0.03474
3469.81,0.03105
3446.67,0.02966
3423.52,0.02935
3400.38,0.02970
3377.23,0.03042
3354.09,0.03380
3330.94,0.03926
3307.8,0.03939
3284.65,0.04057
3261.51,0.04523
3238.36,0.04906
3215.22,0.05489
3192.07,0.06284
3168.93,0.07233
3145.78,0.08251
3122.64,0.09434
3099.49,0.10723
3076.35,0.12156
3053.2,0.13368
3030.06,0.14434
3006.91,0.15058
2983.77,0.13260
2960.62,0.08993
2937.48,0.07278
2914.33,0.05810
2891.19,0.05909
2868.04,0.06585
2844.9,0.08109
2821.75,0.10888
2798.61,0.13080
2775.46,0.13738
2752.32,0.14043
2729.17,0.14015
2706.03,0.15011
2682.88,0.16748
2659.74,0.17622
2636.59,0.18700
2613.45,0.19595
2590.3,0.20370
2567.16,0.20361
2544.02,0.19875
2520.87,0.20186
2497.73,0.21651
2474.58,0.23031
2451.44,0.23807
2428.29,0.25249
2405.15,0.26527
2382,0.27669
2358.86,0.28873
2335.71,0.29929
2312.57,0.30551
2289.42,0.30098
2266.28,0.29089
2243.13,0.27800
2219.99,0.28090
2196.84,0.28462
2173.7,0.26521
2150.55,0.24679
2127.41,0.24275
2104.26,0.25675
2081.12,0.26491
2057.97,0.26326
2034.83,0.26886
2011.68,0.29315
1988.54,0.30401
1965.39,0.31225
1942.25,0.32624
1919.1,0.33894
1895.96,0.34087
1872.81,0.33728
1849.67,0.32749
1826.52,0.31545
1803.38,0.30232
1780.23,0.28831
1757.09,0.26962
1733.94,0.24700
1710.8,0.23031
1687.65,0.18141
1664.51,0.13694
1641.36,0.13612
1618.22,0.15057
1595.07,0.16318
1571.93,0.16675
1548.78,0.16550
1525.64,0.15824
1502.49,0.13551
1479.35,0.08123
1456.2,0.05145
1433.06,0.04031
1409.91,0.05606
1386.77,0.04702
1363.62,0.03804
1340.48,0.03850
1317.33,0.03965
1294.19,0.05107
1271.04,0.05221
1247.9,0.04863
1224.75,0.05124
1201.61,0.03577
1178.46,0.03412
1155.32,0.04224
1132.17,0.02392
1109.03,0.03917
1085.88,0.03531
1062.74,0.08368
1039.59,0.06499
1016.45,0.06739
993.304,0.07162
970.159,0.10992
947.014,0.15133
923.869,0.15430
900.724,0.11942
877.579,0.15631
854.434,0.16636
831.289,0.15218
808.144,0.13223
784.999,0.11339
761.854,0.09164
738.709,0.07200
715.565,0.05312
692.42,0.05376
669.275,0.04827
646.13,0.04930
622.985,0.04353
599.84,0.05533

File: Cotton_Sheet_IS_S_220826_R2.dpt
7497.03,0.61393
7473.89,0.60649
7450.74,0.62766
7427.6,0.61389
7404.45,0.61210
7381.31,0.61200
7358.16,0.61883
7335.02,0.60379
7311.87,0.60869
7288.73,0.60476
7265.58,0.61025
7242.44,0.61178
7219.29,0.59736
7196.15,0.60319
7173,0.60076
7149.86,0.60275
7126.71,0.60726
7103.57,0.59600
7080.42,0.59261
7057.28,0.59202
7034.13,0.57714
7010.99,0.56356
6987.84,0.55846
6964.7,0.55709
6941.55,0.55074
6918.41,0.55007
6895.26,0.55221
6872.12,0.54628
6848.97,0.54034
6825.83,0.53490
6802.68,0.53772
6779.54,0.53205
6756.39,0.52501
6733.25,0.52395
6710.1,0.52244
6686.96,0.52160
6663.82,0.52758
6640.67,0.52811
6617.53,0.53060
6594.38,0.52986
6571.24,0.53013
6548.09,0.53045
6524.95,0.52896
6501.8,0.53027
6478.66,0.53482
6455.51,0.53212
6432.37,0.53252
6409.22,0.53475
6386.08,0.53587
6362.93,0.53785
6339.79,0.53737
6316.64,0.53921
6293.5,0.53768
6270.35,0.54091
6247.21,0.54681
6224.06,0.55311
6200.92,0.56059
6177.77,0.56229
6154.63,0.56607
6131.48,0.57082
6108.34,0.57571
6085.19,0.57484
6062.05,0.57894
6038.9,0.58352
6015.76,0.58654
5992.61,0.58744
5969.47,0.58954
5946.32,0.58757
5923.18,0.58700
5900.03,0.58453
5876.89,0.58023
5853.74,0.57799
5830.6,0.57870
5807.45,0.57962
5784.31,0.57787
5761.16,0.57675
5738.02,0.57501
5714.87,0.57594
5691.73,0.57406
5668.58,0.57197
5645.44,0.57434
5622.29,0.57208
5599.15,0.57242
5576,0.57250
5552.86,0.57191
5529.71,0.57143
5506.57,0.57206
5483.42,0.57000
5460.28,0.57060
5437.13,0.57382
5413.99,0.57617
5390.84,0.57933
5367.7,0.57949
5344.55,0.58045
5321.41,0.57897
5298.26,0.57430
5275.12,0.56727
5251.97,0.55568
5228.83,0.54401
5205.68,0.53752
5182.54,0.53746
5159.39,0.53752
5136.25,0.54086
5113.1,0.54485
5089.96,0.54934
5066.81,0.55181
5043.67,0.55387
5020.52,0.55272
4997.38,0.55174
4974.23,0.54729
4951.09,0.53934
4927.94,0.52600
4904.8,0.50869
4881.65,0.48570
4858.51,0.46542
4835.36,0.44718
4812.22,0.43204
4789.07,0.42091
4765.93,0.41691
4742.78,0.41583
4719.64,0.42272
4696.49,0.43096
4673.35,0.44253
4650.2,0.45049
4627.06,0.45990
4603.92,0.46897
4580.77,0.47758
4557.63,0.48662
4534.48,0.49280
4511.34,0.49739
4488.19,0.49923
4465.05,0.49670
4441.9,0.47949
4418.76,0.44628
4395.61,0.42381
4372.47,0.43610
4349.32,0.43395
4326.18,0.42190
4303.03,0.40938
4279.89,0.39938
4256.74,0.39959
4233.6,0.40348
4210.45,0.40786
4187.31,0.41527
4164.16,0.41842
4141.02,0.41510
4117.87,0.40651
4094.73,0.38260
4071.58,0.35733
4048.44,0.32687
4025.29,0.30951
4002.15,0.31677
3979,0.32900
3955.86,0.33832
3932.71,0.35185
3909.57,0.36228
3886.42,0.37146
3863.28,0.38190
3840.13,0.39652
3816.99,0.40044
3793.84,0.40303
3770.7,0.40381
3747.55,0.40020
3724.41,0.38952
3701.26,0.36820
3678.12,0.32962
3654.97,0.26827
3631.83,0.20464
3608.68,0.14745
3585.54,0.10335
3562.39,0.07495
3539.25,0.05620
3516.1,0.04326
3492.96,0.03566
3469.81,0.03166
3446.67,0.02986
3423.52,0.02964
3400.38,0.03060
3377.23,0.03068
3354.09,0.03434
3330.94,0.03992
3307.8,0.03897
3284.65,0.04079
3261.51,0.04571
3238.36,0.04976
3215.22,0.05679
3192.07,0.06528
3168.93,0.07488
3145.78,0.08650
3122.64,0.09933
3099.49,0.11339
3076.35,0.12798
3053.2,0.14137
3030.06,0.15144
3006.91,0.15647
2983.77,0.13717
2960.62,0.09036
2937.48,0.07381
2914.33,0.05819
2891.19,0.05902
2868.04,0.06570
2844.9,0.08204
2821.75,0.10985
2798.61,0.13212
2775.46,0.13867
2752.32,0.14194
2729.17,0.14210
2706.03,0.15184
2682.88,0.16891
2659.74,0.17843
2636.59,0.18847
2613.45,0.19769
2590.3,0.20516
2567.16,0.20559
2544.02,0.20042
2520.87,0.20364
2497.73,0.21826
2474.58,0.23198
2451.44,0.24053
2428.29,0.25476
2405.15,0.26778
2382,0.28000
2358.86,0.29225
2335.71,0.30313
2312.57,0.30983
2289.42,0.30570
2266.28,0.29547
2243.13,0.28349
2219.99,0.28623
2196.84,0.29094
2173.7,0.27109
2150.55,0.25231
2127.41,0.24846
2104.26,0.26243
2081.12,0.27126
2057.97,0.26931
2034.83,0.27490
2011.68,0.29968
1988.54,0.31081
1965.39,0.31903
1942.25,0.33334
1919.1,0.34654
1895.96,0.34799
1872.81,0.34436
1849.67,0.33498
1826.52,0.32241
1803.38,0.30899
1780.23,0.29542
1757.09,0.27706
1733.94,0.25459
1710.8,0.24098
1687.65,0.19453
1664.51,0.14906
1641.36,0.15106
1618.22,0.16260
1595.07,0.17156
1571.93,0.17294
1548.78,0.17040
1525.64,0.16231
1502.49,0.13880
1479.35,0.08235
1456.2,0.05174
1433.06,0.03973
1409.91,0.05597
1386.77,0.04650
1363.62,0.03803
1340.48,0.03849
1317.33,0.03962
1294.19,0.05122
1271.04,0.05265
1247.9,0.04845
1224.75,0.05145
1201.61,0.03561
1178.46,0.03387
1155.32,0.04264
1132.17,0.02417
1109.03,0.03945
1085.88,0.03512
1062.74,0.08335
1039.59,0.06496
1016.45,0.06691
993.304,0.07176
970.159,0.10974
947.014,0.15201
923.869,0.15639
900.724,0.12124
877.579,0.16011
854.434,0.17506
831.289,0.16107
808.144,0.14022
784.999,0.12104
761.854,0.09697
738.709,0.07337
715.565,0.05387
692.42,0.05481
669.275,0.04893
646.13,0.04966
622.985,0.04468
599.84,0.05120

File: Cotton_Sheet_IS_S_220826_R3.dpt
7497.03,0.62013
7473.89,0.61869
7450.74,0.61129
7427.6,0.61298
7404.45,0.61133
7381.31,0.61781
7358.16,0.60907
7335.02,0.60461
7311.87,0.60181
7288.73,0.60614
7265.58,0.60736
7242.44,0.60551
7219.29,0.60206
7196.15,0.60097
7173,0.59771
7149.86,0.60205
7126.71,0.59836
7103.57,0.60223
7080.42,0.58828
7057.28,0.58095
7034.13,0.57266
7010.99,0.56825
6987.84,0.56700
6964.7,0.55373
6941.55,0.55614
6918.41,0.55136
6895.26,0.54685
6872.12,0.54780
6848.97,0.54193
6825.83,0.54141
6802.68,0.53013
6779.54,0.53159
6756.39,0.52513
6733.25,0.52387
6710.1,0.52363
6686.96,0.52552
6663.82,0.52501
6640.67,0.52877
6617.53,0.52273
6594.38,0.52694
6571.24,0.53219
6548.09,0.52922
6524.95,0.53391
6501.8,0.53009
6478.66,0.53193
6455.51,0.53440
6432.37,0.53359
6409.22,0.53552
6386.08,0.53379
6362.93,0.53601
6339.79,0.53631
6316.64,0.53702
6293.5,0.54084
6270.35,0.54208
6247.21,0.54731
6224.06,0.55163
6200.92,0.55804
6177.77,0.56471
6154.63,0.56842
6131.48,0.57027
6108.34,0.57347
6085.19,0.57719
6062.05,0.58029
6038.9,0.58207
6015.76,0.58503
5992.61,0.58587
5969.47,0.58979
5946.32,0.58800
5923.18,0.58688
5900.03,0.58359
5876.89,0.57974
5853.74,0.57796
5830.6,0.58105
5807.45,0.57839
5784.31,0.57598
5761.16,0.57486
5738.02,0.57568
5714.87,0.57529
5691.73,0.57318
5668.58,0.57415
5645.44,0.57178
5622.29,0.57101
5599.15,0.57155
5576,0.57315
5552.86,0.57188
5529.71,0.57152
5506.57,0.57130
5483.42,0.57008
5460.28,0.57197
5437.13,0.57578
5413.99,0.57654
5390.84,0.57805
5367.7,0.57865
5344.55,0.57945
5321.41,0.57844
5298.26,0.57529
5275.12,0.56965
5251.97,0.55985
5228.83,0.54897
5205.68,0.54369
5182.54,0.53992
5159.39,0.54254
5136.25,0.54596
5113.1,0.54948
5089.96,0.55136
5066.81,0.55528
5043.67,0.55610
5020.52,0.55452
4997.38,0.55442
4974.23,0.54945
4951.09,0.54041
4927.94,0.52638
4904.8,0.50721
4881.65,0.48444
4858.51,0.46526
4835.36,0.44655
4812.22,0.43100
4789.07,0.42082
4765.93,0.41600
4742.78,0.41464
4719.64,0.42238
4696.49,0.43113
4673.35,0.44149
4650.2,0.45121
4627.06,0.45974
4603.92,0.46812
4580.77,0.47694
4557.63,0.48501
4534.48,0.49326
4511.34,0.49674
4488.19,0.49825
4465.05,0.49623
4441.9,0.47925
4418.76,0.44664
4395.61,0.42172
4372.47,0.43506
4349.32,0.43347
4326.18,0.42169
4303.03,0.40925
4279.89,0.39893
4256.74,0.39969
4233.6,0.40357
4210.45,0.40761
4187.31,0.41386
4164.16,0.41907
4141.02,0.41517
4117.87,0.40653
4094.73,0.38330
4071.58,0.35756
4048.44,0.32715
4025.29,0.30953
4002.15,0.31730
3979,0.32891
3955.86,0.33887
3932.71,0.35163
3909.57,0.36264
3886.42,0.37216
3863.28,0.38232
3840.13,0.39710
3816.99,0.40085
3793.84,0.40373
3770.7,0.40477
3747.55,0.40191
3724.41,0.39123
3701.26,0.37087
3678.12,0.33457
3654.97,0.27642
3631.83,0.21387
3608.68,0.15332
3585.54,0.10662
3562.39,0.07675
3539.25,0.05673
3516.1,0.04356
3492.96,0.03522
3469.81,0.03131
3446.67,0.03010
3423.52,0.02937
3400.38,0.03042
3377.23,0.03109
3354.09,0.03419
3330.94,0.03952
3307.8,0.03944
3284.65,0.04049
3261.51,0.04472
3238.36,0.04929
3215.22,0.05698
3192.07,0.06555
3168.93,0.07635
3145.78,0.08826
3122.64,0.10140
3099.49,0.11609
3076.35,0.13019
3053.2,0.14363
3030.06,0.15352
3006.91,0.15902
2983.77,0.13773
2960.62,0.09055
2937.48,0.07312
2914.33,0.05792
2891.19,0.05859
2868.04,0.06614
2844.9,0.08194
2821.75,0.10940
2798.61,0.13291
2775.46,0.13966
2752.32,0.14219
2729.17,0.14241
2706.03,0.15220
2682.88,0.16971
2659.74,0.17866
2636.59,0.18857
2613.45,0.19794
2590.3,0.20571
2567.16,0.20567
2544.02,0.20034
2520.87,0.20375
2497.73,0.21825
2474.58,0.23246
2451.44,0.24064
2428.29,0.25462
2405.15,0.26795
2382,0.27986
2358.86,0.29248
2335.71,0.30389
2312.57,0.31056
2289.42,0.30624
2266.28,0.29656
2243.13,0.28416
2219.99,0.28740
2196.84,0.29206
2173.7,0.27211
2150.55,0.25336
2127.41,0.24969
2104.26,0.26376
2081.12,0.27246
2057.97,0.27096
2034.83,0.27607
2011.68,0.30117
1988.54,0.31220
1965.39,0.32054
1942.25,0.33495
1919.1,0.34785
1895.96,0.34982
1872.81,0.34591
1849.67,0.33617
1826.52,0.32388
1803.38,0.31063
1780.23,0.29674
1757.09,0.27887
1733.94,0.25582
1710.8,0.24410
1687.65,0.19843
1664.51,0.15383
1641.36,0.15742
1618.22,0.16683
1595.07,0.17403
1571.93,0.17438
1548.78,0.17195
1525.64,0.16342
1502.49,0.13927
1479.35,0.08202
1456.2,0.05180
1433.06,0.03981
1409.91,0.05593
1386.77,0.04646
1363.62,0.03776
1340.48,0.03812
1317.33,0.03938
1294.19,0.05116
1271.04,0.05211
1247.9,0.04819
1224.75,0.05070
1201.61,0.03583
1178.46,0.03428
1155.32,0.04222
1132.17,0.02440
1109.03,0.03862
1085.88,0.03519
1062.74,0.08303
1039.59,0.06541
1016.45,0.06733
993.304,0.07163
970.159,0.10977
947.014,0.15206
923.869,0.15710
900.724,0.12178
877.579,0.16086
854.434,0.17747
831.289,0.16349
808.144,0.14349
784.999,0.12304
761.854,0.09890
738.709,0.07476
715.565,0.05519
692.42,0.05428
669.275,0.04965
646.13,0.04879
622.985,0.04344
599.84,0.05289

File: Cotton_Sheet_IS_S_220826_R4.dpt
7497.03,0.61958
7473.89,0.60564
7450.74,0.61738
7427.6,0.61136
7404.45,0.61010
7381.31,0.60355
7358.16,0.60713
7335.02,0.60478
7311.87,0.60201
7288.73,0.60549
7265.58,0.60997
7242.44,0.60974
7219.29,0.60594
7196.15,0.59598
7173,0.60284
7149.86,0.59810
7126.71,0.60081
7103.57,0.59908
7080.42,0.58720
7057.28,0.58771
7034.13,0.57621
7010.99,0.56564
6987.84,0.56007
6964.7,0.55702
6941.55,0.55606
6918.41,0.55006
6895.26,0.54703
6872.12,0.55260
6848.97,0.54401
6825.83,0.54066
6802.68,0.54113
6779.54,0.52878
6756.39,0.52482
6733.25,0.52450
6710.1,0.52308
6686.96,0.52300
6663.82,0.52584
6640.67,0.52775
6617.53,0.53473
6594.38,0.53262
6571.24,0.53391
6548.09,0.53055
6524.95,0.53440
6501.8,0.53263
6478.66,0.53356
6455.51,0.52939
6432.37,0.53831
6409.22,0.53539
6386.08,0.53462
6362.93,0.53740
6339.79,0.53755
6316.64,0.53495
6293.5,0.54070
6270.35,0.54225
6247.21,0.54718
6224.06,0.55425
6200.92,0.55775
6177.77,0.56278
6154.63,0.56899
6131.48,0.57397
6108.34,0.57655
6085.19,0.57942
6062.05,0.58045
6038.9,0.58665
6015.76,0.58443
5992.61,0.58784
5969.47,0.59012
5946.32,0.58985
5923.18,0.59000
5900.03,0.58579
5876.89,0.58141
5853.74,0.58022
5830.6,0.57967
5807.45,0.57918
5784.31,0.57770
5761.16,0.57655
5738.02,0.57677
5714.87,0.57523
5691.73,0.57392
5668.58,0.57180
5645.44,0.57276
5622.29,0.57304
5599.15,0.57421
5576,0.57116
5552.86,0.57418
5529.71,0.57274
5506.57,0.57369
5483.42,0.57184
5460.28,0.57270
5437.13,0.57401
5413.99,0.57802
5390.84,0.57994
5367.7,0.58119
5344.55,0.58076
5321.41,0.58000
5298.26,0.57679
5275.12,0.57137
5251.97,0.56217
5228.83,0.55310
5205.68,0.54652
5182.54,0.54646
5159.39,0.54761
5136.25,0.54869
5113.1,0.55306
5089.96,0.55521
5066.81,0.55726
5043.67,0.55824
5020.52,0.55737
4997.38,0.55574
4974.23,0.54958
4951.09,0.54060
4927.94,0.52736
4904.8,0.50780
4881.65,0.48587
4858.51,0.46482
4835.36,0.44749
4812.22,0.43191
4789.07,0.42259
4765.93,0.41571
4742.78,0.41597
4719.64,0.42344
4696.49,0.43260
4673.35,0.44246
4650.2,0.45063
4627.06,0.46023
4603.92,0.46865
4580.77,0.47777
4557.63,0.48624
4534.48,0.49354
4511.34,0.49765
4488.19,0.49944
4465.05,0.49650
4441.9,0.48074
4418.76,0.44740
4395.61,0.42329
4372.47,0.43587
4349.32,0.43419
4326.18,0.42224
4303.03,0.40972
4279.89,0.39948
4256.74,0.40012
4233.6,0.40410
4210.45,0.40781
4187.31,0.41533
4164.16,0.41985
4141.02,0.41585
4117.87,0.40683
4094.73,0.38387
4071.58,0.35798
4048.44,0.32688
4025.29,0.31070
4002.15,0.31712
3979,0.32946
3955.86,0.33912
3932.71,0.35237
3909.57,0.36403
3886.42,0.37259
3863.28,0.38350
3840.13,0.39810
3816.99,0.40225
3793.84,0.40536
3770.7,0.40666
3747.55,0.40339
3724.41,0.39454
3701.26,0.37436
3678.12,0.33895
3654.97,0.28210
3631.83,0.22067
3608.68,0.15773
3585.54,0.10879
3562.39,0.07804
3539.25,0.05729
3516.1,0.04363
3492.96,0.03562
3469.81,0.03176
3446.67,0.02996
3423.52,0.03045
3400.38,0.03067
3377.23,0.03093
3354.09,0.03396
3330.94,0.03929
3307.8,0.03918
3284.65,0.04040
3261.51,0.04473
3238.36,0.05004
3215.22,0.05765
3192.07,0.06566
3168.93,0.07724
3145.78,0.08916
3122.64,0.10319
3099.49,0.11725
3076.35,0.13211
3053.2,0.14507
3030.06,0.15571
3006.91,0.16092
2983.77,0.13930
2960.62,0.09101
2937.48,0.07362
2914.33,0.05803
2891.19,0.05883
2868.04,0.06574
2844.9,0.08185
2821.75,0.11010
2798.61,0.13278
2775.46,0.14025
2752.32,0.14242
2729.17,0.14239
2706.03,0.15273
2682.88,0.17003
2659.74,0.17929
2636.59,0.18911
2613.45,0.19833
2590.3,0.20548
2567.16,0.20605
2544.02,0.20130
2520.87,0.20412
2497.73,0.21923
2474.58,0.23243
2451.44,0.24055
2428.29,0.25498
2405.15,0.26876
2382,0.28050
2358.86,0.29355
2335.71,0.30441
2312.57,0.31186
2289.42,0.30752
2266.28,0.29741
2243.13,0.28504
2219.99,0.28848
2196.84,0.29351
2173.7,0.27361
2150.55,0.25487
2127.41,0.25087
2104.26,0.26528
2081.12,0.27385
2057.97,0.27210
2034.83,0.27789
2011.68,0.30291
1988.54,0.31416
1965.39,0.32219
1942.25,0.33646
1919.1,0.34957
1895.96,0.35154
1872.81,0.34799
1849.67,0.33782
1826.52,0.32559
1803.38,0.31240
1780.23,0.29821
1757.09,0.28076
1733.94,0.25779
1710.8,0.24704
1687.65,0.20113
1664.51,0.15758
1641.36,0.16158
1618.22,0.17033
1595.07,0.17579
1571.93,0.17572
1548.78,0.17299
1525.64,0.16465
1502.49,0.14008
1479.35,0.08272
1456.2,0.05166
1433.06,0.03971
1409.91,0.05588
1386.77,0.04637
1363.62,0.03746
1340.48,0.03861
1317.33,0.03905
1294.19,0.05115
1271.04,0.05221
1247.9,0.04868
1224.75,0.05113
1201.61,0.03515
1178.46,0.03423
1155.32,0.04237
1132.17,0.02365
1109.03,0.03910
1085.88,0.03525
1062.74,0.08293
1039.59,0.06484
1016.45,0.06613
993.304,0.07162
970.159,0.11003
947.014,0.15162
923.869,0.15730
900.724,0.12198
877.579,0.16207
854.434,0.17940
831.289,0.16561
808.144,0.14526
784.999,0.12523
761.854,0.09937
738.709,0.07500
715.565,0.05547
692.42,0.05452
669.275,0.05023
646.13,0.04926
622.985,0.04430
599.84,0.05071