Folder: fsri_materials_database/01_Data/Cotton_Sheet/FTIR/IS (part 2)

File: Cotton_Sheet_IS_S_220826_R5.dpt
7497.03,0.62377
7473.89,0.62077
7450.74,0.60961
7427.6,0.61438
7404.45,0.60877
7381.31,0.61500
7358.16,0.60028
7335.02,0.61116
7311.87,0.60282
7288.73,0.60984
7265.58,0.59971
7242.44,0.60585
7219.29,0.59883
7196.15,0.61066
7173,0.60617
7149.86,0.60215
7126.71,0.60202
7103.57,0.59257
7080.42,0.59218
7057.28,0.58515
7034.13,0.57799
7010.99,0.56428
6987.84,0.56222
6964.7,0.55425
6941.55,0.55864
6918.41,0.55128
6895.26,0.55672
6872.12,0.54910
6848.97,0.54623
6825.83,0.53952
6802.68,0.53386
6779.54,0.53175
6756.39,0.52305
6733.25,0.52101
6710.1,0.52607
6686.96,0.52747
6663.82,0.52601
6640.67,0.52676
6617.53,0.53133
6594.38,0.53186
6571.24,0.53485
6548.09,0.53370
6524.95,0.52958
6501.8,0.53121
6478.66,0.53075
6455.51,0.52943
6432.37,0.53464
6409.22,0.53339
6386.08,0.53674
6362.93,0.54041
6339.79,0.53576
6316.64,0.53858
6293.5,0.54121
6270.35,0.54482
6247.21,0.55016
6224.06,0.55075
6200.92,0.56032
6177.77,0.56410
6154.63,0.56952
6131.48,0.57203
6108.34,0.57469
6085.19,0.58094
6062.05,0.58115
6038.9,0.58335
6015.76,0.58743
5992.61,0.58779
5969.47,0.58949
5946.32,0.58994
5923.18,0.58776
5900.03,0.58937
5876.89,0.58031
5853.74,0.57762
5830.6,0.57763
5807.45,0.58068
5784.31,0.57510
5761.16,0.57649
5738.02,0.57665
5714.87,0.57444
5691.73,0.57482
5668.58,0.57174
5645.44,0.57175
5622.29,0.57164
5599.15,0.57192
5576,0.57275
5552.86,0.57193
5529.71,0.57220
5506.57,0.57105
5483.42,0.57183
5460.28,0.57213
5437.13,0.57412
5413.99,0.57565
5390.84,0.57976
5367.7,0.58084
5344.55,0.58001
5321.41,0.57955
5298.26,0.57673
5275.12,0.57274
5251.97,0.56120
5228.83,0.55360
5205.68,0.54884
5182.54,0.54770
5159.39,0.54877
5136.25,0.55064
5113.1,0.55486
5089.96,0.55708
5066.81,0.55734
5043.67,0.55897
5020.52,0.55830
4997.38,0.55574
4974.23,0.55109
4951.09,0.54175
4927.94,0.52787
4904.8,0.50743
4881.65,0.48646
4858.51,0.46529
4835.36,0.44800
4812.22,0.43119
4789.07,0.42281
4765.93,0.41634
4742.78,0.41587
4719.64,0.42295
4696.49,0.43161
4673.35,0.44307
4650.2,0.45195
4627.06,0.46094
4603.92,0.46890
4580.77,0.47863
4557.63,0.48670
4534.48,0.49291
4511.34,0.49735
4488.19,0.50005
4465.05,0.49752
4441.9,0.48008
4418.76,0.44706
4395.61,0.42305
4372.47,0.43470
4349.32,0.43513
4326.18,0.42208
4303.03,0.41010
4279.89,0.40009
4256.74,0.40039
4233.6,0.40499
4210.45,0.40794
4187.31,0.41542
4164.16,0.42017
4141.02,0.41689
4117.87,0.40790
4094.73,0.38442
4071.58,0.35887
4048.44,0.32761
4025.29,0.31069
4002.15,0.31797
3979,0.32970
3955.86,0.34015
3932.71,0.35248
3909.57,0.36412
3886.42,0.37305
3863.28,0.38328
3840.13,0.39834
3816.99,0.40273
3793.84,0.40624
3770.7,0.40729
3747.55,0.40498
3724.41,0.39568
3701.26,0.37552
3678.12,0.34083
3654.97,0.28518
3631.83,0.22385
3608.68,0.15949
3585.54,0.10982
3562.39,0.07777
3539.25,0.05758
3516.1,0.04405
3492.96,0.03541
3469.81,0.03186
3446.67,0.03026
3423.52,0.02982
3400.38,0.02941
3377.23,0.03073
3354.09,0.03413
3330.94,0.04026
3307.8,0.03934
3284.65,0.04106
3261.51,0.04572
3238.36,0.05028
3215.22,0.05724
3192.07,0.06631
3168.93,0.07744
3145.78,0.09025
3122.64,0.10321
3099.49,0.11767
3076.35,0.13273
3053.2,0.14587
3030.06,0.15603
3006.91,0.16139
2983.77,0.13923
2960.62,0.09056
2937.48,0.07357
2914.33,0.05856
2891.19,0.05862
2868.04,0.06626
2844.9,0.08215
2821.75,0.10978
2798.61,0.13338
2775.46,0.14033
2752.32,0.14296
2729.17,0.14330
2706.03,0.15262
2682.88,0.16995
2659.74,0.17911
2636.59,0.18963
2613.45,0.19850
2590.3,0.20621
2567.16,0.20638
2544.02,0.20164
2520.87,0.20447
2497.73,0.21899
2474.58,0.23315
2451.44,0.24090
2428.29,0.25548
2405.15,0.26872
2382,0.28122
2358.86,0.29386
2335.71,0.30512
2312.57,0.31218
2289.42,0.30809
2266.28,0.29835
2243.13,0.28547
2219.99,0.28937
2196.84,0.29428
2173.7,0.27407
2150.55,0.25490
2127.41,0.25129
2104.26,0.26564
2081.12,0.27470
2057.97,0.27296
2034.83,0.27838
2011.68,0.30312
1988.54,0.31462
1965.39,0.32269
1942.25,0.33719
1919.1,0.35014
1895.96,0.35232
1872.81,0.34855
1849.67,0.33886
1826.52,0.32647
1803.38,0.31300
1780.23,0.29929
1757.09,0.28152
1733.94,0.25887
1710.8,0.24807
1687.65,0.20247
1664.51,0.15846
1641.36,0.16351
1618.22,0.17177
1595.07,0.17647
1571.93,0.17621
1548.78,0.17344
1525.64,0.16482
1502.49,0.14039
1479.35,0.08258
1456.2,0.05198
1433.06,0.03999
1409.91,0.05590
1386.77,0.04658
1363.62,0.03795
1340.48,0.03821
1317.33,0.03933
1294.19,0.05103
1271.04,0.05212
1247.9,0.04850
1224.75,0.05043
1201.61,0.03623
1178.46,0.03418
1155.32,0.04160
1132.17,0.02485
1109.03,0.03908
1085.88,0.03583
1062.74,0.08347
1039.59,0.06535
1016.45,0.06739
993.304,0.07118
970.159,0.11009
947.014,0.15175
923.869,0.15815
900.724,0.12286
877.579,0.16213
854.434,0.18031
831.289,0.16679
808.144,0.14653
784.999,0.12497
761.854,0.10052
738.709,0.07561
715.565,0.05578
692.42,0.05439
669.275,0.04951
646.13,0.05089
622.985,0.04526
599.84,0.05082

File: Cotton_Sheet_IS_S_220826_R6.dpt
7497.03,0.61577
7473.89,0.62545
7450.74,0.61521
7427.6,0.61309
7404.45,0.61209
7381.31,0.61032
7358.16,0.60827
7335.02,0.60175
7311.87,0.59938
7288.73,0.60747
7265.58,0.60169
7242.44,0.59620
7219.29,0.60991
7196.15,0.60558
7173,0.60336
7149.86,0.60367
7126.71,0.59744
7103.57,0.59324
7080.42,0.59279
7057.28,0.58424
7034.13,0.57466
7010.99,0.56752
6987.84,0.55863
6964.7,0.55686
6941.55,0.55237
6918.41,0.55341
6895.26,0.55435
6872.12,0.54881
6848.97,0.54728
6825.83,0.54048
6802.68,0.53643
6779.54,0.52913
6756.39,0.52655
6733.25,0.52652
6710.1,0.52470
6686.96,0.52635
6663.82,0.52825
6640.67,0.53132
6617.53,0.52900
6594.38,0.52948
6571.24,0.53155
6548.09,0.53472
6524.95,0.53421
6501.8,0.52785
6478.66,0.53388
6455.51,0.53170
6432.37,0.53527
6409.22,0.53569
6386.08,0.53596
6362.93,0.53627
6339.79,0.54000
6316.64,0.53895
6293.5,0.53852
6270.35,0.54484
6247.21,0.54918
6224.06,0.55164
6200.92,0.55756
6177.77,0.56277
6154.63,0.56942
6131.48,0.57268
6108.34,0.57452
6085.19,0.57951
6062.05,0.57922
6038.9,0.58631
6015.76,0.58501
5992.61,0.58800
5969.47,0.58849
5946.32,0.58781
5923.18,0.58341
5900.03,0.58392
5876.89,0.58148
5853.74,0.57862
5830.6,0.57822
5807.45,0.57735
5784.31,0.57685
5761.16,0.57455
5738.02,0.57566
5714.87,0.57539
5691.73,0.57285
5668.58,0.57288
5645.44,0.57096
5622.29,0.57142
5599.15,0.57166
5576,0.57057
5552.86,0.57306
5529.71,0.57057
5506.57,0.57078
5483.42,0.56990
5460.28,0.57134
5437.13,0.57473
5413.99,0.57596
5390.84,0.57844
5367.7,0.57973
5344.55,0.57741
5321.41,0.57840
5298.26,0.57578
5275.12,0.57096
5251.97,0.56191
5228.83,0.55345
5205.68,0.54917
5182.54,0.54726
5159.39,0.54910
5136.25,0.55130
5113.1,0.55315
5089.96,0.55610
5066.81,0.55858
5043.67,0.56010
5020.52,0.55898
4997.38,0.55438
4974.23,0.55023
4951.09,0.53966
4927.94,0.52621
4904.8,0.50599
4881.65,0.48505
4858.51,0.46511
4835.36,0.44641
4812.22,0.43113
4789.07,0.42114
4765.93,0.41583
4742.78,0.41565
4719.64,0.42227
4696.49,0.43091
4673.35,0.44102
4650.2,0.45115
4627.06,0.45992
4603.92,0.46892
4580.77,0.47769
4557.63,0.48610
4534.48,0.49306
4511.34,0.49676
4488.19,0.49845
4465.05,0.49609
4441.9,0.47932
4418.76,0.44575
4395.61,0.42256
4372.47,0.43511
4349.32,0.43390
4326.18,0.42193
4303.03,0.40928
4279.89,0.39884
4256.74,0.39978
4233.6,0.40376
4210.45,0.40772
4187.31,0.41486
4164.16,0.41873
4141.02,0.41621
4117.87,0.40698
4094.73,0.38392
4071.58,0.35781
4048.44,0.32688
4025.29,0.30994
4002.15,0.31686
3979,0.32847
3955.86,0.33931
3932.71,0.35268
3909.57,0.36359
3886.42,0.37222
3863.28,0.38264
3840.13,0.39784
3816.99,0.40308
3793.84,0.40540
3770.7,0.40675
3747.55,0.40425
3724.41,0.39438
3701.26,0.37605
3678.12,0.34209
3654.97,0.28722
3631.83,0.22534
3608.68,0.16211
3585.54,0.11065
3562.39,0.07897
3539.25,0.05821
3516.1,0.04419
3492.96,0.03590
3469.81,0.03221
3446.67,0.02994
3423.52,0.02986
3400.38,0.03020
3377.23,0.03153
3354.09,0.03443
3330.94,0.03927
3307.8,0.03960
3284.65,0.04088
3261.51,0.04561
3238.36,0.04971
3215.22,0.05846
3192.07,0.06680
3168.93,0.07767
3145.78,0.09036
3122.64,0.10358
3099.49,0.11868
3076.35,0.13319
3053.2,0.14588
3030.06,0.15627
3006.91,0.16159
2983.77,0.13914
2960.62,0.09074
2937.48,0.07362
2914.33,0.05843
2891.19,0.05896
2868.04,0.06587
2844.9,0.08225
2821.75,0.11012
2798.61,0.13292
2775.46,0.14006
2752.32,0.14236
2729.17,0.14271
2706.03,0.15335
2682.88,0.17019
2659.74,0.17850
2636.59,0.18926
2613.45,0.19782
2590.3,0.20588
2567.16,0.20616
2544.02,0.20097
2520.87,0.20425
2497.73,0.21902
2474.58,0.23262
2451.44,0.24058
2428.29,0.25513
2405.15,0.26850
2382,0.28014
2358.86,0.29362
2335.71,0.30451
2312.57,0.31141
2289.42,0.30738
2266.28,0.29767
2243.13,0.28527
2219.99,0.28851
2196.84,0.29373
2173.7,0.27408
2150.55,0.25491
2127.41,0.25136
2104.26,0.26566
2081.12,0.27460
2057.97,0.27247
2034.83,0.27822
2011.68,0.30313
1988.54,0.31450
1965.39,0.32210
1942.25,0.33695
1919.1,0.35012
1895.96,0.35219
1872.81,0.34848
1849.67,0.33834
1826.52,0.32599
1803.38,0.31279
1780.23,0.29881
1757.09,0.28090
1733.94,0.25867
1710.8,0.24818
1687.65,0.20350
1664.51,0.15965
1641.36,0.16513
1618.22,0.17287
1595.07,0.17712
1571.93,0.17670
1548.78,0.17364
1525.64,0.16487
1502.49,0.14018
1479.35,0.08273
1456.2,0.05149
1433.06,0.04015
1409.91,0.05572
1386.77,0.04677
1363.62,0.03772
1340.48,0.03828
1317.33,0.03919
1294.19,0.05106
1271.04,0.05204
1247.9,0.04829
1224.75,0.05068
1201.61,0.03545
1178.46,0.03411
1155.32,0.04190
1132.17,0.02416
1109.03,0.03890
1085.88,0.03564
1062.74,0.08321
1039.59,0.06568
1016.45,0.06687
993.304,0.07127
970.159,0.10961
947.014,0.15172
923.869,0.15777
900.724,0.12252
877.579,0.16290
854.434,0.18046
831.289,0.16775
808.144,0.14756
784.999,0.12670
761.854,0.10063
738.709,0.07627
715.565,0.05507
692.42,0.05540
669.275,0.04990
646.13,0.04910
622.985,0.04514
599.84,0.05490

File: Cotton_Sheet_IS_S_220826_R7.dpt
7497.03,0.61955
7473.89,0.61970
7450.74,0.61216
7427.6,0.62462
7404.45,0.62196
7381.31,0.61559
7358.16,0.61523
7335.02,0.60846
7311.87,0.60290
7288.73,0.59888
7265.58,0.59739
7242.44,0.60071
7219.29,0.60758
7196.15,0.60228
7173,0.60312
7149.86,0.59955
7126.71,0.60725
7103.57,0.59729
7080.42,0.59172
7057.28,0.57770
7034.13,0.57253
7010.99,0.57322
6987.84,0.56705
6964.7,0.55739
6941.55,0.55983
6918.41,0.55278
6895.26,0.55320
6872.12,0.54592
6848.97,0.54282
6825.83,0.54041
6802.68,0.53631
6779.54,0.53551
6756.39,0.52454
6733.25,0.52538
6710.1,0.52870
6686.96,0.52622
6663.82,0.52567
6640.67,0.52606
6617.53,0.53154
6594.38,0.52809
6571.24,0.53542
6548.09,0.53255
6524.95,0.53327
6501.8,0.53538
6478.66,0.52828
6455.51,0.53109
6432.37,0.53440
6409.22,0.53583
6386.08,0.54009
6362.93,0.53818
6339.79,0.53900
6316.64,0.53555
6293.5,0.54022
6270.35,0.54349
6247.21,0.54748
6224.06,0.55375
6200.92,0.55942
6177.77,0.56623
6154.63,0.56762
6131.48,0.57434
6108.34,0.57626
6085.19,0.57713
6062.05,0.58087
6038.9,0.58273
6015.76,0.58746
5992.61,0.58585
5969.47,0.58886
5946.32,0.58954
5923.18,0.58696
5900.03,0.58562
5876.89,0.58043
5853.74,0.57838
5830.6,0.57800
5807.45,0.57899
5784.31,0.57718
5761.16,0.57638
5738.02,0.57667
5714.87,0.57275
5691.73,0.57382
5668.58,0.57116
5645.44,0.57345
5622.29,0.57172
5599.15,0.57142
5576,0.57246
5552.86,0.57354
5529.71,0.57116
5506.57,0.57196
5483.42,0.57131
5460.28,0.57134
5437.13,0.57668
5413.99,0.57738
5390.84,0.57870
5367.7,0.57990
5344.55,0.58178
5321.41,0.58066
5298.26,0.57665
5275.12,0.57301
5251.97,0.56492
5228.83,0.55578
5205.68,0.55188
5182.54,0.55113
5159.39,0.55030
5136.25,0.55471
5113.1,0.55650
5089.96,0.55849
5066.81,0.55932
5043.67,0.56013
5020.52,0.55954
4997.38,0.55683
4974.23,0.55118
4951.09,0.54203
4927.94,0.52824
4904.8,0.50719
4881.65,0.48596
4858.51,0.46650
4835.36,0.44766
4812.22,0.43160
4789.07,0.42266
4765.93,0.41634
4742.78,0.41674
4719.64,0.42384
4696.49,0.43224
4673.35,0.44188
4650.2,0.45269
4627.06,0.46097
4603.92,0.46984
4580.77,0.47800
4557.63,0.48699
4534.48,0.49334
4511.34,0.49818
4488.19,0.49980
4465.05,0.49617
4441.9,0.47919
4418.76,0.44757
4395.61,0.42327
4372.47,0.43615
4349.32,0.43453
4326.18,0.42270
4303.03,0.41021
4279.89,0.39949
4256.74,0.40016
4233.6,0.40431
4210.45,0.40861
4187.31,0.41495
4164.16,0.41986
4141.02,0.41655
4117.87,0.40728
4094.73,0.38397
4071.58,0.35888
4048.44,0.32793
4025.29,0.31027
4002.15,0.31817
3979,0.32996
3955.86,0.34018
3932.71,0.35352
3909.57,0.36406
3886.42,0.37319
3863.28,0.38365
3840.13,0.39925
3816.99,0.40354
3793.84,0.40691
3770.7,0.40813
3747.55,0.40563
3724.41,0.39678
3701.26,0.37790
3678.12,0.34352
3654.97,0.28942
3631.83,0.22814
3608.68,0.16300
3585.54,0.11184
3562.39,0.07880
3539.25,0.05809
3516.1,0.04444
3492.96,0.03543
3469.81,0.03115
3446.67,0.03032
3423.52,0.02971
3400.38,0.03059
3377.23,0.03104
3354.09,0.03365
3330.94,0.03961
3307.8,0.03888
3284.65,0.04080
3261.51,0.04531
3238.36,0.05040
3215.22,0.05759
3192.07,0.06748
3168.93,0.07786
3145.78,0.09022
3122.64,0.10346
3099.49,0.11922
3076.35,0.13433
3053.2,0.14696
3030.06,0.15708
3006.91,0.16276
2983.77,0.14025
2960.62,0.09106
2937.48,0.07365
2914.33,0.05876
2891.19,0.05898
2868.04,0.06569
2844.9,0.08260
2821.75,0.10980
2798.61,0.13348
2775.46,0.14044
2752.32,0.14298
2729.17,0.14371
2706.03,0.15323
2682.88,0.17068
2659.74,0.17918
2636.59,0.18964
2613.45,0.19883
2590.3,0.20619
2567.16,0.20656
2544.02,0.20169
2520.87,0.20489
2497.73,0.21955
2474.58,0.23302
2451.44,0.24156
2428.29,0.25564
2405.15,0.26941
2382,0.28072
2358.86,0.29418
2335.71,0.30499
2312.57,0.31259
2289.42,0.30845
2266.28,0.29854
2243.13,0.28643
2219.99,0.28950
2196.84,0.29495
2173.7,0.27475
2150.55,0.25579
2127.41,0.25204
2104.26,0.26648
2081.12,0.27540
2057.97,0.27361
2034.83,0.27910
2011.68,0.30398
1988.54,0.31591
1965.39,0.32374
1942.25,0.33814
1919.1,0.35126
1895.96,0.35338
1872.81,0.34927
1849.67,0.33965
1826.52,0.32716
1803.38,0.31385
1780.23,0.29987
1757.09,0.28214
1733.94,0.25976
1710.8,0.24949
1687.65,0.20483
1664.51,0.16138
1641.36,0.16742
1618.22,0.17423
1595.07,0.17799
1571.93,0.17718
1548.78,0.17438
1525.64,0.16526
1502.49,0.14064
1479.35,0.08299
1456.2,0.05198
1433.06,0.04027
1409.91,0.05575
1386.77,0.04631
1363.62,0.03798
1340.48,0.03826
1317.33,0.03936
1294.19,0.05132
1271.04,0.05190
1247.9,0.04823
1224.75,0.05036
1201.61,0.03585
1178.46,0.03434
1155.32,0.04165
1132.17,0.02445
1109.03,0.03934
1085.88,0.03471
1062.74,0.08325
1039.59,0.06487
1016.45,0.06758
993.304,0.07105
970.159,0.10987
947.014,0.15177
923.869,0.15806
900.724,0.12226
877.579,0.16301
854.434,0.18106
831.289,0.16755
808.144,0.14780
784.999,0.12696
761.854,0.10077
738.709,0.07641
715.565,0.05519
692.42,0.05553
669.275,0.05022
646.13,0.04969
622.985,0.04446
599.84,0.05465

File: Cotton_Sheet_IS_S_220826_R8.dpt
7497.03,0.61854
7473.89,0.60995
7450.74,0.61669
7427.6,0.61374
7404.45,0.61472
7381.31,0.61815
7358.16,0.61109
7335.02,0.60521
7311.87,0.60722
7288.73,0.60710
7265.58,0.60505
7242.44,0.60030
7219.29,0.60431
7196.15,0.60357
7173,0.61148
7149.86,0.60481
7126.71,0.60810
7103.57,0.59885
7080.42,0.58953
7057.28,0.58401
7034.13,0.57456
7010.99,0.56313
6987.84,0.55719
6964.7,0.55190
6941.55,0.55250
6918.41,0.55143
6895.26,0.55088
6872.12,0.55161
6848.97,0.54106
6825.83,0.54032
6802.68,0.53736
6779.54,0.52936
6756.39,0.52728
6733.25,0.52192
6710.1,0.52376
6686.96,0.52567
6663.82,0.52198
6640.67,0.52873
6617.53,0.52830
6594.38,0.53065
6571.24,0.53254
6548.09,0.53586
6524.95,0.52991
6501.8,0.53232
6478.66,0.53326
6455.51,0.53379
6432.37,0.53613
6409.22,0.53820
6386.08,0.53379
6362.93,0.53827
6339.79,0.53777
6316.64,0.54085
6293.5,0.53732
6270.35,0.54344
6247.21,0.55025
6224.06,0.55280
6200.92,0.55983
6177.77,0.56129
6154.63,0.57237
6131.48,0.57204
6108.34,0.57708
6085.19,0.57867
6062.05,0.57917
6038.9,0.58587
6015.76,0.58568
5992.61,0.58581
5969.47,0.58635
5946.32,0.59068
5923.18,0.58708
5900.03,0.58303
5876.89,0.57874
5853.74,0.57820
5830.6,0.57983
5807.45,0.57784
5784.31,0.57607
5761.16,0.57607
5738.02,0.57736
5714.87,0.57725
5691.73,0.57473
5668.58,0.57226
5645.44,0.56922
5622.29,0.57094
5599.15,0.56992
5576,0.57367
5552.86,0.57223
5529.71,0.57329
5506.57,0.57030
5483.42,0.57196
5460.28,0.57171
5437.13,0.57442
5413.99,0.57613
5390.84,0.57943
5367.7,0.58012
5344.55,0.57947
5321.41,0.58091
5298.26,0.57741
5275.12,0.57294
5251.97,0.56470
5228.83,0.55664
5205.68,0.55249
5182.54,0.55049
5159.39,0.55364
5136.25,0.55421
5113.1,0.55831
5089.96,0.55954
5066.81,0.56080
5043.67,0.56098
5020.52,0.56081
4997.38,0.55715
4974.23,0.55122
4951.09,0.54204
4927.94,0.52657
4904.8,0.50771
4881.65,0.48457
4858.51,0.46505
4835.36,0.44774
4812.22,0.43019
4789.07,0.42154
4765.93,0.41578
4742.78,0.41554
4719.64,0.42266
4696.49,0.43189
4673.35,0.44206
4650.2,0.45130
4627.06,0.46005
4603.92,0.46933
4580.77,0.47825
4557.63,0.48734
4534.48,0.49315
4511.34,0.49741
4488.19,0.49900
4465.05,0.49719
4441.9,0.47919
4418.76,0.44625
4395.61,0.42303
4372.47,0.43593
4349.32,0.43490
4326.18,0.42246
4303.03,0.40966
4279.89,0.39963
4256.74,0.39994
4233.6,0.40480
4210.45,0.40773
4187.31,0.41515
4164.16,0.42001
4141.02,0.41632
4117.87,0.40663
4094.73,0.38434
4071.58,0.35879
4048.44,0.32704
4025.29,0.31058
4002.15,0.31759
3979,0.32996
3955.86,0.33978
3932.71,0.35288
3909.57,0.36416
3886.42,0.37367
3863.28,0.38349
3840.13,0.39837
3816.99,0.40375
3793.84,0.40672
3770.7,0.40840
3747.55,0.40658
3724.41,0.39669
3701.26,0.37815
3678.12,0.34503
3654.97,0.29269
3631.83,0.23004
3608.68,0.16357
3585.54,0.11218
3562.39,0.07922
3539.25,0.05830
3516.1,0.04359
3492.96,0.03681
3469.81,0.03102
3446.67,0.03022
3423.52,0.02977
3400.38,0.02996
3377.23,0.03116
3354.09,0.03433
3330.94,0.03962
3307.8,0.03919
3284.65,0.04104
3261.51,0.04517
3238.36,0.05053
3215.22,0.05781
3192.07,0.06705
3168.93,0.07796
3145.78,0.09097
3122.64,0.10434
3099.49,0.11914
3076.35,0.13451
3053.2,0.14722
3030.06,0.15749
3006.91,0.16243
2983.77,0.13958
2960.62,0.09088
2937.48,0.07344
2914.33,0.05872
2891.19,0.05853
2868.04,0.06559
2844.9,0.08192
2821.75,0.10991
2798.61,0.13317
2775.46,0.14045
2752.32,0.14246
2729.17,0.14334
2706.03,0.15326
2682.88,0.17090
2659.74,0.17905
2636.59,0.18937
2613.45,0.19874
2590.3,0.20605
2567.16,0.20638
2544.02,0.20167
2520.87,0.20429
2497.73,0.21926
2474.58,0.23318
2451.44,0.24107
2428.29,0.25533
2405.15,0.26880
2382,0.28088
2358.86,0.29396
2335.71,0.30516
2312.57,0.31222
2289.42,0.30828
2266.28,0.29867
2243.13,0.28608
2219.99,0.28933
2196.84,0.29489
2173.7,0.27509
2150.55,0.25620
2127.41,0.25192
2104.26,0.26645
2081.12,0.27544
2057.97,0.27376
2034.83,0.27919
2011.68,0.30432
1988.54,0.31571
1965.39,0.32356
1942.25,0.33824
1919.1,0.35182
1895.96,0.35343
1872.81,0.34984
1849.67,0.33955
1826.52,0.32715
1803.38,0.31389
1780.23,0.30002
1757.09,0.28247
1733.94,0.26020
1710.8,0.24998
1687.65,0.20495
1664.51,0.16198
1641.36,0.16866
1618.22,0.17543
1595.07,0.17825
1571.93,0.17746
1548.78,0.17442
1525.64,0.16564
1502.49,0.14113
1479.35,0.08280
1456.2,0.05183
1433.06,0.03953
1409.91,0.05559
1386.77,0.04680
1363.62,0.03791
1340.48,0.03835
1317.33,0.03933
1294.19,0.05084
1271.04,0.05215
1247.9,0.04811
1224.75,0.05055
1201.61,0.03530
1178.46,0.03451
1155.32,0.04214
1132.17,0.02455
1109.03,0.03947
1085.88,0.03517
1062.74,0.08316
1039.59,0.06544
1016.45,0.06706
993.304,0.07136
970.159,0.10979
947.014,0.15132
923.869,0.15791
900.724,0.12299
877.579,0.16244
854.434,0.18159
831.289,0.16752
808.144,0.14856
784.999,0.12707
761.854,0.10225
738.709,0.07657
715.565,0.05550
692.42,0.05516
669.275,0.05041
646.13,0.04981
622.985,0.04516
599.84,0.05215

File: Cotton_Sheet_IS_T_220826_R4.dpt
7497.03,0.02507
7473.89,0.02374
7450.74,0.02355
7427.6,0.02331
7404.45,0.02958
7381.31,0.02284
7358.16,0.03050
7335.02,0.02767
7311.87,0.01864
7288.73,0.02211
7265.58,0.03062
7242.44,0.02686
7219.29,0.02200
7196.15,0.01890
7173,0.02124
7149.86,0.02514
7126.71,0.02366
7103.57,0.02039
7080.42,0.02712
7057.28,0.02077
7034.13,0.02182
7010.99,0.03070
6987.84,0.02398
6964.7,0.02172
6941.55,0.02090
6918.41,0.02569
6895.26,0.02070
6872.12,0.02472
6848.97,0.02155
6825.83,0.02317
6802.68,0.02267
6779.54,0.01950
6756.39,0.02306
6733.25,0.01770
6710.1,0.02249
6686.96,0.02133
6663.82,0.02404
6640.67,0.02263
6617.53,0.01907
6594.38,0.01947
6571.24,0.02322
6548.09,0.02530
6524.95,0.02537
6501.8,0.02687
6478.66,0.02347
6455.51,0.02466
6432.37,0.02066
6409.22,0.02603
6386.08,0.02179
6362.93,0.01984
6339.79,0.02189
6316.64,0.02481
6293.5,0.02412
6270.35,0.02544
6247.21,0.02209
6224.06,0.01838
6200.92,0.02359
6177.77,0.01727
6154.63,0.02004
6131.48,0.01927
6108.34,0.02397
6085.19,0.02352
6062.05,0.02142
6038.9,0.02255
6015.76,0.02203
5992.61,0.02013
5969.47,0.02303
5946.32,0.02110
5923.18,0.02228
5900.03,0.02024
5876.89,0.02221
5853.74,0.02087
5830.6,0.01995
5807.45,0.02172
5784.31,0.02209
5761.16,0.01968
5738.02,0.02149
5714.87,0.02110
5691.73,0.01909
5668.58,0.02161
5645.44,0.02306
5622.29,0.02097
5599.15,0.02229
5576,0.02140
5552.86,0.02033
5529.71,0.02247
5506.57,0.02201
5483.42,0.02180
5460.28,0.02171
5437.13,0.02214
5413.99,0.02278
5390.84,0.02228
5367.7,0.02224
5344.55,0.02337
5321.41,0.02372
5298.26,0.02076
5275.12,0.02162
5251.97,0.02219
5228.83,0.02282
5205.68,0.02252
5182.54,0.02177
5159.39,0.02231
5136.25,0.02271
5113.1,0.02237
5089.96,0.02168
5066.81,0.02190
5043.67,0.02246
5020.52,0.02207
4997.38,0.02246
4974.23,0.02260
4951.09,0.02134
4927.94,0.02160
4904.8,0.02209
4881.65,0.02180
4858.51,0.02255
4835.36,0.02130
4812.22,0.02161
4789.07,0.02197
4765.93,0.02263
4742.78,0.02174
4719.64,0.02340
4696.49,0.02180
4673.35,0.02181
4650.2,0.02208
4627.06,0.02308
4603.92,0.02230
4580.77,0.02237
4557.63,0.02242
4534.48,0.02233
4511.34,0.02181
4488.19,0.02257
4465.05,0.02273
4441.9,0.02244
4418.76,0.02191
4395.61,0.02187
4372.47,0.02286
4349.32,0.02205
4326.18,0.02255
4303.03,0.02292
4279.89,0.02125
4256.74,0.02241
4233.6,0.02168
4210.45,0.02209
4187.31,0.02232
4164.16,0.02241
4141.02,0.02198
4117.87,0.02274
4094.73,0.02218
4071.58,0.02183
4048.44,0.02269
4025.29,0.02277
4002.15,0.02318
3979,0.02154
3955.86,0.02296
3932.71,0.02214
3909.57,0.02255
3886.42,0.02313
3863.28,0.02229
3840.13,0.02252
3816.99,0.02271
3793.84,0.02192
3770.7,0.02239
3747.55,0.02307
3724.41,0.02303
3701.26,0.02210
3678.12,0.02168
3654.97,0.02227
3631.83,0.02216
3608.68,0.02137
3585.54,0.02207
3562.39,0.02124
3539.25,0.02143
3516.1,0.02044
3492.96,0.02101
3469.81,0.02053
3446.67,0.02072
3423.52,0.02024
3400.38,0.02033
3377.23,0.01990
3354.09,0.02044
3330.94,0.01985
3307.8,0.01986
3284.65,0.02089
3261.51,0.02021
3238.36,0.02065
3215.22,0.02002
3192.07,0.02098
3168.93,0.02112
3145.78,0.02056
3122.64,0.02089
3099.49,0.02023
3076.35,0.02031
3053.2,0.02002
3030.06,0.02046
3006.91,0.01996
2983.77,0.01955
2960.62,0.01899
2937.48,0.01985
2914.33,0.01963
2891.19,0.02014
2868.04,0.01969
2844.9,0.02057
2821.75,0.02113
2798.61,0.02107
2775.46,0.02102
2752.32,0.02063
2729.17,0.02099
2706.03,0.02111
2682.88,0.02132
2659.74,0.02113
2636.59,0.02079
2613.45,0.02069
2590.3,0.02106
2567.16,0.02088
2544.02,0.02095
2520.87,0.02088
2497.73,0.02106
2474.58,0.02087
2451.44,0.02037
2428.29,0.02061
2405.15,0.02100
2382,0.02064
2358.86,0.02120
2335.71,0.02070
2312.57,0.02082
2289.42,0.02093
2266.28,0.02080
2243.13,0.02095
2219.99,0.02074
2196.84,0.02076
2173.7,0.02102
2150.55,0.02074
2127.41,0.02062
2104.26,0.02058
2081.12,0.02093
2057.97,0.02062
2034.83,0.02046
2011.68,0.02077
1988.54,0.02054
1965.39,0.02068
1942.25,0.02047
1919.1,0.02022
1895.96,0.01996
1872.81,0.02009
1849.67,0.01982
1826.52,0.02025
1803.38,0.01949
1780.23,0.01874
1757.09,0.01716
1733.94,0.01906
1710.8,0.02014
1687.65,0.01866
1664.51,0.01832
1641.36,0.01844
1618.22,0.01866
1595.07,0.01846
1571.93,0.01828
1548.78,0.01778
1525.64,0.01830
1502.49,0.01851
1479.35,0.01807
1456.2,0.01815
1433.06,0.01835
1409.91,0.01825
1386.77,0.01810
1363.62,0.01769
1340.48,0.01755
1317.33,0.01668
1294.19,0.01774
1271.04,0.01901
1247.9,0.01968
1224.75,0.01880
1201.61,0.01858
1178.46,0.01784
1155.32,0.01747
1132.17,0.01788
1109.03,0.01839
1085.88,0.01780
1062.74,0.01877
1039.59,0.01881
1016.45,0.01913
993.304,0.02047
970.159,0.02022
947.014,0.01908
923.869,0.01973
900.724,0.01878
877.579,0.01930
854.434,0.01919
831.289,0.01977
808.144,0.01875
784.999,0.01922
761.854,0.01869
738.709,0.01789
715.565,0.01811
692.42,0.01819
669.275,0.01648
646.13,0.01731
622.985,0.01861
599.84,0.01676