Folder: fsri_materials_database/01_Data/OSB/Cone

Note: README.md
# Materials and Products Database
### Repository of materials and products properties and fire test data to improve fire modeling and fire investigation.

This project was supported in part by Award No. 2019-DU-BX-0018, awarded by the National Institute of Justice, Office of Justice Programs, U.S. Department of Justice. The opinions, findings, and conclusions or recommendations expressed in this publication / program / exhibition are those of the author(s) and do not necessarily reflect those of the Department of Justice.

***
***

__Cite this database:__ "McKinnon, M., Weinschenk, C., Dow, N., DiDomizio, M., and Madrzykowski, D. Materials and Products Database (Version 1.0.0), Fire Safety Research Institute, UL Research Institutes. Columbia, MD 21045, 2023."

__Cite the Technical Reference Guide:__ "McKinnon, M., Weinschenk, C., and Madrzykowski, D. Materials and Products Database - Technical Reference Guide, Fire Safety Research Institute, UL Research Institutes. Columbia, MD 21045, 2023."

__Cite the User Guide:__ "McKinnon, M., and Weinschenk, C. Materials and Products Database - User Guide, Fire Safety Research Institute, UL Research Institutes. Columbia, MD 21045, 2023."

***
***

## Database Structure

## 01_Data/
Raw data generated from each apparatus are included here in plain-text format. The data is organized first by material, next by the short name of test apparatus used, and where applicable additional filtering by test settings.

### Test Apparatus and Data File Structure
- __Cone Calorimeter__ (Cone)
    + Data file structure includes the material, the short name for the apparatus, heat flux setting and scan/scalar, date of test, and replicate number. Scan is for the raw output data and scalar is for the initial conditions and high-level test parameters. 
        * Example: __MDF_Cone_HF25scalar_210323_R1__ stands for the first replicate of scalar data generated from a medium density fiber board test in cone calorimeter exposed to 25 kW/m<sup>2</sup> on March 23, 2021.
    + A _Cone_Notes.csv_ is generated for each material from the __plot_Cone_data.py__ script. For materials whose experiments deviated from typical behavior relevant pictures are included in the respective material directory.
- __Fourier Transform Infrared Spectrometer__ (FTIR)
    + The FTIR directory contains subdirectories for the Attenuated Total Reflectance method (ATR) and the Integrating Sphere (IS)
    + Data file structure for the ATR experiment files includes the material, the abbreviated name for the apparatus, date of test, and replicate number. 
        * Example: __MDF_ATR_210323_R5__ stands for the fifth replicate of data collected with the ATR accessory conducted on June 8, 2021.
    + Data file structure for the IS experiment files includes the material, the abbreviated name for the apparatus, the measurand, whether the test is a sample measurement or standard reference, date of test, and replicate number.
        * Example: __OSB_IS_REFLECT_MEAS_2

File: OSB_HRRPUA_25.csv
Time after Ignition,OSB_R1,OSB_R2,OSB_R3,Mean,Std. Dev.
0.0,11.8,13.0,11.3,12.0,0.9
3.25,56.1,48.7,58.0,54.3,4.9
6.5,127.9,102.2,125.9,118.7,14.3
9.75,177.0,143.7,177.0,165.9,19.2
13.0,205.1,170.8,204.2,193.4,19.5
16.25,214.8,183.9,225.5,208.1,21.6
19.5,222.9,188.4,237.1,216.2,25.0
22.75,219.0,197.0,246.5,220.8,24.8
26.0,221.5,202.1,248.8,224.1,23.5
29.25,217.4,202.6,250.4,223.5,24.5
32.5,216.9,203.4,248.2,222.8,23.0
35.75,215.9,201.3,250.3,222.5,25.2
39.0,210.2,196.2,238.6,215.0,21.6
42.25,210.8,188.8,231.0,210.2,21.1
45.5,206.9,183.2,227.4,205.8,22.1
48.75,212.2,185.3,221.8,206.4,18.9
52.0,207.1,184.1,219.3,203.5,17.9
55.25,204.6,181.6,212.1,199.4,15.9
58.5,200.8,175.1,217.0,197.6,21.1
61.75,193.6,172.5,215.7,193.9,21.6
65.0,194.8,169.5,211.3,191.9,21.1
68.25,194.9,164.7,206.3,188.7,21.5
71.5,189.8,160.7,208.5,186.3,24.1
74.75,184.0,160.6,202.9,182.5,21.2
78.0,183.1,154.3,195.6,177.6,21.2
81.25,179.1,154.1,193.2,175.5,19.8
84.5,181.7,152.4,182.9,172.4,17.3
87.75,182.8,149.1,184.1,172.0,19.8
91.0,173.6,150.7,179.6,168.0,15.3
94.25,170.1,146.7,174.2,163.7,14.8
97.5,165.6,144.3,169.9,159.9,13.7
100.75,160.0,143.7,168.2,157.3,12.5
104.0,158.9,141.0,164.6,154.9,12.3
107.25,156.6,140.5,163.6,153.6,11.8
110.5,153.1,136.4,163.0,150.8,13.5
113.75,157.0,132.7,158.8,149.5,14.6
117.0,154.4,135.1,152.3,147.3,10.6
120.25,150.8,131.9,151.8,144.8,11.2
123.5,152.1,130.6,151.4,144.7,12.2
126.75,147.7,125.0,146.9,139.9,12.9
130.0,147.5,125.1,142.5,138.4,11.8
133.25,145.2,124.5,146.4,138.7,12.3
136.5,144.0,124.3,142.9,137.1,11.1
139.75,138.4,121.6,142.3,134.1,11.0
143.0,134.1,119.0,135.6,129.5,9.2
146.25,130.7,118.9,135.7,128.4,8.6
149.5,132.5,117.6,134.6,128.3,9.3
152.75,130.8,116.0,133.7,126.8,9.5
156.0,130.4,114.3,134.4,126.4,10.6
159.25,126.4,112.1,134.8,124.4,11.5
162.5,125.1,112.5,131.9,123.2,9.8
165.75,124.7,110.9,128.9,121.5,9.4
169.0,123.2,111.8,129.0,121.3,8.7
172.25,123.9,109.1,126.5,119.9,9.4
175.5,118.8,106.0,127.3,117.4,10.7
178.75,116.9,107.2,125.7,116.6,9.2
182.0,117.1,104.9,123.8,115.3,9.6
185.25,116.9,104.1,121.5,114.2,9.0
188.5,114.5,102.7,122.7,113.3,10.1
191.75,110.6,99.6,120.2,110.1,10.3
195.0,111.1,98.9,118.9,109.6,10.1
198.25,109.5,99.2,118.7,109.1,9.8
201.5,111.7,97.2,116.3,108.4,9.9
204.75,111.2,96.8,117.4,108.5,10.5
208.0,111.3,96.1,114.1,107.2,9.7
211.25,112.8,96.8,116.2,108.6,10.4
214.5,112.6,94.4,116.6,107.9,11.8
217.75,110.0,93.3,113.2,105.5,10.7
221.0,111.2,93.0,113.1,105.8,11.1
224.25,110.1,93.4,111.0,104.8,9.9
227.5,109.2,92.1,111.0,104.1,10.4
230.75,108.7,90.7,110.5,103.3,10.9
234.0,109.8,88.9,108.9,102.5,11.8
237.25,105.3,88.6,108.6,100.8,10.7
240.5,106.1,89.0,109.6,101.6,11.0
243.75,106.0,89.3,107.3,100.9,10.0
247.0,107.8,90.0,105.5,101.1,9.7
250.25,105.7,88.5,107.5,100.6,10.5
253.5,102.9,87.1,105.4,98.5,9.9
256.75,104.7,88.5,106.7,100.0,10.0
260.0,105.1,88.6,105.9,99.9,9.8
263.25,104.6,85.8,105.5,98.6,11.1
266.5,103.5,85.1,106.2,98.3,11.5
269.75,103.3,84.8,102.7,97.0,10.5
273.0,103.2,84.4,101.8,96.5,10.5
276.25,101.7,85.8,102.7,96.8,9.5
279.5,101.0,84.9,101.9,95.9,9.6
282.75,100.9,84.5,102.5,96.0,10.0
286.0,101.4,83.4,100.9,95.2,10.3
289.25,99.8,82.1,100.3,94.1,10.3
292.5,99.7,81.9,97.9,93.2,9.8
295.75,100.2,79.5,100.0,93.2,11.9
299.0,98.5,79.5,97.7,91.9,10.8
302.25,97.9,79.3,98.3,91.8,10.9
305.5,98.4,77.7,98.3,91.5,11.9
308.75,98.6,77.0,96.3,90.7,11.9
312.0,98.2,77.4,95.5,90.4,11.3
315.25,99.3,77.5,97.4,91.4,12.1
318.5,95.7,76.6,96.1,89.5,11.1
321.75,96.6,74.6,95.3,88.8,12.3
325.0,95.7,74.7,96.6,89.0,12.4
328.25,97.8,74.1,95.9,89.3,13.2
331.5,95.2,73.0,95.8,88.0,13.0
334.75,96.0,74.5,97.0,89.2,12.7
338.0,96.5,74.1,97.0,89.2,13.1
341.25,95.6,73.0,96.5,88.4,13.3
344.5,93.5,73.5,94.5,87.2,11.9
347.75,93.9,74.5,95.5,88.0,11.7
351.0,95.9,72.4,93.8,87.3,13.0
354.25,93.3,72.4,95.3,87.0,12.7
357.5,92.4,72.5,95.8,86.9,12.6
360.75,94.0,72.0,96.3,87.4,13.4
364.0,93.1,72.0,97.2,87.5,13.5
367.25,92.8,70.5,96.4,86.6,14.0
370.5,94.3,69.9,96.1,86.8,14.6
373.75,93.5,70.4,95.8,86.6,14.0
377.0,91.4,70.3,94.4,85.4,13.1
380.25,92.8,69.6,95.1,85.8,14.1
383.5,91.3,70.8,96.0,86.0,13.4
386.75,93.6,70.5,94.6,86.2,13.6
390.0,92.1,69.1,96.1,85.8,14.5
393.25,91.2,67.6,95.2,84.7,14.9
396.5,91.5,68.8,95.5,85.2,14.4
399.75,92.8,67.5,94.0,84.8,15.0
403.0,91.8,67.5,93.7,84.3,14.6
406.25,92.6,67.7,93.9,84.7,14.7
409.5,91.7,67.2,93.9,84.3,14.8
412.75,92.4,67.5,94.8,84.9,15.1
416.0,90.5,67.8,94.6,84.3,14.4
419.25,92.6,67.7,96.0,85.4,15.5
422.5,93.8,66.8,94.5,85.1,15.8
425.75,91.8,66.7,94.4,84.3,15.3
429.0,92.5,66.7,96.6,85.3,16.2
432.25,92.4,65.8,95.9,84.7,16.4
435.5,92.4,64.8,95.3,84.2,16.8
438.75,92.2,64.4,92.9,83.2,16.3
442.0,92.1,64.4,92.7,83.1,16.2
445.25,93.9,63.8,93.7,83.8,17.3
448.5,92.5,63.6,95.5,83.9,17.6
451.75,93.5,64.2,94.9,84.2,17.4
455.0,91.8,65.0,93.3,83.4,15.9
458.25,91.7,64.6,96.3,84.2,17.2
461.5,93.2,65.5,96.7,85.1,17.1
464.75,93.6,65.2,96.6,85.1,17.4
468.0,92.1,65.8,97.1,85.0,16.8
471.25,91.1,65.9,98.9,85.3,17.2
474.5,92.0,65.9,97.8,85.2,17.0
477.75,91.6,66.6,97.9,85.4,16.6
481.0,93.8,66.2,97.6,85.9,17.2
484.25,95.0,65.0,99.5,86.5,18.8
487.5,92.7,65.5,99.4,85.9,18.0
490.75,94.2,66.0,98.3,86.2,17.6
494.0,94.4,64.6,99.7,86.2,18.9
497.25,95.9,65.7,100.9,87.5,19.0
500.5,93.9,66.5,102.9,87.8,19.0
503.75,96.6,65.5,101.5,87.9,19.5
507.0,97.5,65.3,102.7,88.5,20.3
510.25,97.1,66.9,102.7,88.9,19.2
513.5,98.0,66.5,103.6,89.3,20.0
516.75,97.0,66.6,103.2,88.9,19.6
520.0,98.0,65.6,102.9,88.8,20.2
523.25,98.8,66.3,102.0,89.0,19.8
526.5,102.2,66.8,103.2,90.7,20.7
529.75,103.2,65.0,105.2,91.1,22.7
533.0,104.3,65.7,104.5,91.5,22.3
536.25,104.8,66.0,105.5,92.1,22.6
539.5,102.3,64.0,105.7,90.7,23.2
542.75,104.1,63.3,106.6,91.4,24.3
546.0,106.5,63.4,107.0,92.3,25.0
549.25,106.6,64.5,106.7,92.6,24.3
552.5,107.3,65.6,105.4,92.8,23.5
555.75,107.2,65.0,109.7,94.0,25.1
559.0,109.8,65.6,111.9,95.8,26.1
562.25,109.5,65.2,112.3,95.7,26.4
565.5,112.7,66.1,113.5,97.4,27.1
568.75,111.0,66.0,112.2,96.4,26.3
572.0,114.7,66.3,112.1,97.7,27.2
575.25,115.7,67.2,116.6,99.8,28.3
578.5,115.1,67.2,114.6,99.0,27.5
581.75,116.2,67.6,116.2,100.0,28.1
585.0,117.6,67.1,119.9,101.5,29.8
588.25,120.5,67.1,119.8,102.5,30.7
591.5,119.9,70.2,121.8,104.0,29.3
594.75,120.8,70.4,122.6,104.6,29.6
598.0,122.8,70.4,127.0,106.7,31.6
601.25,123.0,69.2,126.7,106.3,32.2
604.5,125.3,70.4,127.0,107.6,32.2
607.75,123.0,70.3,128.5,107.3,32.2
611.0,127.8,69.9,131.2,109.6,34.4
614.25,127.0,71.2,131.4,109.9,33.6
617.5,131.4,68.4,132.9,110.9,36.8
620.75,133.5,68.9,135.0,112.5,37.7
624.0,134.0,70.0,137.9,113.9,38.1
627.25,137.7,71.4,139.9,116.3,38.9
630.5,137.6,71.0,138.1,115.6,38.6
633.75,138.6,69.9,139.3,115.9,39.9
637.0,140.2,70.9,138.7,116.6,39.6
640.25,144.5,71.5,141.5,119.2,41.3
643.5,143.7,70.7,140.4,118.2,41.2
646.75,146.0,71.7,144.2,120.6,42.4
650.0,146.0,71.7,145.1,120.9,42.6
653.25,151.1,74.4,147.9,124.4,43.4
656.5,153.0,74.8,143.6,123.8,42.7
659.75,151.3,74.2,147.2,124.2,43.4
663.0,157.3,74.2,147.2,126.2,45.3
666.25,158.0,75.3,148.5,127.3,45.3
669.5,158.9,74.2,149.6,127.6,46.4
672.75,161.2,75.6,151.2,129.3,46.8
676.0,164.3,75.4,150.4,130.0,47.8
679.25,166.6,75.3,149.3,130.4,48.5
682.5,168.4,76.8,154.3,133.2,49.3
685.75,168.7,76.4,154.1,133.1,49.6
689.0,171.9,77.4,154.6,134.7,50.3
692.25,175.7,78.4,155.7,136.6,51.4
695.5,178.1,78.7,155.9,137.6,52.2
698.75,179.6,79.5,158.6,139.2,52.8
702.0,179.8,78.0,159.2,139.0,53.8
705.25,183.2,77.9,161.0,140.7,55.5
708.5,182.2,79.0,161.6,140.9,54.6
711.75,187.6,78.8,163.3,143.2,57.1
715.0,188.3,81.1,160.9,143.4,55.7
718.25,191.4,81.7,162.4,145.2,56.8
721.5,187.8,82.1,162.3,144.1,55.2
724.75,190.1,82.9,164.4,145.8,55.9
728.0,192.0,84.6,163.9,146.9,55.7
731.25,193.5,86.0,166.1,148.5,55.8
734.5,193.0,85.9,170.5,149.8,56.5
737.75,192.4,87.2,164.2,147.9,54.4
741.0,198.0,86.9,165.9,150.3,57.2
744.25,192.1,86.9,167.3,148.8,55.0
747.5,196.5,87.5,164.9,149.6,56.1
750.75,196.0,88.3,166.0,150.1,55.5
754.0,197.5,91.6,166.7,151.9,54.5
757.25,199.0,93.1,168.2,153.4,54.5
760.5,203.3,94.7,169.5,155.8,55.6
763.75,201.9,96.2,167.8,155.3,54.0
767.0,206.2,95.4,169.4,157.0,56.4
770.25,205.7,98.9,171.6,158.7,54.6
773.5,206.3,97.0,170.9,158.1,55.8
776.75,209.9,99.4,172.3,160.6,56.2
780.0,210.3,100.7,167.9,159.6,55.3
783.25,212.6,103.1,171.2,162.3,55.3
786.5,219.0,105.0,174.1,166.0,57.4
789.75,215.0,105.2,172.7,164.3,55.4
793.0,217.8,108.8,173.4,166.6,54.8
796.25,217.4,109.5,174.6,167.2,54.4
799.5,217.4,112.8,176.3,168.9,52.7
802.75,216.1,111.5,175.0,167.5,52.7
806.0,214.9,113.5,174.0,167.4,51.0
809.25,207.9,113.6,176.9,166.1,48.0
812.5,205.9,115.4,171.7,164.3,45.7
815.75,203.8,117.4,172.5,164.6,43.7
819.0,197.6,117.8,174.4,163.3,41.1
822.25,194.0,120.4,173.7,162.7,38.0
825.5,182.1,121.3,170.5,158.0,32.3
828.75,181.5,123.1,172.1,158.9,31.4
832.0,179.8,124.0,173.4,159.1,30.5
835.25,172.3,125.0,172.1,156.5,27.3
838.5,163.2,126.3,174.5,154.7,25.2
841.75,163.6,131.5,168.2,154.4,20.0
845.0,157.7,133.3,169.3,153.4,18.4
848.25,157.7,135.0,166.7,153.1,16.4
851.5,154.6,135.8,163.3,151.2,14.1
854.75,146.3,136.5,161.1,148.0,12.4
858.0,135.3,139.6,159.1,144.7,12.7
861.25,128.2,143.2,155.7,142.4,13.8
864.5,123.1,143.3,150.7,139.0,14.3
867.75,118.2,143.1,143.5,134.9,14.5
871.0,114.0,152.2,139.3,135.1,19.4
874.25,108.6,148.5,134.4,130.5,20.2
877.5,104.9,149.3,133.2,129.1,22.5
880.75,99.4,150.9,134.4,128.3,26.3
884.0,94.6,151.7,131.5,125.9,29.0
887.25,89.8,157.8,131.0,126.2,34.2
890.5,85.8,155.1,122.1,121.0,34.7
893.75,80.0,157.4,116.6,118.0,38.7
897.0,75.7,163.1,105.5,114.8,44.5
900.25,78.0,159.3,96.6,111.3,42.6
903.5,75.5,164.4,93.4,111.1,47.0
906.75,72.2,163.0,85.8,107.0,49.0
910.0,72.1,170.2,82.6,108.3,53.9
913.25,69.4,167.5,78.9,105.3,54.1
916.5,66.1,175.1,73.2,104.8,61.0
919.75,66.4,172.7,67.5,102.2,61.1
923.0,66.4,174.5,67.4,102.8,62.1
926.25,65.5,178.7,66.4,103.5,65.1
929.5,64.7,179.4,66.2,103.4,65.8
932.75,62.6,181.8,65.9,103.4,67.9
936.0,61.5,185.6,64.2,103.7,70.9
936.5,61.7,185.7,63.7,103.7,71.0

File: OSB_HRRPUA_50.csv
Time after Ignition,OSB_R1,OSB_R2,OSB_R3,Mean,Std. Dev.
0.0,23.9,6.4,8.9,13.1,9.5
2.75,98.1,58.7,54.5,70.5,24.1
5.5,170.6,133.0,133.2,145.6,21.6
8.25,228.6,185.2,184.4,199.4,25.3
11.0,259.4,215.4,216.4,230.4,25.1
13.75,273.3,235.1,237.2,248.5,21.5
16.5,274.4,244.7,246.0,255.0,16.8
19.25,274.6,246.6,259.6,260.3,14.0
22.0,274.3,253.0,263.9,263.7,10.7
24.75,280.0,257.3,265.1,267.5,11.5
27.5,271.0,258.6,270.7,266.8,7.1
30.25,275.2,257.8,269.9,267.7,8.9
33.0,282.0,259.4,269.1,270.2,11.3
35.75,269.3,257.1,269.9,265.4,7.2
38.5,270.8,256.0,271.9,266.2,8.9
41.25,265.9,263.1,266.1,265.1,1.7
44.0,260.8,265.0,269.9,265.2,4.5
46.75,256.9,259.4,263.4,259.9,3.3
49.5,258.0,258.9,268.6,261.8,5.9
52.25,257.1,260.1,264.5,260.5,3.7
55.0,259.3,261.4,261.3,260.7,1.2
57.75,260.9,255.2,259.6,258.6,3.0
60.5,262.7,252.7,253.0,256.1,5.7
63.25,260.2,251.4,251.8,254.5,5.0
66.0,259.9,251.2,252.4,254.5,4.7
68.75,260.2,247.5,245.9,251.2,7.9
71.5,252.4,247.5,243.4,247.8,4.5
74.25,254.5,245.4,243.0,247.6,6.1
77.0,252.7,243.3,238.8,244.9,7.1
79.75,247.9,239.4,237.5,241.6,5.5
82.5,246.5,232.2,232.4,237.0,8.2
85.25,239.3,232.4,236.6,236.1,3.5
88.0,243.3,230.2,224.9,232.8,9.5
90.75,233.9,228.4,223.3,228.6,5.3
93.5,234.3,224.5,223.7,227.5,5.9
96.25,229.0,221.2,218.4,222.9,5.5
99.0,226.2,218.3,219.6,221.4,4.2
101.75,226.5,217.7,215.7,220.0,5.7
104.5,219.1,216.8,215.1,217.0,2.0
107.25,218.9,212.3,212.4,214.5,3.8
110.0,217.4,209.6,209.6,212.2,4.5
112.75,213.2,209.4,207.6,210.1,2.8
115.5,215.2,203.9,204.4,207.9,6.4
118.25,211.9,205.8,201.1,206.3,5.4
121.0,210.2,204.3,199.1,204.6,5.6
123.75,204.2,199.8,192.9,199.0,5.7
126.5,203.1,199.6,193.1,198.6,5.1
129.25,200.5,200.6,192.5,197.8,4.6
132.0,201.8,195.6,190.2,195.9,5.8
134.75,200.1,197.2,184.3,193.9,8.4
137.5,192.7,200.6,183.3,192.2,8.7
140.25,194.1,193.7,180.0,189.3,8.0
143.0,186.8,194.8,178.8,186.8,8.0
145.75,188.3,190.4,179.5,186.0,5.8
148.5,187.2,191.3,180.0,186.2,5.7
151.25,183.9,191.4,178.7,184.7,6.4
154.0,183.2,190.9,176.3,183.5,7.3
156.75,179.3,188.2,173.4,180.3,7.5
159.5,179.3,189.2,175.9,181.5,6.9
162.25,178.5,181.6,172.2,177.4,4.8
165.0,180.5,186.8,172.0,179.8,7.5
167.75,176.6,181.3,169.5,175.8,5.9
170.5,175.8,179.4,170.6,175.3,4.4
173.25,175.4,177.2,166.9,173.2,5.5
176.0,175.7,177.0,166.4,173.0,5.8
178.75,172.3,176.1,163.7,170.7,6.3
181.5,173.8,175.7,165.2,171.6,5.6
184.25,168.9,173.7,166.0,169.5,3.9
187.0,166.9,173.7,162.2,167.6,5.8
189.75,168.7,172.1,163.3,168.0,4.4
192.5,166.2,170.1,157.4,164.6,6.5
195.25,169.1,169.9,159.5,166.2,5.8
198.0,162.9,171.8,159.3,164.7,6.4
200.75,163.6,168.9,160.9,164.5,4.1
203.5,161.1,167.6,158.9,162.5,4.5
206.25,160.8,168.1,157.9,162.2,5.2
209.0,159.4,165.7,156.1,160.4,4.9
211.75,159.7,168.0,153.8,160.5,7.1
214.5,158.4,169.7,152.4,160.1,8.8
217.25,156.6,168.3,152.1,159.0,8.4
220.0,157.0,169.0,151.3,159.1,9.0
222.75,153.3,164.1,152.2,156.5,6.6
225.5,154.5,169.5,147.9,157.3,11.0
228.25,153.7,167.9,146.9,156.2,10.7
231.0,154.5,163.1,148.7,155.4,7.3
233.75,155.1,164.9,146.0,155.3,9.4
236.5,151.5,166.0,145.2,154.2,10.7
239.25,154.0,167.7,144.9,155.5,11.5
242.0,152.5,163.9,145.7,154.0,9.2
244.75,149.6,164.5,145.2,153.1,10.1
247.5,151.3,163.1,140.6,151.7,11.3
250.25,150.9,162.3,145.4,152.9,8.6
253.0,149.6,162.6,142.9,151.7,10.0
255.75,149.6,161.5,144.2,151.8,8.9
258.5,148.8,164.2,141.8,151.6,11.5
261.25,148.6,161.9,142.8,151.1,9.8
264.0,148.9,160.7,141.5,150.4,9.7
266.75,148.0,161.3,138.3,149.2,11.6
269.5,147.4,158.3,139.5,148.4,9.5
272.25,146.8,159.7,136.5,147.7,11.6
275.0,148.0,158.5,137.5,148.0,10.5
277.75,146.7,161.4,135.7,148.0,12.9
280.5,147.5,157.2,138.7,147.8,9.3
283.25,146.0,158.2,139.2,147.8,9.6
286.0,146.7,158.5,136.8,147.3,10.9
288.75,148.2,158.1,138.9,148.4,9.6
291.5,146.7,156.8,137.9,147.1,9.4
294.25,145.9,159.8,136.8,147.5,11.6
297.0,143.0,157.3,137.6,146.0,10.2
299.75,142.6,158.4,134.4,145.1,12.2
302.5,141.7,156.3,136.2,144.8,10.4
305.25,141.8,158.7,136.2,145.6,11.7
308.0,143.1,154.5,136.6,144.7,9.1
310.75,144.0,158.1,133.9,145.3,12.1
313.5,143.8,154.1,133.5,143.8,10.3
316.25,142.3,149.9,131.7,141.3,9.1
319.0,143.1,154.5,133.3,143.6,10.6
321.75,143.2,154.3,133.8,143.7,10.3
324.5,143.4,158.6,132.8,144.9,13.0
327.25,142.0,158.3,132.8,144.4,12.9
330.0,141.6,155.0,132.5,143.0,11.3
332.75,142.2,154.2,130.5,142.3,11.9
335.5,141.6,156.6,131.6,143.2,12.6
338.25,141.9,156.0,135.9,144.6,10.3
341.0,143.0,157.5,133.6,144.7,12.0
343.75,144.7,157.4,134.2,145.4,11.6
346.5,146.1,156.8,132.7,145.2,12.1
349.25,144.0,155.8,133.1,144.3,11.4
352.0,143.8,157.5,135.4,145.5,11.1
354.75,144.2,154.0,132.8,143.7,10.6
357.5,148.1,157.2,135.6,147.0,10.9
360.25,145.5,158.0,134.6,146.0,11.7
363.0,145.0,159.0,133.8,146.0,12.6
365.75,143.8,160.2,135.3,146.4,12.6
368.5,147.6,157.6,135.4,146.9,11.1
371.25,146.7,157.5,132.2,145.5,12.7
374.0,144.5,159.9,136.8,147.1,11.8
376.75,148.6,157.4,135.9,147.3,10.8
379.5,149.4,161.7,134.7,148.6,13.5
382.25,148.5,163.3,135.5,149.1,13.9
385.0,145.9,162.5,138.1,148.9,12.5
387.75,150.2,161.8,140.1,150.7,10.9
390.5,147.8,164.8,137.7,150.1,13.7
393.25,150.9,162.1,138.7,150.6,11.7
396.0,149.3,161.6,139.1,150.0,11.3
398.75,150.3,164.1,140.3,151.6,11.9
401.5,152.0,163.5,140.6,152.0,11.4
404.25,150.5,162.7,143.9,152.3,9.5
407.0,152.0,163.2,142.4,152.5,10.4
409.75,152.9,163.1,138.8,151.6,12.2
412.5,151.7,163.4,141.9,152.3,10.8
415.25,153.1,163.4,143.2,153.2,10.1
418.0,155.6,166.6,144.2,155.5,11.2
420.75,156.5,162.6,145.6,154.9,8.6
423.5,154.4,164.6,148.7,155.9,8.1
426.25,155.6,162.9,149.6,156.0,6.7
429.0,153.6,164.4,147.2,155.1,8.7
431.75,155.4,161.8,153.2,156.8,4.5
434.5,158.2,164.0,148.2,156.8,8.0
437.25,156.0,163.0,152.2,157.1,5.5
440.0,158.3,163.8,153.3,158.5,5.2
442.75,158.1,164.5,159.5,160.7,3.3
445.5,161.2,166.8,157.5,161.9,4.7
448.25,157.3,165.3,158.7,160.4,4.3
451.0,159.3,165.1,160.8,161.7,3.0
453.75,159.9,165.2,160.7,161.9,2.9
456.5,159.9,168.8,161.9,163.6,4.6
459.25,160.9,166.9,162.7,163.5,3.1
462.0,160.6,166.1,161.0,162.6,3.0
464.75,162.0,164.8,165.0,163.9,1.7
467.5,163.2,168.9,165.7,165.9,2.8
470.25,163.9,167.0,164.6,165.2,1.6
473.0,165.1,167.0,168.4,166.8,1.7
475.75,162.8,165.8,171.6,166.7,4.4
478.5,164.5,167.8,171.7,168.0,3.6
481.25,167.5,166.7,171.1,168.4,2.3
484.0,165.7,165.9,173.0,168.2,4.2
486.75,167.0,167.6,171.8,168.8,2.6
489.5,168.6,166.9,174.1,169.8,3.8
492.25,168.6,169.2,173.9,170.6,2.9
495.0,168.2,169.1,174.3,170.5,3.3
497.75,171.6,168.3,175.6,171.8,3.7
500.5,173.4,166.7,174.4,171.5,4.2
503.25,172.0,171.1,180.4,174.5,5.1
506.0,172.3,175.1,178.5,175.3,3.1
508.75,174.5,171.0,181.6,175.7,5.4
511.5,177.3,172.1,181.1,176.9,4.5
514.25,176.4,174.7,182.0,177.7,3.8
517.0,175.9,174.2,183.2,177.8,4.8
519.75,176.9,173.9,182.4,177.7,4.3
522.5,180.2,176.1,183.8,180.1,3.8
525.25,180.6,177.2,179.6,179.1,1.7
528.0,178.8,177.8,182.3,179.6,2.4
530.75,177.3,175.7,183.0,178.7,3.8
533.5,177.3,178.7,186.3,180.8,4.8
536.25,184.2,176.5,186.8,182.5,5.4
539.0,186.2,180.5,189.3,185.3,4.4
541.75,183.9,180.0,189.8,184.6,5.0
544.5,185.5,180.1,190.9,185.5,5.4
547.25,187.4,180.8,187.6,185.3,3.9
550.0,186.3,182.1,190.6,186.3,4.3
552.75,190.7,187.2,195.6,191.2,4.2
555.5,194.1,188.1,196.4,192.9,4.3
558.25,194.7,187.9,195.7,192.8,4.2
561.0,197.6,186.9,199.1,194.6,6.6
563.75,198.5,190.0,200.0,196.2,5.4
566.5,197.9,193.0,203.8,198.2,5.4
569.25,198.9,189.8,203.5,197.4,7.0
572.0,202.0,191.6,205.5,199.7,7.2
574.75,200.4,192.3,205.0,199.2,6.4
577.5,200.5,192.9,209.6,201.0,8.4
580.25,201.7,196.3,213.5,203.8,8.8
583.0,203.4,195.0,208.7,202.4,6.9
585.75,202.7,190.5,212.0,201.7,10.8
588.5,203.8,196.3,215.4,205.2,9.6
591.25,204.7,198.5,214.1,205.8,7.8
594.0,205.5,197.4,214.4,205.8,8.5
596.75,206.7,196.7,213.8,205.7,8.6
599.5,204.6,199.2,208.1,204.0,4.5
602.25,199.8,194.9,212.9,202.5,9.3
605.0,202.7,193.8,209.8,202.1,8.0
607.75,201.5,195.4,209.5,202.1,7.1
610.5,198.6,195.4,208.4,200.8,6.8
613.25,201.4,196.7,214.5,204.2,9.3
616.0,198.4,197.2,208.1,201.2,6.0
618.75,196.3,190.9,205.0,197.4,7.1
621.5,193.7,192.0,201.5,195.7,5.1
624.25,194.4,187.0,203.5,195.0,8.3
627.0,186.9,187.2,200.8,191.6,8.0
629.75,181.6,181.6,200.4,187.9,10.9
632.5,177.6,178.2,196.6,184.1,10.8
635.25,171.9,175.8,191.6,179.8,10.4
638.0,164.8,171.3,193.2,176.4,14.9
640.75,160.2,166.2,187.5,171.3,14.4
643.5,151.3,156.1,182.9,163.4,17.1
646.25,143.1,154.3,178.7,158.7,18.2
649.0,135.8,144.8,174.3,151.6,20.1
651.75,128.3,137.9,167.2,144.5,20.3
654.5,118.5,126.0,161.1,135.2,22.8
657.25,112.1,121.2,154.3,129.2,22.2
660.0,106.0,114.4,149.3,123.2,22.9
662.75,99.0,105.1,143.7,115.9,24.3
665.5,94.0,98.0,133.9,108.6,22.0
668.25,90.9,92.2,125.2,102.8,19.5
671.0,81.7,89.4,117.0,96.0,18.6
673.75,77.6,86.9,109.4,91.3,16.4
676.5,72.6,81.0,106.7,86.8,17.7
679.25,67.5,75.3,103.7,82.2,19.1
682.0,65.7,73.9,101.8,80.5,18.9
684.75,62.8,71.9,96.4,77.0,17.4
687.5,60.2,69.8,95.8,75.3,18.4
690.25,60.0,69.5,92.3,73.9,16.6
693.0,59.6,67.2,90.8,72.5,16.3
695.75,59.3,65.4,86.3,70.3,14.2
698.5,57.4,62.7,86.3,68.8,15.4
701.25,55.9,61.1,85.9,67.6,16.0
704.0,56.2,61.6,85.5,67.8,15.6
706.75,56.1,60.9,83.6,66.9,14.7
709.5,54.9,58.8,81.0,64.9,14.1
712.25,54.6,58.7,80.1,64.5,13.6
715.0,54.8,58.0,,56.4,2.3
717.75,54.1,57.9,,56.0,2.7
720.5,53.7,58.1,,55.9,3.1
723.25,53.4,58.6,,56.0,3.6
726.0,53.6,,,53.6,
728.75,53.5,,,53.5,
731.5,55.1,,,55.1,
734.25,56.1,,,56.1,
737.0,56.8,,,56.8,
739.75,55.0,,,55.0,
742.5,53.5,,,53.5,
745.25,53.4,,,53.4,
748.0,55.1,,,55.1,
750.75,55.4,,,55.4,
751.25,56.0,,,56.0,