Folder: fsri_materials_database/01_Data/OSB/Cone (part 2)

File: OSB_HRRPUA_75.csv
Time after Ignition,OSB_R1,OSB_R2,OSB_R3,Mean,Std. Dev.
0.0,6.7,24.5,18.8,16.7,9.1
2.5,48.1,79.3,94.9,74.1,23.8
5.0,139.2,147.7,168.3,151.8,15.0
7.5,223.7,213.4,244.7,227.3,15.9
10.0,276.8,275.1,296.8,282.9,12.1
12.5,309.3,317.7,334.1,320.4,12.6
15.0,330.3,333.6,355.7,339.8,13.8
17.5,342.2,350.7,364.4,352.4,11.2
20.0,353.2,366.9,381.5,367.2,14.2
22.5,355.0,367.2,369.0,363.7,7.6
25.0,345.0,368.8,361.1,358.3,12.1
27.5,346.5,374.4,359.8,360.2,13.9
30.0,336.4,371.5,367.2,358.4,19.2
32.5,347.9,372.4,362.2,360.9,12.3
35.0,336.0,354.1,350.0,346.7,9.5
37.5,325.8,354.4,351.5,343.9,15.8
40.0,327.8,348.7,357.1,344.5,15.1
42.5,322.9,353.1,353.8,343.3,17.6
45.0,315.3,344.8,362.8,340.9,23.9
47.5,319.7,343.5,354.9,339.3,18.0
50.0,313.2,336.9,344.7,331.6,16.4
52.5,311.8,333.8,343.5,329.7,16.3
55.0,306.4,342.0,337.8,328.7,19.5
57.5,304.0,331.4,332.5,322.7,16.1
60.0,296.2,322.7,320.1,313.0,14.6
62.5,298.6,320.6,316.0,311.7,11.6
65.0,293.6,320.1,311.6,308.4,13.5
67.5,289.3,314.9,312.5,305.6,14.2
70.0,282.4,308.8,305.6,298.9,14.5
72.5,282.4,312.0,309.7,301.4,16.4
75.0,275.5,307.2,293.8,292.2,15.9
77.5,275.9,302.1,287.0,288.4,13.2
80.0,276.7,308.3,297.7,294.2,16.1
82.5,272.5,293.9,286.3,284.2,10.9
85.0,274.2,294.9,279.7,282.9,10.8
87.5,266.1,288.3,277.1,277.1,11.1
90.0,263.8,287.7,282.2,277.9,12.5
92.5,263.2,283.1,276.3,274.2,10.1
95.0,260.4,273.9,270.2,268.2,7.0
97.5,258.2,270.4,265.6,264.7,6.1
100.0,256.9,270.2,265.8,264.3,6.7
102.5,249.2,260.7,263.6,257.8,7.6
105.0,244.8,259.2,258.3,254.1,8.1
107.5,241.5,251.3,249.7,247.5,5.2
110.0,239.5,248.4,249.6,245.8,5.5
112.5,230.2,246.1,250.4,242.2,10.7
115.0,225.8,242.4,248.3,238.8,11.7
117.5,222.3,236.2,245.4,234.6,11.6
120.0,218.5,232.5,240.0,230.3,10.9
122.5,222.2,233.9,239.2,231.8,8.7
125.0,213.1,233.4,240.3,228.9,14.1
127.5,207.7,224.4,241.5,224.5,16.9
130.0,209.3,223.6,236.2,223.1,13.4
132.5,208.0,221.4,235.1,221.5,13.5
135.0,203.5,218.7,236.3,219.5,16.4
137.5,206.9,217.2,235.3,219.8,14.4
140.0,200.0,217.1,233.1,216.7,16.6
142.5,199.5,213.7,233.7,215.6,17.2
145.0,196.4,210.5,230.8,212.5,17.3
147.5,195.9,209.9,227.3,211.1,15.8
150.0,192.7,207.7,225.1,208.5,16.2
152.5,193.0,208.6,223.0,208.2,15.0
155.0,191.6,205.6,220.4,205.9,14.4
157.5,189.0,207.1,220.4,205.5,15.7
160.0,190.5,200.9,219.1,203.5,14.4
162.5,190.2,202.9,220.1,204.4,15.0
165.0,190.7,204.2,215.2,203.4,12.3
167.5,191.9,199.0,214.2,201.7,11.4
170.0,194.2,197.7,218.9,203.6,13.4
172.5,188.6,201.0,212.8,200.8,12.1
175.0,192.1,200.4,210.2,200.9,9.0
177.5,184.3,200.3,211.4,198.6,13.6
180.0,184.9,197.9,208.8,197.2,12.0
182.5,185.3,194.6,209.5,196.5,12.2
185.0,184.0,192.9,208.9,195.3,12.6
187.5,183.0,192.3,206.9,194.1,12.1
190.0,183.7,190.8,202.6,192.4,9.6
192.5,180.3,192.3,207.3,193.3,13.6
195.0,184.1,192.4,202.6,193.0,9.2
197.5,184.3,190.6,202.6,192.5,9.3
200.0,179.7,185.0,203.7,189.5,12.6
202.5,181.3,183.8,199.9,188.4,10.1
205.0,180.3,186.4,196.9,187.9,8.4
207.5,178.4,189.2,200.5,189.4,11.1
210.0,178.7,186.8,198.6,188.0,10.0
212.5,177.6,183.0,199.2,186.6,11.3
215.0,176.7,183.4,196.5,185.5,10.1
217.5,175.7,181.1,197.9,184.9,11.5
220.0,178.4,181.1,196.4,185.3,9.7
222.5,179.2,180.4,198.4,186.0,10.8
225.0,179.6,180.3,198.0,186.0,10.4
227.5,180.7,183.7,198.7,187.7,9.7
230.0,176.4,181.9,195.0,184.4,9.6
232.5,179.9,183.9,196.9,186.9,8.9
235.0,177.3,180.8,194.4,184.1,9.0
237.5,182.7,177.8,194.0,184.8,8.3
240.0,181.2,177.2,197.3,185.2,10.6
242.5,175.8,180.8,195.3,184.0,10.1
245.0,177.0,181.2,196.8,185.0,10.4
247.5,176.4,179.4,194.5,183.4,9.7
250.0,174.7,177.9,195.3,182.7,11.1
252.5,175.7,177.0,192.6,181.8,9.4
255.0,175.8,178.0,199.1,184.3,12.8
257.5,174.7,176.4,196.9,182.7,12.3
260.0,176.0,176.6,192.5,181.7,9.4
262.5,174.8,177.4,193.5,181.9,10.1
265.0,174.5,176.5,194.3,181.7,10.9
267.5,174.4,178.0,193.7,182.0,10.2
270.0,174.6,176.6,197.3,182.8,12.6
272.5,173.6,176.6,190.4,180.2,9.0
275.0,175.0,175.3,196.3,182.2,12.2
277.5,175.2,180.4,193.4,183.0,9.4
280.0,177.6,179.4,193.3,183.4,8.6
282.5,173.4,178.8,195.7,182.6,11.6
285.0,174.6,177.9,194.8,182.5,10.8
287.5,173.5,180.3,196.2,183.3,11.6
290.0,173.1,174.0,197.3,181.5,13.7
292.5,173.1,174.7,197.6,181.8,13.7
295.0,173.4,176.9,193.5,181.3,10.7
297.5,171.8,178.3,198.2,182.8,13.7
300.0,175.4,181.0,199.4,185.3,12.5
302.5,178.2,180.8,200.4,186.5,12.1
305.0,176.8,177.4,199.1,184.5,12.7
307.5,174.9,177.2,195.2,182.4,11.1
310.0,176.4,181.8,197.7,185.3,11.0
312.5,174.3,178.2,197.8,183.4,12.6
315.0,175.0,177.9,196.7,183.2,11.8
317.5,175.2,179.6,196.9,183.9,11.5
320.0,177.6,176.4,196.0,183.3,11.0
322.5,175.6,178.1,197.2,183.6,11.8
325.0,179.1,178.8,197.9,185.2,11.0
327.5,178.2,179.3,197.3,184.9,10.7
330.0,176.6,178.5,195.3,183.5,10.3
332.5,176.2,175.6,192.7,181.5,9.7
335.0,178.6,178.7,193.7,183.7,8.7
337.5,179.1,177.8,196.7,184.5,10.6
340.0,180.4,180.0,196.8,185.7,9.6
342.5,179.1,177.1,192.2,182.8,8.2
345.0,180.9,179.5,192.1,184.2,6.9
347.5,176.9,175.8,194.6,182.5,10.6
350.0,178.2,176.6,196.1,183.6,10.8
352.5,177.4,176.6,189.9,181.3,7.4
355.0,177.8,177.1,191.2,182.1,7.9
357.5,178.4,181.9,191.8,184.0,7.0
360.0,180.0,182.4,195.6,186.0,8.4
362.5,182.7,179.1,192.4,184.7,6.8
365.0,177.8,179.5,188.0,181.8,5.4
367.5,176.5,179.9,191.5,182.6,7.9
370.0,177.3,183.7,189.3,183.4,6.0
372.5,176.7,184.4,190.5,183.9,6.9
375.0,178.3,180.9,192.9,184.0,7.8
377.5,179.9,181.6,192.8,184.8,7.0
380.0,180.8,179.5,188.6,183.0,4.9
382.5,176.5,178.6,188.4,181.2,6.3
385.0,180.4,179.7,191.3,183.8,6.5
387.5,181.6,182.7,192.7,185.7,6.2
390.0,179.4,180.2,191.4,183.7,6.7
392.5,180.3,183.0,188.7,184.0,4.3
395.0,174.9,180.9,193.6,183.1,9.6
397.5,181.5,181.0,194.0,185.5,7.4
400.0,179.5,181.5,193.6,184.8,7.6
402.5,179.2,182.3,193.1,184.9,7.3
405.0,179.3,181.6,197.0,186.0,9.6
407.5,181.1,181.3,196.5,186.3,8.9
410.0,180.0,186.2,201.3,189.1,11.0
412.5,181.1,183.2,201.5,188.6,11.2
415.0,181.0,181.5,200.5,187.7,11.1
417.5,183.6,181.2,199.7,188.2,10.1
420.0,180.9,183.9,202.9,189.3,11.9
422.5,181.9,184.2,204.5,190.2,12.4
425.0,179.1,183.8,201.3,188.1,11.7
427.5,182.2,181.0,203.1,188.7,12.4
430.0,181.7,182.2,210.4,191.4,16.4
432.5,180.3,183.4,211.2,191.6,17.0
435.0,177.3,182.2,211.4,190.3,18.4
437.5,180.8,181.0,211.8,191.2,17.8
440.0,177.7,182.1,214.1,191.3,19.9
442.5,180.7,182.3,213.0,192.0,18.2
445.0,181.2,183.5,213.9,192.9,18.2
447.5,180.7,183.2,216.8,193.6,20.2
450.0,181.0,181.0,217.0,193.0,20.8
452.5,181.5,183.4,216.0,193.6,19.4
455.0,184.0,185.0,216.8,195.3,18.7
457.5,179.7,184.0,216.3,193.4,20.0
460.0,182.1,186.7,223.5,197.4,22.7
462.5,180.5,186.1,222.2,196.3,22.6
465.0,182.5,183.2,219.7,195.1,21.3
467.5,182.3,183.3,223.5,196.4,23.5
470.0,182.8,187.3,221.9,197.3,21.4
472.5,179.1,190.4,225.1,198.2,24.0
475.0,188.2,184.0,223.0,198.4,21.4
477.5,184.4,188.0,223.3,198.5,21.5
480.0,183.5,190.3,222.5,198.8,20.8
482.5,183.6,188.2,225.0,198.9,22.7
485.0,182.3,188.4,218.8,196.5,19.5
487.5,184.4,192.1,219.1,198.5,18.2
490.0,183.7,195.4,219.5,199.5,18.2
492.5,179.4,197.8,218.4,198.5,19.5
495.0,185.4,191.8,213.4,196.8,14.7
497.5,187.1,196.4,213.0,198.8,13.1
500.0,186.9,197.1,211.0,198.3,12.1
502.5,190.1,200.4,209.3,200.0,9.6
505.0,189.4,201.1,201.8,197.4,6.9
507.5,190.6,200.5,193.2,194.8,5.1
510.0,193.4,201.1,184.6,193.1,8.3
512.5,192.5,202.7,180.2,191.8,11.3
515.0,195.8,203.0,172.8,190.6,15.7
517.5,196.4,206.8,163.6,188.9,22.5
520.0,191.5,208.1,153.3,184.3,28.1
522.5,191.0,200.3,142.3,177.9,31.1
525.0,188.2,208.8,135.1,177.4,38.0
527.5,193.1,207.0,123.0,174.3,45.0
530.0,188.3,205.7,113.3,169.1,49.1
532.5,192.3,204.7,106.4,167.8,53.5
535.0,189.9,203.2,99.5,164.2,56.4
537.5,188.8,199.1,91.3,159.8,59.5
540.0,191.0,200.5,86.0,159.2,63.5
542.5,188.5,198.8,81.7,156.3,64.8
545.0,190.6,196.3,76.8,154.6,67.4
547.5,192.0,194.1,73.0,153.0,69.3
550.0,186.8,190.6,73.5,150.3,66.5
552.5,183.8,187.8,70.2,147.3,66.8
555.0,187.5,185.5,69.3,147.4,67.6
557.5,184.5,181.9,67.1,144.5,67.1
560.0,183.5,181.7,66.7,144.0,66.9
562.5,180.7,179.6,65.1,141.8,66.5
565.0,178.7,177.4,63.7,140.0,66.0
567.5,168.9,173.0,63.4,135.1,62.1
570.0,169.6,165.0,62.3,132.3,60.7
572.5,167.0,166.6,63.2,132.2,59.8
575.0,162.2,164.5,61.6,129.4,58.8
577.5,153.2,157.3,60.7,123.7,54.6
580.0,145.2,155.0,61.9,120.7,51.1
582.5,139.7,150.8,61.1,117.2,48.9
585.0,130.9,144.1,60.2,111.7,45.1
587.5,124.6,141.7,60.4,108.9,42.9
590.0,118.6,136.4,60.3,105.1,39.8
592.5,110.4,135.0,60.3,101.9,38.1
595.0,104.6,132.9,59.4,98.9,37.1
597.5,99.6,127.5,59.1,95.4,34.4
600.0,91.9,122.5,58.4,90.9,32.1
602.5,86.3,116.7,59.7,87.5,28.6
605.0,84.2,111.7,58.9,84.9,26.4
607.5,78.8,109.3,58.4,82.2,25.6
610.0,72.7,103.4,59.2,78.4,22.7
612.5,70.0,98.6,57.3,75.3,21.2
615.0,67.0,93.6,56.2,72.3,19.2
617.5,66.2,87.5,57.2,70.3,15.5
620.0,64.6,84.4,56.7,68.5,14.3
622.5,64.6,82.0,55.8,67.5,13.3
625.0,63.1,77.2,56.6,65.6,10.5
627.5,62.4,74.8,56.4,64.5,9.4
630.0,62.1,72.0,55.3,63.1,8.4
632.5,61.3,69.8,56.2,62.4,6.9
635.0,62.6,67.5,54.5,61.5,6.5
637.5,62.8,65.4,54.5,60.9,5.7
640.0,61.2,64.9,56.2,60.8,4.4
642.5,59.6,63.6,55.3,59.5,4.2
645.0,58.8,62.9,55.9,59.2,3.5
647.5,59.2,62.7,55.7,59.2,3.5
650.0,57.8,61.6,55.4,58.3,3.1
652.5,57.1,61.6,55.4,58.0,3.2
655.0,57.0,62.5,56.2,58.6,3.4
657.5,56.0,61.1,55.6,57.6,3.0
658.5,56.6,60.8,56.1,57.8,2.6