Folder: fsri_materials_database/01_Data/PETG/Cone

Note: README.md
# Materials and Products Database
### Repository of materials and products properties and fire test data to improve fire modeling and fire investigation.

This project was supported in part by Award No. 2019-DU-BX-0018, awarded by the National Institute of Justice, Office of Justice Programs, U.S. Department of Justice. The opinions, findings, and conclusions or recommendations expressed in this publication / program / exhibition are those of the author(s) and do not necessarily reflect those of the Department of Justice.

***
***

__Cite this database:__ "McKinnon, M., Weinschenk, C., Dow, N., DiDomizio, M., and Madrzykowski, D. Materials and Products Database (Version 1.0.0), Fire Safety Research Institute, UL Research Institutes. Columbia, MD 21045, 2023."

__Cite the Technical Reference Guide:__ "McKinnon, M., Weinschenk, C., and Madrzykowski, D. Materials and Products Database - Technical Reference Guide, Fire Safety Research Institute, UL Research Institutes. Columbia, MD 21045, 2023."

__Cite the User Guide:__ "McKinnon, M., and Weinschenk, C. Materials and Products Database - User Guide, Fire Safety Research Institute, UL Research Institutes. Columbia, MD 21045, 2023."

***
***

## Database Structure

## 01_Data/
Raw data generated from each apparatus are included here in plain-text format. The data is organized first by material, next by the short name of test apparatus used, and where applicable additional filtering by test settings.

### Test Apparatus and Data File Structure
- __Cone Calorimeter__ (Cone)
    + Data file structure includes the material, the short name for the apparatus, heat flux setting and scan/scalar, date of test, and replicate number. Scan is for the raw output data and scalar is for the initial conditions and high-level test parameters. 
        * Example: __MDF_Cone_HF25scalar_210323_R1__ stands for the first replicate of scalar data generated from a medium density fiber board test in cone calorimeter exposed to 25 kW/m<sup>2</sup> on March 23, 2021.
    + A _Cone_Notes.csv_ is generated for each material from the __plot_Cone_data.py__ script. For materials whose experiments deviated from typical behavior relevant pictures are included in the respective material directory.
- __Fourier Transform Infrared Spectrometer__ (FTIR)
    + The FTIR directory contains subdirectories for the Attenuated Total Reflectance method (ATR) and the Integrating Sphere (IS)
    + Data file structure for the ATR experiment files includes the material, the abbreviated name for the apparatus, date of test, and replicate number. 
        * Example: __MDF_ATR_210323_R5__ stands for the fifth replicate of data collected with the ATR accessory conducted on June 8, 2021.
    + Data file structure for the IS experiment files includes the material, the abbreviated name for the apparatus, the measurand, whether the test is a sample measurement or standard reference, date of test, and replicate number.
        * Example: __OSB_IS_REFLECT_MEAS_2

File: PETG_HRRPUA_25.csv
Time after Ignition,PETG_R1,PETG_R2,PETG_R3,Mean,Std. Dev.
0.0,3.2,-1.2,4.6,2.2,3.0
0.5,4.6,0.0,5.8,3.5,3.0
1.0,7.1,1.0,9.0,5.7,4.2
1.5,9.9,4.1,12.8,8.9,4.4
2.0,13.7,6.5,19.7,13.3,6.6
2.5,18.1,8.5,25.5,17.4,8.5
3.0,24.0,13.1,32.4,23.2,9.7
3.5,31.8,16.6,39.7,29.3,11.7
4.0,37.7,23.1,45.0,35.3,11.1
4.5,48.1,28.5,50.7,42.4,12.2
5.0,56.7,35.9,56.8,49.8,12.0
5.5,65.4,44.6,63.5,57.8,11.5
6.0,75.9,55.2,72.5,67.9,11.1
6.5,82.7,67.5,79.4,76.5,8.0
7.0,93.1,80.0,93.7,88.9,7.8
7.5,103.1,92.9,104.2,100.0,6.2
8.0,116.3,103.7,114.2,111.4,6.8
8.5,126.1,117.2,130.4,124.6,6.7
9.0,134.2,125.9,142.6,134.2,8.3
9.5,144.9,139.5,161.6,148.7,11.5
10.0,150.7,152.2,169.8,157.6,10.6
10.5,160.7,160.6,184.9,168.7,14.0
11.0,169.9,169.3,198.1,179.1,16.4
11.5,180.6,178.0,210.2,189.6,17.9
12.0,191.0,190.8,224.7,202.2,19.5
12.5,209.7,202.1,235.0,215.6,17.2
13.0,210.4,218.9,237.3,222.2,13.7
13.5,219.1,225.5,257.4,234.0,20.6
14.0,237.1,244.6,261.4,247.7,12.4
14.5,243.5,257.6,275.1,258.7,15.9
15.0,255.4,257.9,283.3,265.5,15.4
15.5,259.7,277.4,295.1,277.4,17.7
16.0,268.1,281.9,301.5,283.8,16.8
16.5,272.1,286.2,306.6,288.3,17.3
17.0,281.2,300.4,311.6,297.8,15.4
17.5,285.5,314.5,325.4,308.5,20.6
18.0,292.2,318.9,329.1,313.4,19.1
18.5,301.8,319.9,332.4,318.0,15.4
19.0,303.3,342.8,335.7,327.2,21.0
19.5,311.5,335.3,343.0,329.9,16.5
20.0,318.4,352.6,354.1,341.7,20.2
20.5,327.0,350.4,354.5,343.9,14.8
21.0,327.7,356.2,362.9,348.9,18.7
21.5,339.0,374.8,367.1,360.3,18.8
22.0,337.0,376.2,378.3,363.8,23.3
22.5,346.7,376.4,395.5,372.9,24.6
23.0,345.2,372.7,380.4,366.1,18.5
23.5,351.6,390.7,389.4,377.2,22.2
24.0,352.2,398.4,409.2,386.6,30.3
24.5,363.5,396.0,413.0,390.8,25.1
25.0,367.2,403.6,420.5,397.1,27.2
25.5,368.5,402.7,420.1,397.1,26.3
26.0,377.2,408.3,426.0,403.8,24.7
26.5,378.1,419.2,430.8,409.4,27.7
27.0,387.5,406.9,437.9,410.8,25.5
27.5,390.8,415.2,436.2,414.1,22.7
28.0,388.0,438.1,438.6,421.6,29.1
28.5,402.1,436.0,430.7,422.9,18.2
29.0,395.8,443.8,443.3,427.6,27.6
29.5,410.7,449.2,436.9,432.2,19.7
30.0,419.9,453.2,448.3,440.5,18.0
30.5,410.4,456.3,453.1,439.9,25.6
31.0,422.4,457.2,465.5,448.4,22.8
31.5,434.0,472.3,463.1,456.5,20.0
32.0,439.4,491.6,472.3,467.8,26.4
32.5,434.2,480.7,471.4,462.1,24.6
33.0,462.4,494.4,475.1,477.3,16.1
33.5,453.5,488.2,494.2,478.6,22.0
34.0,472.5,511.3,502.8,495.5,20.4
34.5,460.4,518.1,496.7,491.7,29.2
35.0,473.5,506.9,506.3,495.6,19.1
35.5,479.8,534.9,527.3,514.0,29.9
36.0,464.5,525.5,544.9,511.6,42.0
36.5,472.7,516.4,517.4,502.2,25.5
37.0,479.0,549.3,539.2,522.5,38.0
37.5,501.0,545.6,555.5,534.0,29.1
38.0,496.1,540.3,557.7,531.4,31.7
38.5,486.1,560.1,549.3,531.8,39.9
39.0,518.6,567.5,554.4,546.8,25.3
39.5,520.7,587.0,598.3,568.7,41.9
40.0,524.4,581.1,606.9,570.8,42.2
40.5,531.8,593.4,614.8,580.0,43.1
41.0,554.2,610.4,613.4,592.7,33.4
41.5,545.6,613.2,634.8,597.8,46.5
42.0,536.2,628.8,645.8,603.6,59.0
42.5,564.7,600.3,649.8,604.9,42.8
43.0,569.6,651.5,670.5,630.5,53.6
43.5,571.8,629.9,678.6,626.8,53.5
44.0,581.4,660.6,689.1,643.7,55.8
44.5,599.7,664.7,703.7,656.0,52.5
45.0,562.7,689.1,698.1,650.0,75.7
45.5,597.1,674.9,708.4,660.1,57.1
46.0,598.8,692.3,749.4,680.2,76.0
46.5,605.0,719.9,725.2,683.4,67.9
47.0,628.4,704.6,764.0,699.0,68.0
47.5,634.4,726.9,777.7,713.0,72.7
48.0,662.2,721.0,778.6,720.6,58.2
48.5,666.7,743.1,806.0,738.6,69.7
49.0,669.9,749.6,768.7,729.4,52.4
49.5,674.4,751.3,777.2,734.3,53.5
50.0,690.0,787.9,793.6,757.2,58.2
50.5,677.0,779.3,812.9,756.4,70.8
51.0,680.4,770.5,833.3,761.4,76.8
51.5,717.1,802.3,852.3,790.6,68.4
52.0,721.8,787.0,871.0,793.3,74.8
52.5,722.9,820.3,839.8,794.3,62.6
53.0,752.1,837.3,891.5,827.0,70.3
53.5,757.6,830.6,902.4,830.2,72.4
54.0,770.1,913.2,884.4,855.9,75.7
54.5,777.4,883.0,907.4,855.9,69.1
55.0,793.2,910.6,917.0,873.6,69.7
55.5,814.0,910.9,918.7,881.2,58.3
56.0,821.7,934.8,900.0,885.5,57.9
56.5,811.7,978.2,914.2,901.4,84.0
57.0,797.7,905.0,907.3,870.0,62.6
57.5,833.7,957.5,934.0,908.4,65.7
58.0,858.3,984.2,979.6,940.7,71.4
58.5,819.6,1022.7,976.3,939.5,106.4
59.0,843.3,974.4,982.7,933.5,78.2
59.5,834.9,984.7,1020.3,946.6,98.4
60.0,858.4,1010.6,1017.6,962.2,90.0
60.5,865.2,957.9,1025.3,949.5,80.4
61.0,894.9,1001.4,1040.5,978.9,75.3
61.5,931.5,1017.7,1071.6,1007.0,70.7
62.0,897.6,1072.1,1085.8,1018.5,104.9
62.5,910.3,1035.4,1126.9,1024.2,108.7
63.0,939.7,1104.3,1089.4,1044.5,91.0
63.5,920.3,1097.2,1194.8,1070.7,139.1
64.0,950.6,1030.9,1102.9,1028.1,76.2
64.5,969.8,1072.2,1129.1,1057.0,80.7
65.0,1019.9,1097.2,1095.6,1070.9,44.2
65.5,1038.1,1057.9,1178.3,1091.4,75.9
66.0,1066.9,1159.9,1113.5,1113.4,46.5
66.5,1027.5,1133.3,1142.6,1101.1,63.9
67.0,1041.5,1158.3,1157.1,1119.0,67.1
67.5,1044.0,1182.7,1174.8,1133.9,77.9
68.0,1133.2,1167.1,1222.9,1174.4,45.3
68.5,1151.9,1225.2,1157.3,1178.1,40.8
69.0,1152.2,1224.0,1308.6,1228.2,78.3
69.5,1095.7,1173.4,1318.3,1195.8,113.0
70.0,1100.2,1208.7,1207.3,1172.1,62.2
70.5,1127.0,1261.4,1269.5,1219.3,80.0
71.0,1163.0,1218.6,1400.8,1260.8,124.4
71.5,1129.5,1260.3,1366.0,1251.9,118.5
72.0,1205.7,1298.4,1362.3,1288.8,78.7
72.5,1146.4,1311.8,1348.1,1268.7,107.5
73.0,1111.5,1354.4,1353.4,1273.1,140.0
73.5,1258.2,1358.3,1373.1,1329.9,62.5
74.0,1172.6,1421.3,1433.5,1342.5,147.2
74.5,1236.7,1349.4,1426.2,1337.4,95.3
75.0,1287.2,1450.9,1506.6,1414.9,114.0
75.5,1254.7,1422.3,1527.1,1401.4,137.4
76.0,1316.1,1456.7,1393.4,1388.7,70.4
76.5,1254.3,1506.7,1376.5,1379.2,126.2
77.0,1354.3,1404.4,1559.0,1439.2,106.7
77.5,1312.5,1459.4,1456.1,1409.4,83.9
78.0,1273.1,1523.3,1415.0,1403.8,125.5
78.5,1303.2,1448.8,1450.9,1401.0,84.7
79.0,1390.3,1446.1,1486.8,1441.1,48.4
79.5,1293.2,1528.1,1491.2,1437.5,126.3
80.0,1275.1,1515.2,1557.0,1449.1,152.1
80.5,1236.0,1464.1,1481.6,1393.9,137.0
81.0,1262.3,1553.4,1452.9,1422.9,147.9
81.5,1221.1,1467.6,1373.9,1354.2,124.4
82.0,1405.8,1399.6,1404.4,1403.2,3.3
82.5,1364.9,1481.4,1353.8,1400.1,70.7
83.0,1320.8,1454.0,1357.8,1377.5,68.8
83.5,1305.3,1398.9,1374.0,1359.4,48.5
84.0,1430.9,1414.2,1264.4,1369.9,91.7
84.5,1379.3,1301.2,1346.3,1342.3,39.2
85.0,1411.4,1259.8,1243.1,1304.7,92.7
85.5,1392.5,1312.7,1298.8,1334.7,50.5
86.0,1312.1,1292.6,1224.6,1276.4,45.9
86.5,1363.3,1218.9,1178.5,1253.6,97.2
87.0,1351.6,1253.0,1132.1,1245.6,109.9
87.5,1374.7,1185.9,1060.2,1207.0,158.3
88.0,1313.8,1152.4,1081.8,1182.7,119.0
88.5,1291.1,1181.1,1046.4,1172.9,122.5
89.0,1240.3,1093.3,1029.2,1120.9,108.2
89.5,1209.4,1093.6,1011.3,1104.8,99.5
90.0,1211.0,1034.3,987.4,1077.6,117.9
90.5,1200.9,1006.7,985.2,1064.3,118.8
91.0,1127.6,975.1,940.3,1014.3,99.7
91.5,1103.6,947.6,924.5,991.9,97.4
92.0,1097.7,955.1,891.9,981.6,105.4
92.5,1034.0,902.6,864.0,933.6,89.1
93.0,1048.5,875.5,821.9,915.3,118.5
93.5,964.9,884.2,785.0,878.0,90.1
94.0,925.6,839.8,749.2,838.2,88.2
94.5,910.5,826.7,726.8,821.3,92.0
95.0,882.6,796.5,703.6,794.2,89.5
95.5,825.3,763.3,658.1,748.9,84.6
96.0,816.9,745.3,638.2,733.4,89.9
96.5,789.6,705.7,598.4,697.9,95.8
97.0,763.8,708.6,560.7,677.7,105.0
97.5,736.2,658.2,556.9,650.4,89.9
98.0,710.4,621.1,517.8,616.4,96.4
98.5,682.8,589.5,496.5,589.6,93.2
99.0,673.2,562.0,475.3,570.2,99.2
99.5,635.9,535.6,459.5,543.7,88.5
100.0,616.7,503.6,434.8,518.4,91.8
100.5,591.9,493.2,414.8,500.0,88.8
101.0,570.7,463.5,396.2,476.8,88.0
101.5,561.2,438.5,372.4,457.4,95.8
102.0,534.7,407.6,369.1,437.1,86.7
102.5,524.6,385.4,348.2,419.4,93.0
103.0,494.8,367.2,341.8,401.2,82.0
103.5,482.1,339.9,321.3,381.1,88.0
104.0,469.5,316.2,308.9,364.9,90.7
104.5,450.8,298.0,302.8,350.5,86.9
105.0,439.9,283.8,294.7,339.4,87.1
105.5,426.1,271.4,284.6,327.4,85.8
106.0,408.2,259.4,269.6,312.4,83.2
106.5,395.3,247.1,262.2,301.5,81.6
107.0,383.3,234.8,253.0,290.4,81.0
107.5,374.4,225.2,243.0,280.9,81.4
108.0,357.7,213.3,231.1,267.4,78.7
108.5,346.6,207.2,222.4,258.7,76.5
109.0,328.0,195.7,215.7,246.5,71.3
109.5,320.9,186.4,207.2,238.2,72.4
110.0,306.3,175.9,204.1,228.8,68.6
110.5,297.0,165.0,195.5,219.1,69.1
111.0,287.2,158.2,193.4,212.9,66.7
111.5,277.6,146.8,183.4,202.6,67.5
112.0,271.3,138.7,176.2,195.4,68.4
112.5,262.8,129.7,175.3,189.3,67.7
113.0,257.0,124.6,165.3,182.3,67.8
113.5,245.7,116.4,158.0,173.4,66.0
114.0,240.9,111.1,153.0,168.3,66.2
114.5,230.7,103.2,143.7,159.2,65.1
115.0,221.0,98.4,136.6,152.0,62.7
115.5,214.6,92.8,131.6,146.3,62.2
116.0,209.3,88.8,127.0,141.7,61.6
116.5,202.0,83.7,120.6,135.5,60.5
117.0,195.6,77.9,112.6,128.7,60.5
117.5,190.0,72.8,107.6,123.5,60.2
118.0,185.1,68.1,101.5,118.3,60.3
118.5,180.4,62.1,95.1,112.5,61.0
119.0,174.4,57.4,88.0,106.6,60.7
119.5,169.6,53.3,83.6,102.2,60.3
120.0,164.4,48.2,78.6,97.1,60.3
120.5,161.5,43.8,73.4,92.9,61.3
121.0,157.7,39.9,68.2,88.6,61.5
121.5,150.3,35.7,63.6,83.2,59.8
122.0,147.4,31.2,59.8,79.4,60.6
122.5,142.2,27.4,54.5,74.7,60.0
123.0,138.8,24.2,51.4,71.5,59.9
123.5,134.7,,47.6,91.2,61.6
124.0,129.1,,44.4,86.8,59.9
124.5,126.6,,40.3,83.4,61.0
125.0,125.2,,37.5,81.3,62.0
125.5,121.2,,34.2,77.7,61.5
126.0,118.9,,31.3,75.1,61.9
126.5,114.1,,28.8,71.5,60.3
127.0,113.7,,26.0,69.8,62.0
127.5,110.0,,23.6,66.8,61.1
128.0,108.2,,20.9,64.5,61.7
128.5,102.8,,18.7,60.7,59.4
129.0,101.8,,17.1,59.4,60.0
129.5,96.6,,,96.6,
130.0,94.1,,,94.1,
130.5,90.7,,,90.7,
131.0,87.9,,,87.9,
131.5,84.1,,,84.1,
132.0,81.6,,,81.6,
132.5,80.0,,,80.0,
133.0,76.6,,,76.6,
133.5,73.8,,,73.8,
134.0,71.0,,,71.0,
134.5,68.8,,,68.8,
135.0,65.7,,,65.7,
135.5,62.3,,,62.3,
136.0,59.3,,,59.3,
136.5,56.1,,,56.1,
137.0,55.1,,,55.1,
137.5,51.6,,,51.6,
138.0,49.8,,,49.8,
138.5,47.4,,,47.4,
139.0,44.9,,,44.9,
139.5,42.7,,,42.7,
140.0,40.2,,,40.2,
140.5,38.9,,,38.9,
141.0,36.7,,,36.7,
141.5,33.6,,,33.6,
142.0,32.0,,,32.0,
142.5,29.2,,,29.2,
142.75,28.3,,,28.3,

File: PETG_HRRPUA_50.csv
Time after Ignition,PETG_R1,PETG_R2,PETG_R3,Mean,Std. Dev.
0.0,5.0,2.9,1.0,3.0,2.0
0.5,7.2,7.7,2.9,5.9,2.6
1.0,10.9,11.7,9.3,10.6,1.3
1.5,15.5,22.0,14.3,17.3,4.1
2.0,26.2,31.0,25.0,27.4,3.2
2.5,35.0,44.9,32.9,37.6,6.4
3.0,48.0,55.6,40.4,48.0,7.6
3.5,58.3,71.7,51.1,60.3,10.4
4.0,70.0,85.8,63.9,73.2,11.3
4.5,84.5,95.2,79.0,86.2,8.2
5.0,94.8,104.3,89.0,96.0,7.7
5.5,109.8,117.2,92.9,106.6,12.5
6.0,124.2,128.8,108.0,120.3,11.0
6.5,134.9,145.3,121.0,133.7,12.2
7.0,149.8,149.4,138.7,146.0,6.3
7.5,161.5,167.0,147.4,158.6,10.2
8.0,180.1,177.9,162.9,173.6,9.4
8.5,186.3,200.6,176.1,187.7,12.3
9.0,206.1,216.2,187.1,203.1,14.8
9.5,220.5,231.8,201.7,218.0,15.2
10.0,234.2,246.1,217.1,232.5,14.6
10.5,253.1,269.1,226.0,249.4,21.8
11.0,265.4,281.6,239.2,262.0,21.4
11.5,280.4,295.0,250.1,275.2,22.9
12.0,293.3,307.8,274.9,292.0,16.5
12.5,295.6,322.8,288.4,302.2,18.1
13.0,326.8,323.2,306.8,319.0,10.7
13.5,322.2,324.4,310.2,318.9,7.7
14.0,343.4,344.2,331.2,339.6,7.3
14.5,350.3,351.1,342.7,348.0,4.6
15.0,376.3,358.3,365.5,366.7,9.1
15.5,381.7,371.9,374.7,376.1,5.1
16.0,395.1,384.9,388.6,389.5,5.2
16.5,414.6,395.0,398.6,402.8,10.4
17.0,422.6,420.1,404.8,415.8,9.6
17.5,426.4,419.7,425.1,423.7,3.5
18.0,439.5,425.1,432.1,432.2,7.2
18.5,460.8,441.3,431.0,444.4,15.1
19.0,465.9,461.3,457.2,461.4,4.4
19.5,493.7,471.7,442.3,469.2,25.8
20.0,475.5,482.3,462.0,473.3,10.3
20.5,489.3,479.5,472.3,480.3,8.5
21.0,491.5,496.2,486.8,491.5,4.7
21.5,511.8,508.0,493.3,504.3,9.8
22.0,513.0,528.6,509.8,517.2,10.1
22.5,517.2,546.0,535.9,533.1,14.6
23.0,542.6,547.9,570.1,553.6,14.6
23.5,544.7,563.1,566.8,558.2,11.8
24.0,562.1,552.7,556.5,557.1,4.7
24.5,573.8,599.7,630.3,601.3,28.3
25.0,608.4,598.2,641.6,616.1,22.7
25.5,574.2,654.4,646.8,625.2,44.3
26.0,642.6,666.8,670.4,659.9,15.1
26.5,638.3,658.2,710.0,668.8,37.0
27.0,640.1,667.1,706.0,671.1,33.1
27.5,658.1,723.3,727.6,703.0,38.9
28.0,680.3,711.8,762.2,718.1,41.3
28.5,707.4,706.3,813.6,742.4,61.6
29.0,761.1,765.3,838.2,788.2,43.3
29.5,776.9,827.1,849.9,817.9,37.4
30.0,801.8,826.6,860.2,829.5,29.3
30.5,851.2,884.3,932.3,889.3,40.8
31.0,842.3,845.7,917.4,868.5,42.4
31.5,897.4,865.1,920.9,894.4,28.0
32.0,923.9,965.2,967.3,952.1,24.5
32.5,946.9,954.4,982.9,961.4,19.0
33.0,961.0,953.4,1044.3,986.2,50.4
33.5,950.3,1026.5,1014.9,997.2,41.0
34.0,990.8,1022.7,1059.2,1024.3,34.3
34.5,994.8,1121.0,1179.0,1098.3,94.2
35.0,1074.6,1101.8,1135.6,1104.0,30.6
35.5,1105.1,1095.7,1265.9,1155.6,95.6
36.0,1076.4,1234.3,1324.3,1211.7,125.5
36.5,1157.9,1223.5,1302.6,1228.0,72.5
37.0,1174.5,1237.2,1393.6,1268.5,112.8
37.5,1188.1,1335.3,1351.4,1291.6,90.0
38.0,1269.6,1328.7,1426.5,1341.6,79.3
38.5,1302.3,1254.6,1439.2,1332.0,95.9
39.0,1341.1,1442.8,1415.5,1399.8,52.6
39.5,1466.8,1352.6,1525.2,1448.2,87.8
40.0,1432.0,1368.8,1553.9,1451.6,94.1
40.5,1453.2,1392.6,1549.6,1465.1,79.2
41.0,1537.3,1418.5,1531.9,1495.9,67.1
41.5,1486.6,1423.4,1651.2,1520.4,117.6
42.0,1531.2,1525.9,1571.7,1542.9,25.1
42.5,1447.1,1467.8,1545.0,1486.7,51.6
43.0,1598.2,1544.3,1660.8,1601.1,58.3
43.5,1597.4,1380.1,1619.0,1532.2,132.1
44.0,1574.3,1514.8,1580.5,1556.6,36.3
44.5,1922.3,1578.3,1885.4,1795.4,188.8
45.0,1763.9,1660.5,1659.5,1694.6,60.0
45.5,1784.9,1600.9,1594.4,1660.0,108.2
46.0,1771.6,1686.1,1843.8,1767.2,79.0
46.5,1929.9,1768.7,1971.3,1889.9,107.0
47.0,1720.2,1673.3,1835.7,1743.1,83.6
47.5,1983.8,1578.8,1836.1,1799.6,204.9
48.0,1782.7,1614.8,2205.2,1867.6,304.2
48.5,1622.5,1901.8,1701.3,1741.8,144.0
49.0,1778.0,1587.4,1976.6,1780.7,194.6
49.5,1790.7,1875.6,1802.7,1823.0,45.9
50.0,1793.7,1805.7,1817.8,1805.7,12.1
50.5,1937.7,1826.2,1850.4,1871.5,58.6
51.0,1963.7,1969.0,1743.9,1892.2,128.5
51.5,1848.5,1804.9,1820.0,1824.5,22.1
52.0,1963.1,1676.5,1816.4,1818.7,143.3
52.5,1909.1,1866.3,1926.5,1900.6,31.0
53.0,2037.8,1978.7,1811.7,1942.7,117.3
53.5,1830.6,2016.0,1729.2,1858.6,145.5
54.0,1897.3,1982.5,1880.3,1920.0,54.8
54.5,2025.5,2051.4,1762.1,1946.3,160.1
55.0,2105.8,1964.5,1776.5,1948.9,165.2
55.5,1966.3,2042.5,1783.3,1930.7,133.2
56.0,1900.2,1907.3,1829.7,1879.1,42.9
56.5,1808.4,2003.5,1876.5,1896.1,99.0
57.0,1978.3,1921.1,1781.2,1893.5,101.4
57.5,1870.2,1868.6,1625.4,1788.0,140.9
58.0,1842.6,1931.2,1553.7,1775.8,197.4
58.5,2071.9,1878.4,1598.2,1849.5,238.2
59.0,1846.7,1842.0,1545.0,1744.6,172.8
59.5,1741.3,1812.6,1558.0,1704.0,131.4
60.0,1890.2,1701.8,1458.8,1683.6,216.3
60.5,1649.1,1672.6,1479.2,1600.3,105.6
61.0,1707.8,1685.3,1428.4,1607.2,155.3
61.5,1620.6,1599.6,1401.2,1540.5,121.1
62.0,1565.1,1605.9,1379.9,1517.0,120.4
62.5,1494.7,1556.6,1391.7,1481.0,83.3
63.0,1564.2,1571.3,1318.2,1484.5,144.1
63.5,1481.2,1568.7,1265.3,1438.4,156.1
64.0,1539.7,1500.2,1249.5,1429.8,157.4
64.5,1496.4,1513.9,1190.9,1400.4,181.7
65.0,1447.1,1393.6,1182.8,1341.1,139.7
65.5,1331.6,1319.4,1199.3,1283.4,73.1
66.0,1394.6,1331.8,1169.8,1298.7,116.0
66.5,1339.7,1264.2,1142.4,1248.8,99.5
67.0,1351.1,1237.3,1073.3,1220.6,139.6
67.5,1276.0,1242.2,1124.4,1214.2,79.6
68.0,1178.4,1161.4,1070.3,1136.7,58.1
68.5,1209.1,1158.3,1022.1,1129.8,96.7
69.0,1141.2,1115.8,1007.2,1088.1,71.2
69.5,1058.9,1047.9,996.6,1034.5,33.2
70.0,1076.4,1031.3,928.9,1012.2,75.6
70.5,1067.7,958.1,910.3,978.7,80.7
71.0,970.9,928.1,882.4,927.1,44.3
71.5,950.9,863.5,835.5,883.3,60.2
72.0,909.2,850.8,818.0,859.3,46.2
72.5,877.2,771.6,777.8,808.9,59.3
73.0,823.5,723.4,751.9,766.3,51.6
73.5,761.1,690.9,737.5,729.8,35.7
74.0,718.1,669.8,713.5,700.4,26.7
74.5,675.3,639.5,690.1,668.3,26.0
75.0,651.6,615.3,663.6,643.5,25.2
75.5,604.5,583.0,625.1,604.2,21.1
76.0,572.4,562.7,617.4,584.2,29.2
76.5,545.9,528.2,588.5,554.2,31.0
77.0,506.2,497.2,568.2,523.9,38.7
77.5,479.7,486.3,540.5,502.2,33.4
78.0,455.3,453.1,515.1,474.5,35.2
78.5,428.2,435.8,477.6,447.2,26.6
79.0,399.5,394.1,449.6,414.4,30.6
79.5,372.7,375.5,432.2,393.5,33.6
80.0,353.2,362.1,410.3,375.2,30.7
80.5,328.1,345.0,380.4,351.2,26.7
81.0,309.1,322.8,355.7,329.2,23.9
81.5,294.9,302.7,343.0,313.6,25.8
82.0,270.1,290.0,324.0,294.7,27.3
82.5,259.8,274.2,304.2,279.4,22.7
83.0,233.7,263.5,288.5,261.9,27.4
83.5,217.0,250.7,274.3,247.3,28.8
84.0,196.7,237.7,256.1,230.2,30.4
84.5,183.2,226.6,242.4,217.4,30.6
85.0,166.9,214.9,228.8,203.5,32.4
85.5,150.4,204.4,216.0,190.3,35.0
86.0,135.9,188.9,201.2,175.3,34.7
86.5,124.0,180.5,190.8,165.1,36.0
87.0,112.9,170.0,177.7,153.5,35.4
87.5,100.8,160.5,167.0,142.8,36.5
88.0,93.5,150.4,157.4,133.8,35.0
88.5,83.9,141.4,147.2,124.2,35.0
89.0,76.1,135.0,135.8,115.6,34.2
89.5,70.6,123.2,127.6,107.1,31.7
90.0,65.7,115.1,115.8,98.9,28.7
90.5,59.9,107.1,106.1,91.0,27.0
91.0,54.5,99.6,96.4,83.5,25.2
91.5,49.6,88.5,87.3,75.1,22.1
92.0,45.5,82.4,80.7,69.5,20.8
92.5,43.5,77.2,73.8,64.9,18.6

File: PETG_HRRPUA_75.csv
Time after Ignition,PETG_R1,PETG_R2,PETG_R3,Mean,Std. Dev.
0.0,13.7,13.2,13.2,13.4,0.3
0.5,19.8,19.1,14.3,17.8,3.0
1.0,38.4,24.1,19.1,27.2,10.0
1.5,52.0,32.8,23.1,35.9,14.7
2.0,69.9,45.6,33.3,49.6,18.6
2.5,88.6,59.4,46.3,64.8,21.7
3.0,104.5,75.6,62.5,80.9,21.5
3.5,127.1,95.5,81.5,101.4,23.4
4.0,144.1,112.4,100.4,119.0,22.6
4.5,160.9,126.0,119.5,135.5,22.2
5.0,178.1,142.7,137.9,152.9,21.9
5.5,194.2,158.2,154.9,169.1,21.8
6.0,214.4,172.5,163.5,183.5,27.1
6.5,231.8,187.3,179.0,199.4,28.4
7.0,254.0,205.6,192.7,217.4,32.3
7.5,272.8,222.7,209.3,234.9,33.5
8.0,297.3,237.3,226.3,253.6,38.2
8.5,320.1,256.4,229.3,268.6,46.6
9.0,324.6,280.5,247.8,284.3,38.6
9.5,351.1,304.8,253.0,302.9,49.1
10.0,376.9,316.1,273.8,322.2,51.9
10.5,396.5,341.0,293.8,343.8,51.4
11.0,425.6,359.3,313.0,366.0,56.6
11.5,416.6,362.8,330.9,370.1,43.3
12.0,447.9,380.9,345.0,391.3,52.2
12.5,486.6,374.6,372.6,411.3,65.2
13.0,527.8,414.7,372.6,438.4,80.2
13.5,524.5,429.3,394.5,449.4,67.3
14.0,558.8,439.4,390.3,462.8,86.7
14.5,586.7,453.3,421.5,487.2,87.6
15.0,647.1,498.7,432.2,526.0,110.0
15.5,645.8,508.2,459.9,537.9,96.5
16.0,652.3,561.4,484.9,566.2,83.8
16.5,703.5,579.0,498.8,593.8,103.2
17.0,713.5,592.2,524.4,610.1,95.8
17.5,746.0,585.6,548.8,626.8,104.9
18.0,753.6,618.2,572.8,648.2,94.1
18.5,774.4,645.9,596.5,672.3,91.8
19.0,792.9,666.4,618.1,692.5,90.3
19.5,809.5,667.5,615.6,697.5,100.4
20.0,795.7,706.8,662.3,721.6,67.9
20.5,842.1,725.2,674.5,747.3,85.9
21.0,865.7,732.3,672.9,757.0,98.7
21.5,877.1,753.3,695.4,775.3,92.8
22.0,910.2,751.5,711.1,790.9,105.2
22.5,938.1,781.9,742.6,820.8,103.4
23.0,1011.6,868.9,730.3,870.3,140.7
23.5,1029.4,867.2,791.3,896.0,121.6
24.0,1059.6,900.1,804.8,921.5,128.7
24.5,1159.6,975.3,816.1,983.7,171.9
25.0,1131.4,883.9,867.5,960.9,147.9
25.5,1147.0,910.3,886.3,981.2,144.1
26.0,1133.1,1029.5,902.2,1021.6,115.6
26.5,1184.4,1063.5,924.7,1057.5,130.0
27.0,1206.1,1011.5,934.5,1050.7,140.0
27.5,1214.6,1057.1,988.6,1086.8,115.9
28.0,1531.6,1062.3,996.7,1196.9,291.7
28.5,1382.1,1161.4,1022.6,1188.7,181.3
29.0,1332.7,1105.1,984.3,1140.7,176.9
29.5,1380.2,1243.8,946.6,1190.2,221.7
30.0,1482.8,1296.0,1088.3,1289.1,197.4
30.5,1383.6,1305.1,1087.4,1258.7,153.4
31.0,1530.9,1371.3,1162.6,1355.0,184.7
31.5,1581.3,1421.6,1167.2,1390.0,208.9
32.0,1502.1,1365.1,1212.7,1359.9,144.8
32.5,1861.3,1347.9,1313.1,1507.4,306.9
33.0,1886.6,1416.3,1401.8,1568.2,275.8
33.5,1933.5,1393.2,1264.5,1530.4,355.0
34.0,1769.1,1633.5,1314.2,1572.2,233.5
34.5,2086.6,1918.0,1373.3,1792.6,372.8
35.0,1836.2,1801.6,1483.9,1707.2,194.2
35.5,2167.1,1737.1,1537.6,1813.9,321.7
36.0,2356.3,1682.7,1554.0,1864.3,430.9
36.5,2004.2,2063.7,1661.0,1909.7,217.4
37.0,2042.3,1987.5,1611.5,1880.4,234.5
37.5,2180.0,1969.3,1590.7,1913.3,298.6
38.0,2009.5,1773.3,2003.4,1928.7,134.6
38.5,2172.9,2031.5,1704.6,1969.7,240.2
39.0,2265.4,1867.9,1887.4,2006.9,224.1
39.5,1869.7,2151.7,1856.9,1959.4,166.6
40.0,2395.1,2575.2,2235.1,2401.8,170.2
40.5,2290.3,2325.5,2135.7,2250.5,101.0
41.0,2169.5,2186.8,2079.6,2145.3,57.5
41.5,2606.6,1820.2,2152.1,2193.0,394.7
42.0,2015.4,2202.3,2305.5,2174.4,147.0
42.5,2041.5,1941.2,2099.6,2027.4,80.1
43.0,1979.3,2360.7,1985.6,2108.5,218.4
43.5,1981.7,2540.0,2127.1,2216.3,289.6
44.0,2214.4,1826.3,2135.7,2058.8,205.1
44.5,2320.1,2237.3,2112.6,2223.3,104.5
45.0,2158.6,2158.8,1974.0,2097.1,106.6
45.5,2309.4,2322.2,1872.7,2168.1,255.9
46.0,2187.7,1928.8,2020.0,2045.5,131.3
46.5,2258.6,2047.0,1946.7,2084.1,159.2
47.0,2169.6,1976.3,2231.9,2125.9,133.3
47.5,1933.4,1905.8,1980.6,1939.9,37.8
48.0,2107.9,2000.7,2062.6,2057.1,53.8
48.5,2172.3,2286.2,2041.9,2166.8,122.2
49.0,1947.8,2227.2,1756.2,1977.0,236.9
49.5,1899.0,2085.8,2171.8,2052.2,139.5
50.0,1944.8,1837.4,1836.4,1872.9,62.3
50.5,1905.4,2167.6,2136.9,2070.0,143.4
51.0,1861.7,2028.1,1754.0,1881.2,138.1
51.5,1847.1,1949.5,2029.6,1942.1,91.5
52.0,1757.7,1895.4,1976.5,1876.5,110.6
52.5,1832.4,1963.5,1901.8,1899.2,65.6
53.0,1661.2,1797.9,1765.6,1741.6,71.4
53.5,1713.9,1766.3,1880.4,1786.8,85.1
54.0,1645.2,1856.1,1802.2,1767.8,109.6
54.5,1489.0,1827.2,1845.4,1720.5,200.7
55.0,1446.0,1723.0,1716.5,1628.5,158.1
55.5,1379.9,1682.3,1741.9,1601.4,194.1
56.0,1301.8,1660.1,1590.9,1517.6,190.1
56.5,1279.8,1555.8,1821.3,1552.3,270.8
57.0,1184.7,1573.0,1632.2,1463.3,243.1
57.5,1124.6,1525.3,1580.5,1410.1,248.8
58.0,1111.8,1437.8,1516.5,1355.4,214.6
58.5,1047.6,1431.4,1490.6,1323.2,240.5
59.0,962.9,1269.2,1462.9,1231.7,252.1
59.5,951.4,1341.8,1350.1,1214.4,227.9
60.0,945.2,1209.7,1355.4,1170.1,207.9
60.5,888.7,1177.6,1390.5,1152.3,251.9
61.0,841.3,1149.2,1290.8,1093.8,229.8
61.5,825.3,1090.7,1303.9,1073.3,239.8
62.0,780.5,1041.9,1249.5,1024.0,235.0
62.5,757.9,1012.1,1211.4,993.8,227.3
63.0,717.5,960.1,1155.4,944.3,219.4
63.5,695.7,914.9,1132.8,914.5,218.6
64.0,661.3,854.5,1075.7,863.8,207.3
64.5,631.8,803.9,1023.2,819.7,196.2
65.0,610.9,740.3,983.4,778.2,189.1
65.5,566.2,699.3,937.6,734.4,188.2
66.0,536.4,643.1,893.8,691.1,183.5
66.5,504.7,601.6,854.5,653.6,180.6
67.0,475.7,567.5,795.0,612.7,164.4
67.5,452.7,526.5,767.7,582.3,164.8
68.0,424.6,488.6,716.8,543.3,153.6
68.5,391.4,453.9,672.2,505.8,147.4
69.0,350.6,417.1,635.3,467.7,148.9
69.5,321.0,384.6,593.6,433.1,142.6
70.0,286.3,361.0,555.0,400.8,138.7
70.5,259.7,331.1,512.3,367.7,130.2
71.0,234.6,297.9,474.9,335.8,124.5
71.5,216.2,272.8,425.9,305.0,108.5
72.0,194.8,248.2,381.8,274.9,96.3
72.5,178.5,226.7,345.4,250.2,85.9
73.0,163.5,201.2,313.9,226.2,78.3
73.5,154.1,187.4,279.5,207.0,64.9
74.0,142.3,170.2,256.9,189.8,59.7
74.5,132.6,154.8,235.6,174.4,54.2
75.0,126.0,142.0,216.6,161.5,48.4
75.5,117.3,131.6,,124.4,10.1
76.0,108.5,120.9,,114.7,8.8
76.5,102.5,,,102.5,
77.0,97.2,,,97.2,
77.5,89.7,,,89.7,
78.0,86.3,,,86.3,
78.5,80.5,,,80.5,
79.0,75.8,,,75.8,
79.5,71.6,,,71.6,
80.0,67.1,,,67.1,
80.5,63.4,,,63.4,
81.0,60.4,,,60.4,