Folder: fsri_materials_database/01_Data/Homasote/FTIR/IS (part 2)

File: Homasote_IS_S_221031_R5.dpt
7497.03,0.58211
7473.89,0.57090
7450.74,0.59002
7427.6,0.58864
7404.45,0.56647
7381.31,0.58284
7358.16,0.58038
7335.02,0.57095
7311.87,0.57829
7288.73,0.57850
7265.58,0.57256
7242.44,0.57908
7219.29,0.56952
7196.15,0.58175
7173,0.57467
7149.86,0.57167
7126.71,0.58034
7103.57,0.57363
7080.42,0.56481
7057.28,0.55697
7034.13,0.56066
7010.99,0.55770
6987.84,0.55788
6964.7,0.55618
6941.55,0.55078
6918.41,0.55316
6895.26,0.54657
6872.12,0.54476
6848.97,0.55362
6825.83,0.54060
6802.68,0.54386
6779.54,0.54880
6756.39,0.55024
6733.25,0.54738
6710.1,0.54126
6686.96,0.54249
6663.82,0.55057
6640.67,0.54990
6617.53,0.55436
6594.38,0.55455
6571.24,0.54503
6548.09,0.55324
6524.95,0.55144
6501.8,0.54922
6478.66,0.55307
6455.51,0.55018
6432.37,0.55158
6409.22,0.55275
6386.08,0.55408
6362.93,0.55748
6339.79,0.55772
6316.64,0.55560
6293.5,0.55642
6270.35,0.55486
6247.21,0.55800
6224.06,0.56179
6200.92,0.56334
6177.77,0.56820
6154.63,0.56832
6131.48,0.56844
6108.34,0.57212
6085.19,0.57012
6062.05,0.57093
6038.9,0.56871
6015.76,0.57390
5992.61,0.57494
5969.47,0.57213
5946.32,0.57240
5923.18,0.57110
5900.03,0.56873
5876.89,0.56910
5853.74,0.56941
5830.6,0.56861
5807.45,0.56621
5784.31,0.56537
5761.16,0.56798
5738.02,0.56743
5714.87,0.56825
5691.73,0.56775
5668.58,0.56765
5645.44,0.56556
5622.29,0.56674
5599.15,0.56651
5576,0.56889
5552.86,0.56740
5529.71,0.56874
5506.57,0.56947
5483.42,0.56880
5460.28,0.56996
5437.13,0.57231
5413.99,0.57349
5390.84,0.57426
5367.7,0.57419
5344.55,0.57384
5321.41,0.57014
5298.26,0.56362
5275.12,0.55114
5251.97,0.53138
5228.83,0.51387
5205.68,0.50159
5182.54,0.50569
5159.39,0.50683
5136.25,0.51391
5113.1,0.52048
5089.96,0.52602
5066.81,0.53154
5043.67,0.53507
5020.52,0.54085
4997.38,0.54310
4974.23,0.54270
4951.09,0.53995
4927.94,0.53169
4904.8,0.52191
4881.65,0.50998
4858.51,0.49837
4835.36,0.48695
4812.22,0.47788
4789.07,0.47088
4765.93,0.46795
4742.78,0.46536
4719.64,0.46667
4696.49,0.47208
4673.35,0.47721
4650.2,0.48214
4627.06,0.48670
4603.92,0.49245
4580.77,0.49901
4557.63,0.50361
4534.48,0.50586
4511.34,0.50996
4488.19,0.50950
4465.05,0.50167
4441.9,0.48747
4418.76,0.46918
4395.61,0.45497
4372.47,0.45966
4349.32,0.45698
4326.18,0.44702
4303.03,0.44204
4279.89,0.43556
4256.74,0.43622
4233.6,0.44006
4210.45,0.44098
4187.31,0.44223
4164.16,0.44410
4141.02,0.43864
4117.87,0.42754
4094.73,0.40936
4071.58,0.39018
4048.44,0.36823
4025.29,0.35373
4002.15,0.35475
3979,0.36308
3955.86,0.37036
3932.71,0.38044
3909.57,0.39059
3886.42,0.39880
3863.28,0.40681
3840.13,0.41526
3816.99,0.41444
3793.84,0.41164
3770.7,0.40568
3747.55,0.39217
3724.41,0.36008
3701.26,0.23382
3678.12,0.23032
3654.97,0.16312
3631.83,0.12197
3608.68,0.09295
3585.54,0.07982
3562.39,0.06448
3539.25,0.05749
3516.1,0.05144
3492.96,0.04736
3469.81,0.04374
3446.67,0.04183
3423.52,0.04158
3400.38,0.04134
3377.23,0.04166
3354.09,0.04276
3330.94,0.04559
3307.8,0.04682
3284.65,0.04984
3261.51,0.05296
3238.36,0.05735
3215.22,0.06131
3192.07,0.06725
3168.93,0.07198
3145.78,0.07854
3122.64,0.08523
3099.49,0.09220
3076.35,0.09944
3053.2,0.10668
3030.06,0.11331
3006.91,0.11498
2983.77,0.10670
2960.62,0.08601
2937.48,0.07397
2914.33,0.06654
2891.19,0.07419
2868.04,0.08150
2844.9,0.09137
2821.75,0.11801
2798.61,0.13389
2775.46,0.14046
2752.32,0.14503
2729.17,0.14754
2706.03,0.15548
2682.88,0.16497
2659.74,0.17177
2636.59,0.17969
2613.45,0.18662
2590.3,0.19199
2567.16,0.19524
2544.02,0.19553
2520.87,0.19424
2497.73,0.20763
2474.58,0.22362
2451.44,0.23446
2428.29,0.24663
2405.15,0.25822
2382,0.26733
2358.86,0.27545
2335.71,0.28105
2312.57,0.28524
2289.42,0.28489
2266.28,0.28187
2243.13,0.27587
2219.99,0.27404
2196.84,0.27338
2173.7,0.26186
2150.55,0.24939
2127.41,0.24745
2104.26,0.25625
2081.12,0.26175
2057.97,0.26125
2034.83,0.26620
2011.68,0.27843
1988.54,0.28519
1965.39,0.28755
1942.25,0.29087
1919.1,0.29435
1895.96,0.29381
1872.81,0.28993
1849.67,0.28048
1826.52,0.25964
1803.38,0.20609
1780.23,0.14654
1757.09,0.10447
1733.94,0.07948
1710.8,0.07773
1687.65,0.07931
1664.51,0.07186
1641.36,0.06843
1618.22,0.06521
1595.07,0.07043
1571.93,0.08880
1548.78,0.10169
1525.64,0.08889
1502.49,0.07335
1479.35,0.06215
1456.2,0.05267
1433.06,0.05017
1409.91,0.05853
1386.77,0.05605
1363.62,0.05356
1340.48,0.05376
1317.33,0.05232
1294.19,0.05657
1271.04,0.05545
1247.9,0.05597
1224.75,0.05733
1201.61,0.05330
1178.46,0.04825
1155.32,0.05556
1132.17,0.04591
1109.03,0.04981
1085.88,0.04929
1062.74,0.06428
1039.59,0.06812
1016.45,0.07447
993.304,0.08130
970.159,0.09981
947.014,0.11537
923.869,0.11080
900.724,0.10264
877.579,0.10424
854.434,0.11934
831.289,0.11681
808.144,0.10353
784.999,0.09443
761.854,0.08494
738.709,0.07982
715.565,0.06652
692.42,0.06475
669.275,0.06046
646.13,0.06144
622.985,0.05799
599.84,0.06414

File: Homasote_IS_S_221031_R6.dpt
7497.03,0.59313
7473.89,0.59483
7450.74,0.57803
7427.6,0.58514
7404.45,0.58154
7381.31,0.58294
7358.16,0.58502
7335.02,0.58031
7311.87,0.58453
7288.73,0.59198
7265.58,0.58295
7242.44,0.58876
7219.29,0.57558
7196.15,0.57745
7173,0.57195
7149.86,0.57720
7126.71,0.57101
7103.57,0.56705
7080.42,0.56768
7057.28,0.56054
7034.13,0.56357
7010.99,0.55834
6987.84,0.55748
6964.7,0.55495
6941.55,0.55899
6918.41,0.54806
6895.26,0.54974
6872.12,0.54019
6848.97,0.54688
6825.83,0.54196
6802.68,0.54849
6779.54,0.54590
6756.39,0.54472
6733.25,0.54343
6710.1,0.53927
6686.96,0.54568
6663.82,0.54628
6640.67,0.54649
6617.53,0.54915
6594.38,0.55125
6571.24,0.54937
6548.09,0.55101
6524.95,0.55451
6501.8,0.54967
6478.66,0.55071
6455.51,0.54896
6432.37,0.55526
6409.22,0.55496
6386.08,0.55354
6362.93,0.55417
6339.79,0.55741
6316.64,0.55789
6293.5,0.55396
6270.35,0.55997
6247.21,0.56341
6224.06,0.56035
6200.92,0.56311
6177.77,0.56433
6154.63,0.56789
6131.48,0.57018
6108.34,0.56944
6085.19,0.57238
6062.05,0.57188
6038.9,0.57620
6015.76,0.57209
5992.61,0.57187
5969.47,0.57356
5946.32,0.57244
5923.18,0.57042
5900.03,0.56783
5876.89,0.56975
5853.74,0.57081
5830.6,0.56838
5807.45,0.56430
5784.31,0.56720
5761.16,0.56762
5738.02,0.56521
5714.87,0.56697
5691.73,0.56753
5668.58,0.56795
5645.44,0.56570
5622.29,0.56699
5599.15,0.56779
5576,0.56519
5552.86,0.56978
5529.71,0.56912
5506.57,0.56766
5483.42,0.56852
5460.28,0.57126
5437.13,0.57180
5413.99,0.57178
5390.84,0.57378
5367.7,0.57425
5344.55,0.57347
5321.41,0.57041
5298.26,0.56486
5275.12,0.55229
5251.97,0.53288
5228.83,0.51296
5205.68,0.50158
5182.54,0.50409
5159.39,0.50834
5136.25,0.51454
5113.1,0.52029
5089.96,0.52765
5066.81,0.53246
5043.67,0.53667
5020.52,0.53963
4997.38,0.54264
4974.23,0.54291
4951.09,0.53944
4927.94,0.53172
4904.8,0.52329
4881.65,0.51109
4858.51,0.49880
4835.36,0.48722
4812.22,0.47731
4789.07,0.47078
4765.93,0.46788
4742.78,0.46466
4719.64,0.46745
4696.49,0.47188
4673.35,0.47839
4650.2,0.48246
4627.06,0.48684
4603.92,0.49364
4580.77,0.49993
4557.63,0.50347
4534.48,0.50526
4511.34,0.51038
4488.19,0.50961
4465.05,0.50198
4441.9,0.48771
4418.76,0.46857
4395.61,0.45515
4372.47,0.45905
4349.32,0.45749
4326.18,0.44527
4303.03,0.44186
4279.89,0.43602
4256.74,0.43596
4233.6,0.44005
4210.45,0.44135
4187.31,0.44342
4164.16,0.44469
4141.02,0.43912
4117.87,0.42826
4094.73,0.40905
4071.58,0.38892
4048.44,0.36878
4025.29,0.35409
4002.15,0.35554
3979,0.36261
3955.86,0.37066
3932.71,0.38067
3909.57,0.39047
3886.42,0.39898
3863.28,0.40706
3840.13,0.41504
3816.99,0.41556
3793.84,0.41267
3770.7,0.40668
3747.55,0.39308
3724.41,0.36052
3701.26,0.23370
3678.12,0.23028
3654.97,0.16347
3631.83,0.12213
3608.68,0.09282
3585.54,0.07954
3562.39,0.06420
3539.25,0.05730
3516.1,0.05165
3492.96,0.04665
3469.81,0.04429
3446.67,0.04301
3423.52,0.04154
3400.38,0.04150
3377.23,0.04186
3354.09,0.04234
3330.94,0.04502
3307.8,0.04717
3284.65,0.04961
3261.51,0.05271
3238.36,0.05773
3215.22,0.06191
3192.07,0.06701
3168.93,0.07259
3145.78,0.07915
3122.64,0.08533
3099.49,0.09296
3076.35,0.09971
3053.2,0.10757
3030.06,0.11364
3006.91,0.11553
2983.77,0.10665
2960.62,0.08611
2937.48,0.07367
2914.33,0.06695
2891.19,0.07410
2868.04,0.08145
2844.9,0.09134
2821.75,0.11816
2798.61,0.13423
2775.46,0.14123
2752.32,0.14476
2729.17,0.14817
2706.03,0.15581
2682.88,0.16510
2659.74,0.17238
2636.59,0.17945
2613.45,0.18658
2590.3,0.19238
2567.16,0.19536
2544.02,0.19566
2520.87,0.19476
2497.73,0.20742
2474.58,0.22337
2451.44,0.23506
2428.29,0.24691
2405.15,0.25841
2382,0.26743
2358.86,0.27546
2335.71,0.28165
2312.57,0.28582
2289.42,0.28549
2266.28,0.28221
2243.13,0.27649
2219.99,0.27462
2196.84,0.27392
2173.7,0.26225
2150.55,0.25019
2127.41,0.24771
2104.26,0.25692
2081.12,0.26215
2057.97,0.26179
2034.83,0.26662
2011.68,0.27904
1988.54,0.28551
1965.39,0.28785
1942.25,0.29148
1919.1,0.29498
1895.96,0.29427
1872.81,0.29037
1849.67,0.28088
1826.52,0.25997
1803.38,0.20610
1780.23,0.14679
1757.09,0.10427
1733.94,0.07969
1710.8,0.07786
1687.65,0.07918
1664.51,0.07181
1641.36,0.06820
1618.22,0.06503
1595.07,0.07007
1571.93,0.08870
1548.78,0.10148
1525.64,0.08886
1502.49,0.07313
1479.35,0.06189
1456.2,0.05206
1433.06,0.05028
1409.91,0.05807
1386.77,0.05620
1363.62,0.05373
1340.48,0.05328
1317.33,0.05228
1294.19,0.05695
1271.04,0.05532
1247.9,0.05612
1224.75,0.05745
1201.61,0.05323
1178.46,0.04792
1155.32,0.05627
1132.17,0.04627
1109.03,0.05035
1085.88,0.04932
1062.74,0.06496
1039.59,0.06764
1016.45,0.07427
993.304,0.08138
970.159,0.10005
947.014,0.11524
923.869,0.11138
900.724,0.10335
877.579,0.10495
854.434,0.11918
831.289,0.11688
808.144,0.10342
784.999,0.09495
761.854,0.08545
738.709,0.07922
715.565,0.06676
692.42,0.06565
669.275,0.06004
646.13,0.06036
622.985,0.05907
599.84,0.06285

File: Homasote_IS_S_221031_R7.dpt
7497.03,0.58052
7473.89,0.58699
7450.74,0.57830
7427.6,0.58245
7404.45,0.57831
7381.31,0.58708
7358.16,0.57417
7335.02,0.56983
7311.87,0.58000
7288.73,0.57708
7265.58,0.57620
7242.44,0.58238
7219.29,0.58117
7196.15,0.57728
7173,0.57750
7149.86,0.57801
7126.71,0.57720
7103.57,0.56959
7080.42,0.56782
7057.28,0.56503
7034.13,0.55942
7010.99,0.56093
6987.84,0.55607
6964.7,0.55194
6941.55,0.55228
6918.41,0.54996
6895.26,0.55040
6872.12,0.54663
6848.97,0.54770
6825.83,0.54476
6802.68,0.53906
6779.54,0.54707
6756.39,0.54323
6733.25,0.54263
6710.1,0.54387
6686.96,0.54004
6663.82,0.54128
6640.67,0.54799
6617.53,0.54596
6594.38,0.55157
6571.24,0.55245
6548.09,0.54807
6524.95,0.54725
6501.8,0.55053
6478.66,0.55563
6455.51,0.55425
6432.37,0.55339
6409.22,0.55438
6386.08,0.55655
6362.93,0.55463
6339.79,0.55613
6316.64,0.55289
6293.5,0.55557
6270.35,0.55644
6247.21,0.56213
6224.06,0.56460
6200.92,0.56359
6177.77,0.56432
6154.63,0.56684
6131.48,0.56880
6108.34,0.56885
6085.19,0.57038
6062.05,0.57430
6038.9,0.57059
6015.76,0.57183
5992.61,0.57029
5969.47,0.57387
5946.32,0.57167
5923.18,0.57062
5900.03,0.57151
5876.89,0.56786
5853.74,0.57094
5830.6,0.56934
5807.45,0.56753
5784.31,0.56458
5761.16,0.56502
5738.02,0.56649
5714.87,0.57065
5691.73,0.56829
5668.58,0.56591
5645.44,0.56457
5622.29,0.56645
5599.15,0.56731
5576,0.56777
5552.86,0.56923
5529.71,0.56844
5506.57,0.56768
5483.42,0.56965
5460.28,0.56910
5437.13,0.57144
5413.99,0.57327
5390.84,0.57292
5367.7,0.57501
5344.55,0.57328
5321.41,0.57025
5298.26,0.56467
5275.12,0.55215
5251.97,0.53286
5228.83,0.51449
5205.68,0.50284
5182.54,0.50513
5159.39,0.50905
5136.25,0.51318
5113.1,0.52253
5089.96,0.52748
5066.81,0.53127
5043.67,0.53657
5020.52,0.54126
4997.38,0.54337
4974.23,0.54170
4951.09,0.53991
4927.94,0.53261
4904.8,0.52174
4881.65,0.51143
4858.51,0.49840
4835.36,0.48749
4812.22,0.47838
4789.07,0.47036
4765.93,0.46743
4742.78,0.46414
4719.64,0.46750
4696.49,0.47260
4673.35,0.47639
4650.2,0.48083
4627.06,0.48697
4603.92,0.49399
4580.77,0.49916
4557.63,0.50349
4534.48,0.50480
4511.34,0.51012
4488.19,0.50926
4465.05,0.50226
4441.9,0.48767
4418.76,0.46878
4395.61,0.45535
4372.47,0.45894
4349.32,0.45709
4326.18,0.44642
4303.03,0.44110
4279.89,0.43532
4256.74,0.43611
4233.6,0.43959
4210.45,0.44142
4187.31,0.44314
4164.16,0.44395
4141.02,0.43789
4117.87,0.42795
4094.73,0.40961
4071.58,0.39007
4048.44,0.36846
4025.29,0.35352
4002.15,0.35540
3979,0.36273
3955.86,0.37037
3932.71,0.38033
3909.57,0.39127
3886.42,0.39898
3863.28,0.40723
3840.13,0.41464
3816.99,0.41560
3793.84,0.41311
3770.7,0.40661
3747.55,0.39282
3724.41,0.36096
3701.26,0.23451
3678.12,0.23093
3654.97,0.16395
3631.83,0.12213
3608.68,0.09341
3585.54,0.07962
3562.39,0.06468
3539.25,0.05732
3516.1,0.05132
3492.96,0.04736
3469.81,0.04420
3446.67,0.04217
3423.52,0.04145
3400.38,0.04149
3377.23,0.04149
3354.09,0.04310
3330.94,0.04499
3307.8,0.04727
3284.65,0.04966
3261.51,0.05359
3238.36,0.05768
3215.22,0.06182
3192.07,0.06692
3168.93,0.07290
3145.78,0.07876
3122.64,0.08616
3099.49,0.09262
3076.35,0.09998
3053.2,0.10748
3030.06,0.11368
3006.91,0.11576
2983.77,0.10667
2960.62,0.08654
2937.48,0.07376
2914.33,0.06687
2891.19,0.07458
2868.04,0.08176
2844.9,0.09146
2821.75,0.11836
2798.61,0.13385
2775.46,0.14127
2752.32,0.14471
2729.17,0.14834
2706.03,0.15556
2682.88,0.16545
2659.74,0.17217
2636.59,0.17968
2613.45,0.18654
2590.3,0.19220
2567.16,0.19605
2544.02,0.19592
2520.87,0.19451
2497.73,0.20753
2474.58,0.22375
2451.44,0.23482
2428.29,0.24670
2405.15,0.25861
2382,0.26780
2358.86,0.27573
2335.71,0.28156
2312.57,0.28646
2289.42,0.28562
2266.28,0.28242
2243.13,0.27639
2219.99,0.27500
2196.84,0.27417
2173.7,0.26279
2150.55,0.25029
2127.41,0.24788
2104.26,0.25706
2081.12,0.26252
2057.97,0.26224
2034.83,0.26700
2011.68,0.27936
1988.54,0.28594
1965.39,0.28774
1942.25,0.29205
1919.1,0.29503
1895.96,0.29451
1872.81,0.29050
1849.67,0.28095
1826.52,0.25988
1803.38,0.20649
1780.23,0.14654
1757.09,0.10425
1733.94,0.07981
1710.8,0.07806
1687.65,0.07929
1664.51,0.07196
1641.36,0.06879
1618.22,0.06505
1595.07,0.07021
1571.93,0.08844
1548.78,0.10177
1525.64,0.08864
1502.49,0.07273
1479.35,0.06222
1456.2,0.05211
1433.06,0.05061
1409.91,0.05797
1386.77,0.05660
1363.62,0.05356
1340.48,0.05375
1317.33,0.05248
1294.19,0.05666
1271.04,0.05516
1247.9,0.05571
1224.75,0.05771
1201.61,0.05363
1178.46,0.04808
1155.32,0.05601
1132.17,0.04641
1109.03,0.05048
1085.88,0.05025
1062.74,0.06427
1039.59,0.06740
1016.45,0.07433
993.304,0.08119
970.159,0.10001
947.014,0.11563
923.869,0.11089
900.724,0.10311
877.579,0.10471
854.434,0.11919
831.289,0.11660
808.144,0.10436
784.999,0.09417
761.854,0.08600
738.709,0.07876
715.565,0.06699
692.42,0.06566
669.275,0.06120
646.13,0.06170
622.985,0.05665
599.84,0.06441

File: Homasote_IS_S_221031_R8.dpt
7497.03,0.58578
7473.89,0.57967
7450.74,0.58389
7427.6,0.57158
7404.45,0.58092
7381.31,0.58608
7358.16,0.58522
7335.02,0.57605
7311.87,0.57481
7288.73,0.57637
7265.58,0.57498
7242.44,0.58111
7219.29,0.58348
7196.15,0.56865
7173,0.57753
7149.86,0.57700
7126.71,0.57421
7103.57,0.56129
7080.42,0.56384
7057.28,0.56377
7034.13,0.56025
7010.99,0.56325
6987.84,0.55432
6964.7,0.55407
6941.55,0.55408
6918.41,0.55437
6895.26,0.54907
6872.12,0.54612
6848.97,0.54696
6825.83,0.54179
6802.68,0.54682
6779.54,0.54606
6756.39,0.54223
6733.25,0.55040
6710.1,0.54796
6686.96,0.54291
6663.82,0.54417
6640.67,0.54845
6617.53,0.55132
6594.38,0.54889
6571.24,0.55216
6548.09,0.55383
6524.95,0.55184
6501.8,0.55035
6478.66,0.55270
6455.51,0.56002
6432.37,0.55394
6409.22,0.55220
6386.08,0.55514
6362.93,0.55366
6339.79,0.55543
6316.64,0.55634
6293.5,0.56170
6270.35,0.55794
6247.21,0.56225
6224.06,0.56314
6200.92,0.56334
6177.77,0.56583
6154.63,0.56692
6131.48,0.56624
6108.34,0.56977
6085.19,0.57293
6062.05,0.57160
6038.9,0.57288
6015.76,0.57320
5992.61,0.57238
5969.47,0.57115
5946.32,0.57224
5923.18,0.57295
5900.03,0.57160
5876.89,0.56872
5853.74,0.57122
5830.6,0.56786
5807.45,0.56656
5784.31,0.56765
5761.16,0.56757
5738.02,0.56597
5714.87,0.56606
5691.73,0.56512
5668.58,0.56875
5645.44,0.56665
5622.29,0.56805
5599.15,0.56698
5576,0.56889
5552.86,0.57028
5529.71,0.57007
5506.57,0.57061
5483.42,0.57194
5460.28,0.57126
5437.13,0.57197
5413.99,0.57323
5390.84,0.57510
5367.7,0.57497
5344.55,0.57361
5321.41,0.57207
5298.26,0.56522
5275.12,0.55291
5251.97,0.53434
5228.83,0.51528
5205.68,0.50515
5182.54,0.50682
5159.39,0.51154
5136.25,0.51612
5113.1,0.52194
5089.96,0.52846
5066.81,0.53384
5043.67,0.53754
5020.52,0.54261
4997.38,0.54514
4974.23,0.54518
4951.09,0.54078
4927.94,0.53298
4904.8,0.52325
4881.65,0.51137
4858.51,0.49939
4835.36,0.48741
4812.22,0.47844
4789.07,0.47289
4765.93,0.46855
4742.78,0.46575
4719.64,0.46826
4696.49,0.47323
4673.35,0.47753
4650.2,0.48277
4627.06,0.48830
4603.92,0.49359
4580.77,0.50080
4557.63,0.50370
4534.48,0.50675
4511.34,0.51089
4488.19,0.51072
4465.05,0.50225
4441.9,0.48881
4418.76,0.47002
4395.61,0.45596
4372.47,0.45933
4349.32,0.45771
4326.18,0.44694
4303.03,0.44244
4279.89,0.43610
4256.74,0.43648
4233.6,0.44175
4210.45,0.44194
4187.31,0.44334
4164.16,0.44533
4141.02,0.43866
4117.87,0.42881
4094.73,0.41049
4071.58,0.39094
4048.44,0.36876
4025.29,0.35400
4002.15,0.35614
3979,0.36299
3955.86,0.37123
3932.71,0.38165
3909.57,0.39137
3886.42,0.39935
3863.28,0.40772
3840.13,0.41489
3816.99,0.41601
3793.84,0.41384
3770.7,0.40688
3747.55,0.39321
3724.41,0.36134
3701.26,0.23490
3678.12,0.23097
3654.97,0.16533
3631.83,0.12308
3608.68,0.09360
3585.54,0.08011
3562.39,0.06484
3539.25,0.05730
3516.1,0.05153
3492.96,0.04707
3469.81,0.04388
3446.67,0.04183
3423.52,0.04149
3400.38,0.04088
3377.23,0.04162
3354.09,0.04371
3330.94,0.04605
3307.8,0.04751
3284.65,0.04968
3261.51,0.05267
3238.36,0.05706
3215.22,0.06221
3192.07,0.06728
3168.93,0.07286
3145.78,0.07862
3122.64,0.08569
3099.49,0.09270
3076.35,0.10041
3053.2,0.10793
3030.06,0.11477
3006.91,0.11602
2983.77,0.10741
2960.62,0.08632
2937.48,0.07448
2914.33,0.06650
2891.19,0.07374
2868.04,0.08199
2844.9,0.09167
2821.75,0.11852
2798.61,0.13404
2775.46,0.14148
2752.32,0.14557
2729.17,0.14823
2706.03,0.15581
2682.88,0.16561
2659.74,0.17238
2636.59,0.17971
2613.45,0.18680
2590.3,0.19262
2567.16,0.19547
2544.02,0.19606
2520.87,0.19493
2497.73,0.20744
2474.58,0.22404
2451.44,0.23546
2428.29,0.24727
2405.15,0.25891
2382,0.26797
2358.86,0.27543
2335.71,0.28135
2312.57,0.28640
2289.42,0.28617
2266.28,0.28295
2243.13,0.27761
2219.99,0.27546
2196.84,0.27465
2173.7,0.26341
2150.55,0.25095
2127.41,0.24844
2104.26,0.25759
2081.12,0.26309
2057.97,0.26313
2034.83,0.26758
2011.68,0.28001
1988.54,0.28671
1965.39,0.28923
1942.25,0.29234
1919.1,0.29574
1895.96,0.29534
1872.81,0.29079
1849.67,0.28163
1826.52,0.26048
1803.38,0.20656
1780.23,0.14681
1757.09,0.10407
1733.94,0.07965
1710.8,0.07800
1687.65,0.07958
1664.51,0.07218
1641.36,0.06871
1618.22,0.06545
1595.07,0.07032
1571.93,0.08900
1548.78,0.10177
1525.64,0.08865
1502.49,0.07327
1479.35,0.06222
1456.2,0.05222
1433.06,0.05064
1409.91,0.05850
1386.77,0.05630
1363.62,0.05376
1340.48,0.05374
1317.33,0.05242
1294.19,0.05656
1271.04,0.05533
1247.9,0.05594
1224.75,0.05724
1201.61,0.05337
1178.46,0.04795
1155.32,0.05548
1132.17,0.04628
1109.03,0.05006
1085.88,0.04910
1062.74,0.06448
1039.59,0.06844
1016.45,0.07475
993.304,0.08130
970.159,0.10006
947.014,0.11598
923.869,0.11144
900.724,0.10393
877.579,0.10392
854.434,0.11991
831.289,0.11733
808.144,0.10449
784.999,0.09571
761.854,0.08605
738.709,0.07968
715.565,0.06695
692.42,0.06595
669.275,0.06067
646.13,0.06145
622.985,0.05688
599.84,0.06292