Folder: fsri_materials_database/01_Data/Homasote/FTIR/IS

Note: README.md
# Materials and Products Database
### Repository of materials and products properties and fire test data to improve fire modeling and fire investigation.

This project was supported in part by Award No. 2019-DU-BX-0018, awarded by the National Institute of Justice, Office of Justice Programs, U.S. Department of Justice. The opinions, findings, and conclusions or recommendations expressed in this publication / program / exhibition are those of the author(s) and do not necessarily reflect those of the Department of Justice.

***
***

__Cite this database:__ "McKinnon, M., Weinschenk, C., Dow, N., DiDomizio, M., and Madrzykowski, D. Materials and Products Database (Version 1.0.0), Fire Safety Research Institute, UL Research Institutes. Columbia, MD 21045, 2023."

__Cite the Technical Reference Guide:__ "McKinnon, M., Weinschenk, C., and Madrzykowski, D. Materials and Products Database - Technical Reference Guide, Fire Safety Research Institute, UL Research Institutes. Columbia, MD 21045, 2023."

__Cite the User Guide:__ "McKinnon, M., and Weinschenk, C. Materials and Products Database - User Guide, Fire Safety Research Institute, UL Research Institutes. Columbia, MD 21045, 2023."

***
***

## Database Structure

## 01_Data/
Raw data generated from each apparatus are included here in plain-text format. The data is organized first by material, next by the short name of test apparatus used, and where applicable additional filtering by test settings.

### Test Apparatus and Data File Structure
- __Cone Calorimeter__ (Cone)
    + Data file structure includes the material, the short name for the apparatus, heat flux setting and scan/scalar, date of test, and replicate number. Scan is for the raw output data and scalar is for the initial conditions and high-level test parameters. 
        * Example: __MDF_Cone_HF25scalar_210323_R1__ stands for the first replicate of scalar data generated from a medium density fiber board test in cone calorimeter exposed to 25 kW/m<sup>2</sup> on March 23, 2021.
    + A _Cone_Notes.csv_ is generated for each material from the __plot_Cone_data.py__ script. For materials whose experiments deviated from typical behavior relevant pictures are included in the respective material directory.
- __Fourier Transform Infrared Spectrometer__ (FTIR)
    + The FTIR directory contains subdirectories for the Attenuated Total Reflectance method (ATR) and the Integrating Sphere (IS)
    + Data file structure for the ATR experiment files includes the material, the abbreviated name for the apparatus, date of test, and replicate number. 
        * Example: __MDF_ATR_210323_R5__ stands for the fifth replicate of data collected with the ATR accessory conducted on June 8, 2021.
    + Data file structure for the IS experiment files includes the material, the abbreviated name for the apparatus, the measurand, whether the test is a sample measurement or standard reference, date of test, and replicate number.
        * Example: __OSB_IS_REFLECT_MEAS_2

File: Homasote_IS_S_221031_R1.dpt
7497.03,0.58317
7473.89,0.57875
7450.74,0.58321
7427.6,0.58200
7404.45,0.57659
7381.31,0.58212
7358.16,0.57572
7335.02,0.58235
7311.87,0.57836
7288.73,0.57208
7265.58,0.57681
7242.44,0.57687
7219.29,0.58599
7196.15,0.57368
7173,0.58565
7149.86,0.57802
7126.71,0.56844
7103.57,0.57635
7080.42,0.56449
7057.28,0.56449
7034.13,0.56087
7010.99,0.55634
6987.84,0.56006
6964.7,0.55517
6941.55,0.55016
6918.41,0.54241
6895.26,0.54658
6872.12,0.54631
6848.97,0.54612
6825.83,0.54955
6802.68,0.54213
6779.54,0.54588
6756.39,0.54133
6733.25,0.54625
6710.1,0.54018
6686.96,0.54595
6663.82,0.54037
6640.67,0.54228
6617.53,0.54836
6594.38,0.55099
6571.24,0.54799
6548.09,0.55141
6524.95,0.55082
6501.8,0.55264
6478.66,0.54728
6455.51,0.55573
6432.37,0.55579
6409.22,0.55344
6386.08,0.55533
6362.93,0.55307
6339.79,0.55450
6316.64,0.55804
6293.5,0.55555
6270.35,0.55789
6247.21,0.55970
6224.06,0.56432
6200.92,0.56009
6177.77,0.56297
6154.63,0.56790
6131.48,0.57027
6108.34,0.56703
6085.19,0.56923
6062.05,0.56960
6038.9,0.57198
6015.76,0.57162
5992.61,0.57037
5969.47,0.57095
5946.32,0.57132
5923.18,0.57255
5900.03,0.56854
5876.89,0.56739
5853.74,0.56694
5830.6,0.56624
5807.45,0.56682
5784.31,0.56732
5761.16,0.56588
5738.02,0.56451
5714.87,0.56791
5691.73,0.56580
5668.58,0.56406
5645.44,0.56645
5622.29,0.56571
5599.15,0.56828
5576,0.56670
5552.86,0.56667
5529.71,0.56934
5506.57,0.56830
5483.42,0.56828
5460.28,0.56864
5437.13,0.57035
5413.99,0.57189
5390.84,0.57177
5367.7,0.57301
5344.55,0.57222
5321.41,0.56956
5298.26,0.56155
5275.12,0.54883
5251.97,0.52746
5228.83,0.50528
5205.68,0.49214
5182.54,0.49623
5159.39,0.49785
5136.25,0.50534
5113.1,0.51275
5089.96,0.52077
5066.81,0.52556
5043.67,0.53018
5020.52,0.53442
4997.38,0.53808
4974.23,0.53854
4951.09,0.53606
4927.94,0.52943
4904.8,0.52009
4881.65,0.50839
4858.51,0.49693
4835.36,0.48566
4812.22,0.47587
4789.07,0.47066
4765.93,0.46542
4742.78,0.46377
4719.64,0.46573
4696.49,0.47058
4673.35,0.47617
4650.2,0.47985
4627.06,0.48611
4603.92,0.49143
4580.77,0.49689
4557.63,0.50205
4534.48,0.50288
4511.34,0.50787
4488.19,0.50779
4465.05,0.50028
4441.9,0.48619
4418.76,0.46617
4395.61,0.45389
4372.47,0.45792
4349.32,0.45517
4326.18,0.44466
4303.03,0.44004
4279.89,0.43411
4256.74,0.43474
4233.6,0.43827
4210.45,0.43952
4187.31,0.44131
4164.16,0.44214
4141.02,0.43586
4117.87,0.42481
4094.73,0.40737
4071.58,0.38756
4048.44,0.36555
4025.29,0.35092
4002.15,0.35232
3979,0.35960
3955.86,0.36731
3932.71,0.37706
3909.57,0.38646
3886.42,0.39454
3863.28,0.40310
3840.13,0.41083
3816.99,0.41138
3793.84,0.40718
3770.7,0.39986
3747.55,0.38665
3724.41,0.35399
3701.26,0.23009
3678.12,0.22477
3654.97,0.15796
3631.83,0.11628
3608.68,0.08863
3585.54,0.07534
3562.39,0.06269
3539.25,0.05507
3516.1,0.05037
3492.96,0.04655
3469.81,0.04361
3446.67,0.04192
3423.52,0.04160
3400.38,0.04075
3377.23,0.04231
3354.09,0.04337
3330.94,0.04527
3307.8,0.04717
3284.65,0.04912
3261.51,0.05268
3238.36,0.05581
3215.22,0.05966
3192.07,0.06559
3168.93,0.07091
3145.78,0.07658
3122.64,0.08307
3099.49,0.08925
3076.35,0.09653
3053.2,0.10374
3030.06,0.10982
3006.91,0.11293
2983.77,0.10461
2960.62,0.08516
2937.48,0.07352
2914.33,0.06661
2891.19,0.07399
2868.04,0.08095
2844.9,0.09077
2821.75,0.11668
2798.61,0.13234
2775.46,0.13895
2752.32,0.14297
2729.17,0.14638
2706.03,0.15373
2682.88,0.16322
2659.74,0.16988
2636.59,0.17770
2613.45,0.18474
2590.3,0.19017
2567.16,0.19317
2544.02,0.19380
2520.87,0.19281
2497.73,0.20549
2474.58,0.22154
2451.44,0.23260
2428.29,0.24422
2405.15,0.25545
2382,0.26419
2358.86,0.27224
2335.71,0.27752
2312.57,0.28165
2289.42,0.28117
2266.28,0.27751
2243.13,0.27166
2219.99,0.26931
2196.84,0.26823
2173.7,0.25713
2150.55,0.24500
2127.41,0.24201
2104.26,0.25135
2081.12,0.25671
2057.97,0.25655
2034.83,0.26111
2011.68,0.27371
1988.54,0.28018
1965.39,0.28236
1942.25,0.28655
1919.1,0.28967
1895.96,0.28958
1872.81,0.28576
1849.67,0.27666
1826.52,0.25636
1803.38,0.20458
1780.23,0.14628
1757.09,0.10405
1733.94,0.07929
1710.8,0.07685
1687.65,0.07809
1664.51,0.06916
1641.36,0.06661
1618.22,0.06445
1595.07,0.06944
1571.93,0.08764
1548.78,0.10051
1525.64,0.08829
1502.49,0.07268
1479.35,0.06187
1456.2,0.05235
1433.06,0.05011
1409.91,0.05837
1386.77,0.05660
1363.62,0.05361
1340.48,0.05343
1317.33,0.05211
1294.19,0.05674
1271.04,0.05562
1247.9,0.05599
1224.75,0.05749
1201.61,0.05335
1178.46,0.04784
1155.32,0.05595
1132.17,0.04626
1109.03,0.05062
1085.88,0.04922
1062.74,0.06391
1039.59,0.06740
1016.45,0.07444
993.304,0.08063
970.159,0.09935
947.014,0.11459
923.869,0.11002
900.724,0.10212
877.579,0.10223
854.434,0.11668
831.289,0.11352
808.144,0.10059
784.999,0.09116
761.854,0.08256
738.709,0.07673
715.565,0.06505
692.42,0.06459
669.275,0.06087
646.13,0.06035
622.985,0.05644
599.84,0.06112

File: Homasote_IS_S_221031_R2.dpt
7497.03,0.58678
7473.89,0.58395
7450.74,0.59002
7427.6,0.58090
7404.45,0.58432
7381.31,0.58147
7358.16,0.57597
7335.02,0.57472
7311.87,0.57924
7288.73,0.57438
7265.58,0.58047
7242.44,0.58041
7219.29,0.58125
7196.15,0.57812
7173,0.57377
7149.86,0.57790
7126.71,0.57028
7103.57,0.57222
7080.42,0.57134
7057.28,0.55317
7034.13,0.56020
7010.99,0.55363
6987.84,0.55813
6964.7,0.55257
6941.55,0.54844
6918.41,0.54828
6895.26,0.54290
6872.12,0.54126
6848.97,0.54447
6825.83,0.54781
6802.68,0.54363
6779.54,0.54597
6756.39,0.53958
6733.25,0.53859
6710.1,0.54404
6686.96,0.54074
6663.82,0.54452
6640.67,0.54331
6617.53,0.54514
6594.38,0.54734
6571.24,0.55422
6548.09,0.54915
6524.95,0.54984
6501.8,0.54829
6478.66,0.55240
6455.51,0.55232
6432.37,0.55582
6409.22,0.55177
6386.08,0.55333
6362.93,0.55459
6339.79,0.55325
6316.64,0.55835
6293.5,0.55482
6270.35,0.55687
6247.21,0.55915
6224.06,0.56080
6200.92,0.56493
6177.77,0.56425
6154.63,0.56596
6131.48,0.56667
6108.34,0.56508
6085.19,0.56801
6062.05,0.57101
6038.9,0.56885
6015.76,0.56932
5992.61,0.57200
5969.47,0.56907
5946.32,0.56743
5923.18,0.57043
5900.03,0.56917
5876.89,0.57132
5853.74,0.56657
5830.6,0.56715
5807.45,0.56890
5784.31,0.56539
5761.16,0.56622
5738.02,0.56465
5714.87,0.56688
5691.73,0.56660
5668.58,0.56574
5645.44,0.56486
5622.29,0.56610
5599.15,0.56516
5576,0.56515
5552.86,0.56766
5529.71,0.56728
5506.57,0.56679
5483.42,0.56699
5460.28,0.57048
5437.13,0.57046
5413.99,0.57106
5390.84,0.57188
5367.7,0.57180
5344.55,0.57121
5321.41,0.56891
5298.26,0.56039
5275.12,0.54841
5251.97,0.52753
5228.83,0.50844
5205.68,0.49446
5182.54,0.49762
5159.39,0.50327
5136.25,0.50707
5113.1,0.51393
5089.96,0.52051
5066.81,0.52696
5043.67,0.53233
5020.52,0.53684
4997.38,0.53817
4974.23,0.53916
4951.09,0.53658
4927.94,0.52976
4904.8,0.52090
4881.65,0.50830
4858.51,0.49690
4835.36,0.48529
4812.22,0.47567
4789.07,0.47054
4765.93,0.46602
4742.78,0.46445
4719.64,0.46667
4696.49,0.46989
4673.35,0.47446
4650.2,0.48099
4627.06,0.48648
4603.92,0.49148
4580.77,0.49655
4557.63,0.50185
4534.48,0.50386
4511.34,0.50748
4488.19,0.50788
4465.05,0.50030
4441.9,0.48631
4418.76,0.46793
4395.61,0.45344
4372.47,0.45755
4349.32,0.45519
4326.18,0.44463
4303.03,0.44120
4279.89,0.43484
4256.74,0.43395
4233.6,0.43826
4210.45,0.43989
4187.31,0.44117
4164.16,0.44283
4141.02,0.43644
4117.87,0.42532
4094.73,0.40729
4071.58,0.38814
4048.44,0.36711
4025.29,0.35194
4002.15,0.35277
3979,0.36038
3955.86,0.36911
3932.71,0.37834
3909.57,0.38760
3886.42,0.39641
3863.28,0.40389
3840.13,0.41092
3816.99,0.41237
3793.84,0.40878
3770.7,0.40264
3747.55,0.38827
3724.41,0.35619
3701.26,0.23076
3678.12,0.22711
3654.97,0.15953
3631.83,0.11731
3608.68,0.09001
3585.54,0.07666
3562.39,0.06308
3539.25,0.05579
3516.1,0.05079
3492.96,0.04664
3469.81,0.04391
3446.67,0.04220
3423.52,0.04178
3400.38,0.04099
3377.23,0.04130
3354.09,0.04264
3330.94,0.04513
3307.8,0.04769
3284.65,0.04839
3261.51,0.05288
3238.36,0.05694
3215.22,0.06102
3192.07,0.06534
3168.93,0.07092
3145.78,0.07763
3122.64,0.08326
3099.49,0.09044
3076.35,0.09741
3053.2,0.10518
3030.06,0.11186
3006.91,0.11349
2983.77,0.10566
2960.62,0.08566
2937.48,0.07357
2914.33,0.06645
2891.19,0.07365
2868.04,0.08118
2844.9,0.09095
2821.75,0.11709
2798.61,0.13261
2775.46,0.13901
2752.32,0.14404
2729.17,0.14675
2706.03,0.15420
2682.88,0.16361
2659.74,0.17067
2636.59,0.17829
2613.45,0.18484
2590.3,0.19072
2567.16,0.19359
2544.02,0.19426
2520.87,0.19303
2497.73,0.20594
2474.58,0.22204
2451.44,0.23312
2428.29,0.24479
2405.15,0.25622
2382,0.26562
2358.86,0.27347
2335.71,0.27919
2312.57,0.28275
2289.42,0.28229
2266.28,0.27897
2243.13,0.27297
2219.99,0.27134
2196.84,0.27037
2173.7,0.25878
2150.55,0.24669
2127.41,0.24421
2104.26,0.25312
2081.12,0.25843
2057.97,0.25809
2034.83,0.26292
2011.68,0.27555
1988.54,0.28176
1965.39,0.28438
1942.25,0.28811
1919.1,0.29134
1895.96,0.29149
1872.81,0.28738
1849.67,0.27783
1826.52,0.25749
1803.38,0.20511
1780.23,0.14614
1757.09,0.10381
1733.94,0.07871
1710.8,0.07745
1687.65,0.07800
1664.51,0.07035
1641.36,0.06767
1618.22,0.06492
1595.07,0.06978
1571.93,0.08762
1548.78,0.10076
1525.64,0.08832
1502.49,0.07309
1479.35,0.06193
1456.2,0.05247
1433.06,0.05020
1409.91,0.05848
1386.77,0.05627
1363.62,0.05388
1340.48,0.05314
1317.33,0.05194
1294.19,0.05652
1271.04,0.05552
1247.9,0.05573
1224.75,0.05733
1201.61,0.05356
1178.46,0.04810
1155.32,0.05620
1132.17,0.04661
1109.03,0.04966
1085.88,0.05023
1062.74,0.06448
1039.59,0.06762
1016.45,0.07453
993.304,0.08138
970.159,0.09990
947.014,0.11498
923.869,0.11032
900.724,0.10230
877.579,0.10279
854.434,0.11834
831.289,0.11518
808.144,0.10210
784.999,0.09237
761.854,0.08435
738.709,0.07822
715.565,0.06632
692.42,0.06548
669.275,0.06105
646.13,0.06078
622.985,0.05746
599.84,0.06487

File: Homasote_IS_S_221031_R3.dpt
7497.03,0.58799
7473.89,0.59325
7450.74,0.58027
7427.6,0.58787
7404.45,0.57954
7381.31,0.58711
7358.16,0.58281
7335.02,0.57822
7311.87,0.58696
7288.73,0.57853
7265.58,0.56862
7242.44,0.57455
7219.29,0.57710
7196.15,0.57985
7173,0.57597
7149.86,0.57400
7126.71,0.56934
7103.57,0.57706
7080.42,0.56442
7057.28,0.56005
7034.13,0.55420
7010.99,0.55338
6987.84,0.55634
6964.7,0.55570
6941.55,0.54937
6918.41,0.54673
6895.26,0.54976
6872.12,0.54835
6848.97,0.54494
6825.83,0.54479
6802.68,0.54722
6779.54,0.54661
6756.39,0.53639
6733.25,0.54240
6710.1,0.54896
6686.96,0.54271
6663.82,0.54203
6640.67,0.54610
6617.53,0.55191
6594.38,0.55007
6571.24,0.54800
6548.09,0.54821
6524.95,0.55636
6501.8,0.55461
6478.66,0.54695
6455.51,0.54977
6432.37,0.55485
6409.22,0.54953
6386.08,0.55659
6362.93,0.55333
6339.79,0.55424
6316.64,0.55651
6293.5,0.55949
6270.35,0.55855
6247.21,0.55803
6224.06,0.56228
6200.92,0.56489
6177.77,0.56839
6154.63,0.56886
6131.48,0.56869
6108.34,0.56890
6085.19,0.57369
6062.05,0.56947
6038.9,0.56886
6015.76,0.57145
5992.61,0.57118
5969.47,0.57030
5946.32,0.57141
5923.18,0.56964
5900.03,0.56877
5876.89,0.56840
5853.74,0.56753
5830.6,0.56986
5807.45,0.56663
5784.31,0.56598
5761.16,0.56309
5738.02,0.56826
5714.87,0.56808
5691.73,0.56580
5668.58,0.56421
5645.44,0.56669
5622.29,0.56477
5599.15,0.56694
5576,0.56637
5552.86,0.56449
5529.71,0.56943
5506.57,0.56789
5483.42,0.56810
5460.28,0.56943
5437.13,0.57116
5413.99,0.57210
5390.84,0.57413
5367.7,0.57409
5344.55,0.57133
5321.41,0.57056
5298.26,0.56330
5275.12,0.55063
5251.97,0.53032
5228.83,0.50905
5205.68,0.49815
5182.54,0.50140
5159.39,0.50329
5136.25,0.51045
5113.1,0.51791
5089.96,0.52317
5066.81,0.52754
5043.67,0.53380
5020.52,0.53671
4997.38,0.53932
4974.23,0.54023
4951.09,0.53741
4927.94,0.53102
4904.8,0.52125
4881.65,0.50926
4858.51,0.49691
4835.36,0.48506
4812.22,0.47668
4789.07,0.47108
4765.93,0.46587
4742.78,0.46407
4719.64,0.46679
4696.49,0.47064
4673.35,0.47664
4650.2,0.48126
4627.06,0.48563
4603.92,0.49165
4580.77,0.49785
4557.63,0.50165
4534.48,0.50397
4511.34,0.50888
4488.19,0.50819
4465.05,0.50025
4441.9,0.48664
4418.76,0.46743
4395.61,0.45397
4372.47,0.45792
4349.32,0.45659
4326.18,0.44480
4303.03,0.44069
4279.89,0.43540
4256.74,0.43429
4233.6,0.43912
4210.45,0.43954
4187.31,0.44172
4164.16,0.44209
4141.02,0.43696
4117.87,0.42642
4094.73,0.40846
4071.58,0.38848
4048.44,0.36708
4025.29,0.35228
4002.15,0.35345
3979,0.36097
3955.86,0.36885
3932.71,0.37902
3909.57,0.38944
3886.42,0.39759
3863.28,0.40481
3840.13,0.41258
3816.99,0.41345
3793.84,0.40986
3770.7,0.40407
3747.55,0.39040
3724.41,0.35722
3701.26,0.23249
3678.12,0.22831
3654.97,0.16102
3631.83,0.11953
3608.68,0.09093
3585.54,0.07767
3562.39,0.06386
3539.25,0.05633
3516.1,0.05048
3492.96,0.04696
3469.81,0.04348
3446.67,0.04154
3423.52,0.04145
3400.38,0.04103
3377.23,0.04142
3354.09,0.04282
3330.94,0.04493
3307.8,0.04761
3284.65,0.04961
3261.51,0.05364
3238.36,0.05769
3215.22,0.06164
3192.07,0.06633
3168.93,0.07172
3145.78,0.07760
3122.64,0.08405
3099.49,0.09145
3076.35,0.09861
3053.2,0.10596
3030.06,0.11217
3006.91,0.11461
2983.77,0.10535
2960.62,0.08592
2937.48,0.07387
2914.33,0.06652
2891.19,0.07380
2868.04,0.08116
2844.9,0.09096
2821.75,0.11762
2798.61,0.13320
2775.46,0.14009
2752.32,0.14398
2729.17,0.14703
2706.03,0.15463
2682.88,0.16398
2659.74,0.17105
2636.59,0.17842
2613.45,0.18592
2590.3,0.19153
2567.16,0.19454
2544.02,0.19443
2520.87,0.19379
2497.73,0.20597
2474.58,0.22281
2451.44,0.23338
2428.29,0.24560
2405.15,0.25682
2382,0.26624
2358.86,0.27423
2335.71,0.27989
2312.57,0.28391
2289.42,0.28366
2266.28,0.28024
2243.13,0.27435
2219.99,0.27207
2196.84,0.27116
2173.7,0.26002
2150.55,0.24774
2127.41,0.24457
2104.26,0.25450
2081.12,0.25950
2057.97,0.25957
2034.83,0.26417
2011.68,0.27674
1988.54,0.28309
1965.39,0.28574
1942.25,0.28924
1919.1,0.29249
1895.96,0.29228
1872.81,0.28858
1849.67,0.27922
1826.52,0.25809
1803.38,0.20555
1780.23,0.14618
1757.09,0.10412
1733.94,0.07904
1710.8,0.07749
1687.65,0.07865
1664.51,0.07146
1641.36,0.06799
1618.22,0.06476
1595.07,0.06945
1571.93,0.08827
1548.78,0.10101
1525.64,0.08859
1502.49,0.07303
1479.35,0.06213
1456.2,0.05235
1433.06,0.05001
1409.91,0.05845
1386.77,0.05651
1363.62,0.05362
1340.48,0.05338
1317.33,0.05246
1294.19,0.05674
1271.04,0.05519
1247.9,0.05552
1224.75,0.05772
1201.61,0.05344
1178.46,0.04828
1155.32,0.05605
1132.17,0.04622
1109.03,0.04966
1085.88,0.04936
1062.74,0.06432
1039.59,0.06780
1016.45,0.07398
993.304,0.08142
970.159,0.09997
947.014,0.11528
923.869,0.11057
900.724,0.10288
877.579,0.10321
854.434,0.11875
831.289,0.11549
808.144,0.10252
784.999,0.09369
761.854,0.08437
738.709,0.07850
715.565,0.06541
692.42,0.06355
669.275,0.06125
646.13,0.06115
622.985,0.05955
599.84,0.06296

File: Homasote_IS_S_221031_R4.dpt
7497.03,0.58441
7473.89,0.58301
7450.74,0.58623
7427.6,0.58412
7404.45,0.57489
7381.31,0.58600
7358.16,0.56997
7335.02,0.57960
7311.87,0.57835
7288.73,0.57643
7265.58,0.58595
7242.44,0.57583
7219.29,0.57741
7196.15,0.58248
7173,0.57819
7149.86,0.57528
7126.71,0.57776
7103.57,0.57217
7080.42,0.56401
7057.28,0.56768
7034.13,0.56122
7010.99,0.55939
6987.84,0.56051
6964.7,0.55229
6941.55,0.55418
6918.41,0.55500
6895.26,0.54656
6872.12,0.54795
6848.97,0.54637
6825.83,0.54250
6802.68,0.54283
6779.54,0.54308
6756.39,0.54398
6733.25,0.54533
6710.1,0.54056
6686.96,0.54266
6663.82,0.54510
6640.67,0.55026
6617.53,0.54343
6594.38,0.54670
6571.24,0.54859
6548.09,0.54754
6524.95,0.54837
6501.8,0.55436
6478.66,0.55579
6455.51,0.55203
6432.37,0.55425
6409.22,0.55272
6386.08,0.55206
6362.93,0.55343
6339.79,0.55522
6316.64,0.55732
6293.5,0.55659
6270.35,0.55902
6247.21,0.55947
6224.06,0.55821
6200.92,0.56016
6177.77,0.56490
6154.63,0.56746
6131.48,0.56917
6108.34,0.56809
6085.19,0.57309
6062.05,0.56997
6038.9,0.57044
6015.76,0.56931
5992.61,0.57075
5969.47,0.57182
5946.32,0.57199
5923.18,0.57120
5900.03,0.57081
5876.89,0.56890
5853.74,0.56528
5830.6,0.56942
5807.45,0.56638
5784.31,0.56526
5761.16,0.56610
5738.02,0.56725
5714.87,0.56396
5691.73,0.56712
5668.58,0.56790
5645.44,0.56490
5622.29,0.56597
5599.15,0.56580
5576,0.56716
5552.86,0.56699
5529.71,0.56726
5506.57,0.56511
5483.42,0.56863
5460.28,0.57019
5437.13,0.57011
5413.99,0.57192
5390.84,0.57381
5367.7,0.57275
5344.55,0.57305
5321.41,0.56866
5298.26,0.56342
5275.12,0.54905
5251.97,0.53062
5228.83,0.51019
5205.68,0.49948
5182.54,0.50186
5159.39,0.50587
5136.25,0.50952
5113.1,0.52084
5089.96,0.52383
5066.81,0.52951
5043.67,0.53295
5020.52,0.53852
4997.38,0.54035
4974.23,0.54089
4951.09,0.53639
4927.94,0.53085
4904.8,0.52104
4881.65,0.50823
4858.51,0.49688
4835.36,0.48633
4812.22,0.47588
4789.07,0.46981
4765.93,0.46715
4742.78,0.46447
4719.64,0.46684
4696.49,0.46941
4673.35,0.47611
4650.2,0.48070
4627.06,0.48666
4603.92,0.49212
4580.77,0.49864
4557.63,0.50136
4534.48,0.50299
4511.34,0.50901
4488.19,0.50865
4465.05,0.50010
4441.9,0.48534
4418.76,0.46756
4395.61,0.45447
4372.47,0.45856
4349.32,0.45660
4326.18,0.44501
4303.03,0.44055
4279.89,0.43435
4256.74,0.43512
4233.6,0.43894
4210.45,0.43996
4187.31,0.44218
4164.16,0.44324
4141.02,0.43687
4117.87,0.42654
4094.73,0.40783
4071.58,0.38909
4048.44,0.36745
4025.29,0.35274
4002.15,0.35422
3979,0.36135
3955.86,0.36950
3932.71,0.37921
3909.57,0.38848
3886.42,0.39737
3863.28,0.40565
3840.13,0.41297
3816.99,0.41350
3793.84,0.40972
3770.7,0.40426
3747.55,0.39047
3724.41,0.35881
3701.26,0.23257
3678.12,0.22906
3654.97,0.16136
3631.83,0.12064
3608.68,0.09164
3585.54,0.07817
3562.39,0.06414
3539.25,0.05658
3516.1,0.05107
3492.96,0.04687
3469.81,0.04438
3446.67,0.04197
3423.52,0.04044
3400.38,0.04094
3377.23,0.04077
3354.09,0.04276
3330.94,0.04586
3307.8,0.04660
3284.65,0.04962
3261.51,0.05337
3238.36,0.05666
3215.22,0.06163
3192.07,0.06630
3168.93,0.07197
3145.78,0.07807
3122.64,0.08469
3099.49,0.09122
3076.35,0.09880
3053.2,0.10665
3030.06,0.11257
3006.91,0.11447
2983.77,0.10599
2960.62,0.08580
2937.48,0.07314
2914.33,0.06644
2891.19,0.07361
2868.04,0.08136
2844.9,0.09112
2821.75,0.11775
2798.61,0.13332
2775.46,0.14027
2752.32,0.14440
2729.17,0.14740
2706.03,0.15516
2682.88,0.16440
2659.74,0.17089
2636.59,0.17843
2613.45,0.18575
2590.3,0.19155
2567.16,0.19488
2544.02,0.19484
2520.87,0.19377
2497.73,0.20663
2474.58,0.22278
2451.44,0.23376
2428.29,0.24580
2405.15,0.25731
2382,0.26624
2358.86,0.27445
2335.71,0.28009
2312.57,0.28427
2289.42,0.28361
2266.28,0.28085
2243.13,0.27495
2219.99,0.27265
2196.84,0.27170
2173.7,0.26048
2150.55,0.24859
2127.41,0.24559
2104.26,0.25525
2081.12,0.25997
2057.97,0.26017
2034.83,0.26474
2011.68,0.27704
1988.54,0.28377
1965.39,0.28605
1942.25,0.28977
1919.1,0.29283
1895.96,0.29252
1872.81,0.28895
1849.67,0.27933
1826.52,0.25823
1803.38,0.20540
1780.23,0.14604
1757.09,0.10399
1733.94,0.07905
1710.8,0.07725
1687.65,0.07891
1664.51,0.07129
1641.36,0.06797
1618.22,0.06501
1595.07,0.06981
1571.93,0.08807
1548.78,0.10108
1525.64,0.08865
1502.49,0.07274
1479.35,0.06192
1456.2,0.05226
1433.06,0.05021
1409.91,0.05830
1386.77,0.05613
1363.62,0.05370
1340.48,0.05334
1317.33,0.05234
1294.19,0.05667
1271.04,0.05536
1247.9,0.05573
1224.75,0.05732
1201.61,0.05352
1178.46,0.04825
1155.32,0.05595
1132.17,0.04602
1109.03,0.04984
1085.88,0.04966
1062.74,0.06434
1039.59,0.06782
1016.45,0.07458
993.304,0.08091
970.159,0.10010
947.014,0.11483
923.869,0.11061
900.724,0.10293
877.579,0.10347
854.434,0.11894
831.289,0.11521
808.144,0.10300
784.999,0.09379
761.854,0.08554
738.709,0.07855
715.565,0.06651
692.42,0.06488
669.275,0.06108
646.13,0.06278
622.985,0.05769
599.84,0.06256