Folder: fsri_materials_database/01_Data/PVC/Cone

Note: README.md
# Materials and Products Database
### Repository of materials and products properties and fire test data to improve fire modeling and fire investigation.

This project was supported in part by Award No. 2019-DU-BX-0018, awarded by the National Institute of Justice, Office of Justice Programs, U.S. Department of Justice. The opinions, findings, and conclusions or recommendations expressed in this publication / program / exhibition are those of the author(s) and do not necessarily reflect those of the Department of Justice.

***
***

__Cite this database:__ "McKinnon, M., Weinschenk, C., Dow, N., DiDomizio, M., and Madrzykowski, D. Materials and Products Database (Version 1.0.0), Fire Safety Research Institute, UL Research Institutes. Columbia, MD 21045, 2023."

__Cite the Technical Reference Guide:__ "McKinnon, M., Weinschenk, C., and Madrzykowski, D. Materials and Products Database - Technical Reference Guide, Fire Safety Research Institute, UL Research Institutes. Columbia, MD 21045, 2023."

__Cite the User Guide:__ "McKinnon, M., and Weinschenk, C. Materials and Products Database - User Guide, Fire Safety Research Institute, UL Research Institutes. Columbia, MD 21045, 2023."

***
***

## Database Structure

## 01_Data/
Raw data generated from each apparatus are included here in plain-text format. The data is organized first by material, next by the short name of test apparatus used, and where applicable additional filtering by test settings.

### Test Apparatus and Data File Structure
- __Cone Calorimeter__ (Cone)
    + Data file structure includes the material, the short name for the apparatus, heat flux setting and scan/scalar, date of test, and replicate number. Scan is for the raw output data and scalar is for the initial conditions and high-level test parameters. 
        * Example: __MDF_Cone_HF25scalar_210323_R1__ stands for the first replicate of scalar data generated from a medium density fiber board test in cone calorimeter exposed to 25 kW/m<sup>2</sup> on March 23, 2021.
    + A _Cone_Notes.csv_ is generated for each material from the __plot_Cone_data.py__ script. For materials whose experiments deviated from typical behavior relevant pictures are included in the respective material directory.
- __Fourier Transform Infrared Spectrometer__ (FTIR)
    + The FTIR directory contains subdirectories for the Attenuated Total Reflectance method (ATR) and the Integrating Sphere (IS)
    + Data file structure for the ATR experiment files includes the material, the abbreviated name for the apparatus, date of test, and replicate number. 
        * Example: __MDF_ATR_210323_R5__ stands for the fifth replicate of data collected with the ATR accessory conducted on June 8, 2021.
    + Data file structure for the IS experiment files includes the material, the abbreviated name for the apparatus, the measurand, whether the test is a sample measurement or standard reference, date of test, and replicate number.
        * Example: __OSB_IS_REFLECT_MEAS_2

File: PVC_HRRPUA_25.csv
Time after Ignition,PVC_R1,PVC_R2,PVC_R3,Mean,Std. Dev.
0.0,28.8,2.5,7.2,12.8,14.0
0.25,32.0,3.3,8.2,14.5,15.3
0.5,35.0,4.1,9.3,16.1,16.5
0.75,37.2,4.8,10.1,17.4,17.4
1.0,39.6,5.4,12.1,19.0,18.2
1.25,41.4,6.0,14.1,20.5,18.5
1.5,44.7,7.3,15.6,22.5,19.7
1.75,47.2,8.7,18.6,24.8,20.0
2.0,49.4,9.6,21.4,26.8,20.4
2.25,52.2,10.8,23.3,28.8,21.3
2.5,54.5,12.8,25.5,30.9,21.4
2.75,55.8,14.7,28.5,33.0,20.9
3.0,57.5,16.2,31.3,35.0,20.9
3.25,60.2,19.3,33.9,37.8,20.7
3.5,61.3,22.2,36.1,39.9,19.8
3.75,62.5,24.9,38.1,41.9,19.1
4.0,65.1,26.9,41.1,44.4,19.3
4.25,66.0,30.6,42.6,46.4,18.0
4.5,68.8,34.0,45.1,49.3,17.8
4.75,68.6,36.8,47.9,51.1,16.2
5.0,72.0,39.5,49.3,53.6,16.7
5.25,71.8,42.3,50.7,54.9,15.2
5.5,74.7,45.7,54.1,58.1,14.9
5.75,76.4,48.0,55.1,59.9,14.8
6.0,78.5,50.2,57.4,62.0,14.7
6.25,79.9,51.9,58.6,63.5,14.6
6.5,81.5,54.0,61.0,65.5,14.3
6.75,82.0,55.6,63.2,66.9,13.6
7.0,84.1,58.2,65.7,69.4,13.3
7.25,85.5,60.7,67.0,71.1,12.9
7.5,86.8,62.8,68.3,72.6,12.6
7.75,87.8,64.3,71.1,74.4,12.1
8.0,89.5,67.8,71.4,76.2,11.6
8.25,91.2,68.3,73.2,77.6,12.1
8.5,94.2,71.3,74.2,79.9,12.5
8.75,94.0,71.3,74.8,80.0,12.2
9.0,96.8,73.2,77.8,82.6,12.5
9.25,97.8,75.2,77.8,83.6,12.3
9.5,99.1,76.9,78.5,84.8,12.4
9.75,101.0,78.3,80.5,86.6,12.5
10.0,101.8,81.4,81.2,88.2,11.8
10.25,103.3,81.7,81.2,88.8,12.6
10.5,105.5,81.9,83.5,90.3,13.2
10.75,104.5,84.7,82.6,90.6,12.1
11.0,106.0,86.0,83.5,91.8,12.3
11.25,107.2,86.3,85.0,92.8,12.5
11.5,108.1,86.9,85.2,93.4,12.8
11.75,107.1,87.5,84.3,93.0,12.4
12.0,108.1,89.6,85.2,94.3,12.2
12.25,108.3,89.8,87.5,95.2,11.4
12.5,109.1,90.5,87.0,95.5,11.9
12.75,109.3,89.7,87.9,95.7,11.9
13.0,108.7,91.6,88.1,96.2,11.0
13.25,111.7,91.0,87.1,96.6,13.2
13.5,110.6,91.8,88.7,97.0,11.9
13.75,109.3,92.3,88.9,96.9,10.9
14.0,109.7,93.1,89.0,97.3,10.9
14.25,110.9,93.1,89.0,97.7,11.7
14.5,112.3,93.7,90.7,98.9,11.7
14.75,111.0,94.3,92.3,99.2,10.3
15.0,112.3,92.4,91.0,98.6,11.9
15.25,110.4,93.6,92.4,98.8,10.1
15.5,110.1,94.0,92.9,99.0,9.6
15.75,110.1,94.7,92.0,98.9,9.8
16.0,112.2,94.7,92.1,99.7,11.0
16.25,111.8,94.4,91.0,99.0,11.2
16.5,109.1,94.0,92.4,98.5,9.2
16.75,111.3,94.6,93.6,99.8,9.9
17.0,109.5,94.7,93.1,99.1,9.0
17.25,108.1,94.1,92.8,98.3,8.5
17.5,108.0,94.4,93.1,98.5,8.3
17.75,107.8,94.4,94.5,98.9,7.7
18.0,107.4,94.1,94.9,98.8,7.4
18.25,105.8,95.6,94.2,98.5,6.3
18.5,107.9,94.5,94.2,98.9,7.9
18.75,105.4,95.4,93.3,98.0,6.5
19.0,103.4,95.6,93.9,97.6,5.1
19.25,104.1,95.1,94.4,97.9,5.4
19.5,102.5,95.0,94.0,97.2,4.7
19.75,103.5,93.4,94.4,97.1,5.5
20.0,101.2,94.0,93.1,96.1,4.4
20.25,101.3,93.6,92.8,95.9,4.7
20.5,100.2,93.0,93.8,95.7,3.9
20.75,101.1,93.2,93.1,95.8,4.6
21.0,100.6,93.4,94.5,96.2,3.9
21.25,101.1,92.6,94.1,95.9,4.6
21.5,98.1,93.1,91.4,94.2,3.5
21.75,97.2,92.6,90.8,93.5,3.3
22.0,97.8,91.3,91.4,93.5,3.7
22.25,97.1,91.0,91.3,93.2,3.4
22.5,96.4,90.9,91.4,92.9,3.0
22.75,95.6,91.5,90.3,92.5,2.8
23.0,93.6,90.9,89.5,91.4,2.1
23.25,93.8,90.7,87.9,90.8,2.9
23.5,95.5,91.8,87.4,91.5,4.0
23.75,93.2,90.4,87.7,90.4,2.8
24.0,92.6,89.6,88.1,90.1,2.3
24.25,91.2,90.4,87.0,89.6,2.2
24.5,91.4,89.2,86.8,89.1,2.3
24.75,90.0,87.6,85.5,87.7,2.2
25.0,88.8,88.8,85.7,87.8,1.8
25.25,87.1,88.6,86.6,87.4,1.1
25.5,87.6,88.0,85.4,87.0,1.4
25.75,86.6,88.1,84.1,86.3,2.0
26.0,86.0,88.8,85.1,86.6,2.0
26.25,87.5,87.4,84.9,86.6,1.4
26.5,85.2,86.3,83.8,85.1,1.2
26.75,84.2,89.0,83.1,85.4,3.1
27.0,84.0,85.7,83.4,84.4,1.2
27.25,83.5,86.7,83.8,84.7,1.8
27.5,82.4,85.7,81.0,83.0,2.4
27.75,81.6,86.0,82.2,83.3,2.4
28.0,79.9,85.9,82.7,82.8,3.0
28.25,79.8,85.6,81.8,82.4,3.0
28.5,78.8,86.6,78.9,81.4,4.5
28.75,77.6,87.4,79.1,81.4,5.2
29.0,76.7,85.8,79.8,80.8,4.6
29.25,73.6,84.3,78.9,79.0,5.4
29.5,73.2,85.2,76.2,78.2,6.2
29.75,73.6,84.1,76.7,78.1,5.4
30.0,70.6,84.5,75.7,77.0,7.0
30.25,68.4,83.8,75.8,76.0,7.7
30.5,65.8,84.9,73.6,74.8,9.6
30.75,64.0,84.0,73.9,74.0,10.0
31.0,61.8,84.8,73.8,73.5,11.5
31.25,58.1,84.6,72.6,71.8,13.2
31.5,55.4,84.1,72.3,70.6,14.4
31.75,54.1,83.6,72.7,70.1,14.9
32.0,50.9,82.9,71.3,68.4,16.2
32.25,49.0,83.8,69.9,67.6,17.6
32.5,47.2,83.2,70.7,67.0,18.2
32.75,44.7,82.3,68.1,65.1,19.0
33.0,43.6,82.6,68.2,64.8,19.7
33.25,41.5,82.0,68.1,63.9,20.6
33.5,40.1,82.5,66.5,63.0,21.4
33.75,38.7,81.0,65.3,61.6,21.4
34.0,37.3,81.2,65.3,61.3,22.2
34.25,35.5,81.7,65.0,60.7,23.4
34.5,35.0,79.9,64.0,59.6,22.7
34.75,33.6,79.6,62.4,58.6,23.2
35.0,32.1,80.1,62.7,58.3,24.3
35.25,31.1,80.2,61.6,57.6,24.8
35.5,29.6,79.5,59.8,56.3,25.1
35.75,28.9,80.2,60.1,56.4,25.9
36.0,27.4,78.7,59.8,55.3,25.9
36.25,26.1,79.7,58.5,54.7,27.0
36.5,24.6,78.8,56.5,53.3,27.2
36.75,24.0,77.1,55.1,52.1,26.7
37.0,22.5,76.7,55.4,51.5,27.3
37.25,20.9,77.0,54.6,50.8,28.3
37.5,19.9,77.1,53.6,50.2,28.7
37.75,19.0,76.8,51.8,49.2,29.0
38.0,17.3,75.2,51.0,47.9,29.1
38.25,15.6,74.9,50.3,46.9,29.8
38.5,14.4,74.7,50.0,46.4,30.3
38.75,13.4,73.8,47.4,44.9,30.3
39.0,12.0,73.1,46.6,43.9,30.6

File: PVC_HRRPUA_50.csv
Time after Ignition,PVC_R2,PVC_R3,PVC_R1,Mean,Std. Dev.
0.0,116.2,153.5,159.7,143.1,23.6
2.0,160.8,188.5,201.9,183.7,21.0
4.0,185.8,214.5,231.8,210.7,23.3
6.0,204.7,214.4,247.1,222.0,22.2
8.0,206.2,211.6,240.8,219.5,18.6
10.0,199.9,197.9,228.2,208.7,16.9
12.0,186.3,180.1,218.2,194.9,20.4
14.0,173.4,167.7,204.0,181.7,19.5
16.0,160.3,160.2,193.1,171.2,19.0
18.0,156.4,152.2,191.6,166.7,21.6
20.0,144.6,143.2,188.7,158.9,25.9
22.0,140.8,141.1,189.1,157.0,27.8
24.0,136.7,138.0,186.5,153.7,28.4
26.0,143.3,134.8,188.7,155.6,29.0
28.0,144.6,136.5,185.8,155.6,26.4
30.0,148.6,137.4,182.0,156.0,23.2
32.0,149.1,141.8,187.1,159.3,24.3
34.0,151.2,150.3,179.9,160.5,16.8
36.0,148.2,151.1,181.3,160.2,18.3
38.0,147.5,155.6,175.1,159.4,14.2
40.0,148.5,157.4,179.7,161.9,16.1
42.0,148.6,158.7,174.8,160.7,13.2
44.0,149.7,157.9,174.2,160.6,12.5
46.0,155.3,158.3,173.6,162.4,9.8
48.0,151.0,156.1,173.5,160.2,11.8
50.0,147.5,152.5,165.3,155.1,9.2
52.0,147.6,148.4,163.7,153.2,9.1
54.0,152.1,147.8,156.9,152.3,4.5
56.0,149.1,145.5,155.8,150.1,5.2
58.0,149.2,143.0,153.4,148.5,5.2
60.0,143.8,138.6,150.9,144.5,6.2
62.0,141.8,139.0,148.3,143.0,4.8
64.0,140.9,133.4,143.5,139.3,5.2
66.0,137.7,133.1,139.5,136.7,3.3
68.0,136.8,133.1,139.0,136.3,3.0
70.0,135.4,132.1,135.7,134.4,2.0
72.0,133.9,129.8,131.5,131.8,2.1
74.0,128.2,125.9,129.2,127.8,1.7
76.0,126.2,124.0,128.5,126.2,2.3
78.0,124.5,121.4,126.7,124.2,2.7
80.0,123.1,116.6,125.0,121.6,4.4
82.0,121.8,116.4,122.7,120.3,3.4
84.0,117.7,114.0,120.4,117.4,3.2
86.0,116.7,112.2,113.6,114.2,2.3
88.0,114.2,111.1,113.1,112.8,1.5
90.0,111.7,108.8,110.8,110.4,1.5
92.0,110.7,109.3,107.0,109.0,1.8
94.0,109.4,107.5,107.8,108.2,1.0
96.0,105.2,103.8,106.6,105.2,1.4
98.0,101.2,104.3,106.9,104.1,2.9
100.0,98.9,101.9,107.0,102.6,4.1
102.0,96.5,100.4,105.7,100.9,4.6
104.0,94.6,98.7,105.1,99.5,5.3
106.0,91.7,95.9,105.9,97.8,7.3
108.0,90.3,93.2,103.3,95.6,6.8
110.0,88.8,92.3,103.6,94.9,7.7
112.0,88.0,88.7,102.0,92.9,7.9
114.0,86.3,87.1,104.4,92.6,10.2
116.0,85.2,84.4,104.1,91.2,11.1
118.0,83.9,82.9,102.7,89.8,11.1
120.0,83.7,80.6,101.2,88.5,11.1
122.0,83.0,80.9,98.2,87.4,9.5
124.0,81.9,80.0,97.5,86.5,9.6
126.0,81.1,81.3,97.1,86.5,9.2
128.0,79.7,79.4,96.8,85.3,9.9
130.0,79.2,76.9,97.0,84.3,11.0
132.0,77.2,76.4,94.5,82.7,10.2
134.0,78.7,75.1,95.9,83.2,11.1
136.0,77.8,73.5,97.5,82.9,12.8
138.0,77.9,74.4,97.5,83.2,12.5
140.0,74.9,72.9,98.4,82.1,14.2
142.0,73.4,71.4,97.6,80.8,14.6
144.0,72.1,69.6,98.4,80.0,15.9
146.0,72.2,69.0,99.2,80.1,16.6
148.0,68.2,68.6,101.1,79.3,18.9
150.0,65.0,67.6,102.2,78.3,20.8
152.0,65.7,65.4,101.9,77.7,21.0
154.0,64.3,65.0,102.9,77.4,22.1
156.0,64.6,64.1,101.9,76.9,21.7
158.0,64.0,64.1,100.2,76.1,20.9
160.0,64.6,62.9,100.2,75.9,21.1
162.0,64.0,62.7,99.2,75.3,20.7
164.0,63.8,61.2,100.7,75.2,22.1
166.0,65.1,60.5,99.7,75.1,21.4
168.0,63.7,60.7,98.1,74.2,20.7
170.0,62.8,60.2,97.4,73.5,20.7
172.0,61.6,58.9,98.5,73.0,22.1
174.0,60.5,58.2,100.5,73.1,23.8
176.0,61.1,58.8,101.8,73.9,24.2
178.0,60.7,57.1,106.3,74.7,27.4
180.0,59.5,56.7,113.7,76.6,32.1
182.0,59.4,55.5,120.9,78.6,36.7
184.0,57.9,54.3,125.1,79.1,39.9
186.0,57.0,55.1,125.8,79.3,40.3
188.0,55.6,55.2,125.5,78.7,40.5
190.0,54.9,55.3,124.0,78.1,39.8
192.0,53.3,55.7,126.4,78.5,41.6
194.0,53.1,55.0,124.6,77.6,40.8
196.0,51.9,54.7,121.9,76.2,39.7
198.0,50.7,55.3,118.1,74.7,37.7
200.0,50.0,54.6,114.2,72.9,35.8
202.0,49.5,55.2,110.0,71.6,33.4
204.0,49.0,55.3,106.4,70.2,31.5
206.0,48.5,55.0,103.0,68.8,29.7
208.0,48.4,56.0,97.9,67.4,26.6
210.0,48.2,55.7,94.2,66.0,24.7
212.0,48.5,55.3,90.0,64.6,22.2
214.0,48.8,54.7,87.4,63.6,20.8
216.0,49.2,54.0,84.0,62.4,18.9
218.0,49.4,53.1,82.6,61.7,18.2
220.0,51.1,52.8,83.3,62.4,18.1
222.0,53.0,52.7,80.2,62.0,15.8
224.0,53.8,51.7,80.2,61.9,15.9
226.0,53.0,52.7,77.0,60.9,13.9
228.0,53.6,51.2,76.8,60.5,14.1
230.0,53.9,51.5,73.5,59.6,12.1
232.0,55.1,51.5,71.8,59.5,10.9
234.0,57.1,51.3,72.6,60.3,11.0
236.0,56.8,51.9,71.5,60.1,10.2
238.0,56.0,52.6,73.1,60.6,11.0
240.0,58.0,53.5,75.5,62.3,11.6
242.0,58.6,54.9,76.8,63.4,11.7
244.0,61.0,57.7,74.5,64.4,8.9
246.0,62.7,62.5,74.9,66.7,7.1
248.0,62.0,65.4,74.6,67.4,6.5
250.0,63.7,68.0,73.0,68.2,4.7
252.0,64.6,70.9,72.2,69.2,4.1
254.0,64.7,71.9,69.5,68.7,3.6
256.0,65.9,73.6,67.2,68.9,4.1
258.0,68.4,75.1,66.0,69.8,4.7
260.0,68.3,78.4,63.6,70.1,7.6
262.0,69.3,78.8,63.8,70.6,7.6
264.0,68.6,81.3,63.2,71.1,9.3
266.0,71.2,81.2,62.8,71.7,9.2
268.0,70.1,83.0,61.7,71.6,10.8
270.0,72.5,85.0,63.0,73.5,11.1
272.0,73.6,88.8,61.9,74.8,13.5
274.0,73.4,91.5,62.5,75.8,14.6
276.0,74.7,94.2,62.8,77.3,15.8
278.0,73.2,94.6,62.8,76.9,16.2
280.0,72.3,92.9,63.4,76.2,15.2
282.0,74.2,93.8,64.2,77.4,15.1
284.0,74.2,94.0,64.3,77.5,15.1
286.0,74.7,92.6,64.6,77.3,14.2
288.0,72.4,92.1,65.2,76.6,13.9
290.0,70.9,92.8,64.2,76.0,15.0
292.0,68.4,90.4,63.9,74.2,14.2
294.0,65.9,90.5,63.9,73.4,14.8
296.0,65.6,89.6,63.4,72.9,14.5
298.0,64.1,88.8,62.8,71.9,14.6
300.0,62.5,89.7,63.6,72.0,15.4
302.0,61.6,91.9,63.8,72.4,16.9
304.0,60.9,89.1,63.8,71.3,15.5
306.0,60.3,92.7,64.5,72.5,17.6
308.0,59.5,91.9,66.3,72.6,17.0
310.0,57.9,91.4,66.1,71.8,17.4
312.0,56.2,90.9,64.7,70.6,18.0
314.0,55.1,92.8,63.7,70.5,19.8
316.0,56.5,95.4,64.5,72.1,20.5
318.0,58.2,98.6,66.1,74.3,21.4
320.0,59.8,99.8,68.7,76.1,21.0
322.0,63.6,102.5,70.1,78.7,20.9
324.0,66.9,106.8,72.9,82.2,21.5
326.0,69.6,108.6,77.7,85.3,20.6
328.0,75.8,109.5,80.7,88.7,18.2
330.0,82.3,112.4,83.5,92.8,17.1
332.0,88.1,109.6,84.6,94.1,13.6
334.0,94.4,110.2,85.8,96.8,12.4
336.0,102.9,107.9,86.2,99.0,11.4
338.0,107.3,105.2,84.8,99.1,12.4
340.0,111.0,106.3,83.0,100.1,15.0
342.0,112.6,104.6,82.1,99.8,15.8
344.0,110.5,102.7,81.3,98.1,15.1
346.0,109.8,99.3,79.7,96.3,15.3
348.0,107.8,94.3,78.9,93.7,14.5
350.0,105.9,87.8,79.0,90.9,13.7
352.0,101.5,84.1,75.6,87.1,13.2
354.0,95.8,81.0,74.6,83.8,10.9
356.0,94.7,78.0,72.5,81.7,11.6
358.0,92.0,73.9,70.9,78.9,11.4
360.0,92.4,71.3,69.0,77.6,12.9
362.0,94.3,69.6,67.7,77.2,14.8
364.0,96.2,66.1,66.3,76.2,17.3
366.0,102.5,63.7,64.2,76.8,22.2
368.0,104.5,62.2,64.0,76.9,23.9
370.0,107.2,61.4,63.1,77.2,26.0
372.0,106.7,58.5,62.2,75.8,26.8
374.0,107.6,55.8,61.8,75.1,28.4
376.0,106.9,55.6,61.7,74.7,28.1
378.0,106.3,53.4,60.8,73.5,28.6
380.0,104.5,51.7,59.4,71.9,28.6
382.0,103.5,49.7,60.0,71.1,28.6
384.0,101.5,48.0,59.4,69.6,28.2
386.0,98.8,46.5,60.4,68.6,27.1
388.0,95.8,44.5,60.7,67.0,26.3
390.0,93.0,42.9,60.7,65.5,25.4
392.0,89.2,41.8,59.9,63.6,23.9
394.0,83.6,40.1,59.6,61.1,21.8
396.0,79.6,38.5,58.2,58.8,20.5
398.0,75.3,38.8,57.2,57.1,18.2
400.0,72.3,40.2,57.2,56.6,16.1
402.0,71.4,44.4,57.6,57.8,13.5
404.0,69.8,48.0,56.7,58.2,11.0
406.0,65.3,50.7,57.3,57.8,7.3
408.0,63.3,54.3,58.2,58.6,4.5
410.0,61.8,56.2,58.2,58.8,2.8
412.0,59.2,56.5,56.8,57.5,1.5
414.0,58.0,56.8,55.8,56.9,1.1
416.0,56.7,57.4,53.5,55.9,2.1
418.0,56.2,57.5,51.8,55.2,3.0
420.0,54.1,55.7,50.0,53.3,2.9
422.0,52.3,55.0,50.5,52.6,2.3
424.0,50.6,53.3,49.5,51.1,1.9
426.0,50.9,52.8,49.3,51.0,1.7
428.0,49.7,53.1,48.3,50.4,2.5
430.0,48.7,51.1,47.9,49.2,1.7
432.0,48.2,50.2,47.5,48.6,1.4
434.0,47.0,50.1,47.4,48.2,1.7
436.0,46.1,49.9,45.9,47.3,2.2
438.0,44.9,47.9,45.5,46.1,1.6
440.0,44.1,46.9,44.3,45.1,1.6
442.0,44.5,45.8,42.1,44.2,1.9
444.0,43.5,46.0,41.4,43.6,2.3
446.0,43.0,44.4,40.9,42.8,1.8
448.0,42.6,43.2,39.6,41.8,1.9
450.0,41.9,42.9,37.8,40.9,2.7
452.0,40.9,42.3,38.1,40.4,2.1
454.0,39.8,41.0,37.6,39.4,1.7
456.0,39.2,42.4,36.7,39.4,2.8
458.0,38.4,41.3,35.2,38.3,3.1
460.0,39.5,41.6,33.9,38.3,4.0
462.0,40.8,41.8,33.2,38.6,4.7
464.0,40.7,41.9,31.6,38.1,5.6
466.0,40.9,42.0,31.1,38.0,6.0
468.0,40.6,41.6,30.2,37.5,6.3
470.0,40.9,41.6,29.0,37.2,7.1
472.0,40.4,42.0,28.4,36.9,7.4
474.0,41.4,41.7,27.0,36.7,8.4
476.0,42.2,41.6,25.3,36.4,9.6
478.0,42.0,41.4,24.1,35.8,10.1
480.0,43.5,40.6,23.2,35.8,11.0
482.0,43.9,41.0,22.6,35.8,11.6
484.0,45.0,40.7,21.8,35.9,12.3
486.0,45.8,40.2,21.4,35.8,12.8
488.0,47.0,39.3,,43.2,5.4
490.0,47.5,39.1,,43.3,6.0
492.0,47.7,38.1,,42.9,6.8
494.0,49.5,38.4,,44.0,7.8
496.0,50.2,38.6,,44.4,8.2
498.0,50.7,38.4,,44.5,8.7
500.0,51.3,38.2,,44.8,9.3
502.0,51.7,38.6,,45.2,9.3
504.0,52.7,38.2,,45.4,10.3
506.0,52.8,38.0,,45.4,10.5
508.0,53.2,37.6,,45.4,11.0
510.0,53.3,36.2,,44.8,12.1
512.0,54.7,35.9,,45.3,13.3
514.0,55.6,35.2,,45.4,14.5
516.0,56.2,33.9,,45.1,15.8
518.0,56.9,33.3,,45.1,16.7
520.0,57.2,32.0,,44.6,17.8
522.0,57.9,31.9,,44.9,18.4
524.0,58.5,31.4,,44.9,19.2
526.0,58.7,29.6,,44.2,20.6
528.0,58.7,30.0,,44.4,20.3
530.0,58.0,29.1,,43.5,20.4
532.0,57.6,28.0,,42.8,20.9
534.0,56.7,26.7,,41.7,21.2
536.0,55.9,25.8,,40.8,21.3
538.0,52.9,24.5,,38.7,20.1
540.0,50.1,23.3,,36.7,19.0
542.0,48.4,22.8,,35.6,18.1
544.0,45.3,21.8,,33.5,16.6
546.0,42.5,21.0,,31.8,15.2
548.0,40.0,20.1,,30.1,14.0
550.0,35.5,19.4,,27.5,11.4
552.0,31.4,19.0,,25.2,8.8
554.0,29.0,17.5,,23.3,8.1
556.0,25.6,16.1,,20.9,6.7
558.0,23.0,15.3,,19.2,5.4
560.0,20.7,14.3,,17.5,4.6
562.0,19.7,,,19.7,
563.5,18.8,,,18.8,

File: PVC_HRRPUA_75.csv
Time after Ignition,PVC_R1,PVC_R2,PVC_R3,Mean,Std. Dev.
0.0,221.5,199.8,183.4,201.6,19.1
1.25,250.8,236.1,228.1,238.3,11.5
2.5,275.1,262.5,255.5,264.4,10.0
3.75,289.9,290.0,282.0,287.3,4.6
5.0,296.2,301.5,295.3,297.7,3.4
6.25,301.8,305.7,306.9,304.8,2.7
7.5,282.6,306.5,310.2,299.8,15.0
8.75,245.8,312.3,303.9,287.3,36.2
10.0,233.1,316.6,305.3,285.0,45.3
11.25,204.7,311.4,312.0,276.0,61.8
12.5,203.4,318.3,309.0,276.9,63.8
13.75,189.3,318.7,295.7,267.9,69.1
15.0,188.6,314.4,307.5,270.1,70.7
16.25,203.0,317.7,311.9,277.5,64.6
17.5,219.9,313.2,309.1,280.7,52.8
18.75,250.0,315.6,308.4,291.3,36.0
20.0,256.8,297.6,304.1,286.2,25.6
21.25,267.0,287.0,303.2,285.7,18.1
22.5,272.6,274.3,294.3,280.4,12.0
23.75,264.5,262.5,271.6,266.2,4.8
25.0,266.3,255.0,267.2,262.8,6.8
26.25,255.3,254.1,256.9,255.4,1.4
27.5,249.2,249.0,250.9,249.7,1.0
28.75,235.5,242.9,242.6,240.3,4.2
30.0,236.3,238.9,235.9,237.0,1.6
31.25,229.4,233.8,230.3,231.2,2.3
32.5,216.2,229.0,223.6,222.9,6.4
33.75,218.9,225.0,220.7,221.5,3.2
35.0,203.2,227.2,220.1,216.8,12.4
36.25,201.0,226.4,219.7,215.7,13.2
37.5,199.2,217.1,216.4,210.9,10.2
38.75,196.4,218.6,211.2,208.7,11.3
40.0,195.3,211.3,207.6,204.7,8.4
41.25,191.2,212.1,207.7,203.7,11.0
42.5,189.0,206.0,206.9,200.6,10.1
43.75,187.5,201.8,202.8,197.4,8.6
45.0,180.9,198.1,200.5,193.2,10.7
46.25,178.6,196.9,199.9,191.8,11.5
47.5,179.8,190.6,197.1,189.2,8.8
48.75,182.1,190.4,194.7,189.1,6.4
50.0,177.6,181.7,192.9,184.1,7.9
51.25,177.5,184.4,190.3,184.1,6.4
52.5,177.3,182.7,190.3,183.5,6.6
53.75,175.5,185.5,187.5,182.8,6.4
55.0,171.5,179.9,189.3,180.2,8.9
56.25,171.7,180.3,187.7,179.9,8.0
57.5,170.0,179.6,183.2,177.6,6.8
58.75,169.6,179.6,180.1,176.5,5.9
60.0,166.5,177.9,180.3,174.9,7.4
61.25,167.9,173.4,177.0,172.8,4.6
62.5,169.0,174.6,178.4,174.0,4.7
63.75,165.1,176.1,174.5,171.9,5.9
65.0,165.1,173.7,174.8,171.2,5.3
66.25,163.3,171.4,172.0,168.9,4.9
67.5,163.4,170.3,173.7,169.1,5.3
68.75,164.0,168.9,175.0,169.3,5.5
70.0,162.5,166.7,172.1,167.1,4.8
71.25,162.4,165.2,169.7,165.8,3.6
72.5,158.7,163.1,166.1,162.6,3.7
73.75,156.9,162.1,163.7,160.9,3.6
75.0,155.0,160.9,161.3,159.0,3.5
76.25,153.1,159.3,162.4,158.3,4.7
77.5,152.0,158.2,163.3,157.8,5.7
78.75,152.0,158.7,162.6,157.8,5.4
80.0,147.0,156.6,162.3,155.3,7.7
81.25,145.7,153.7,166.2,155.2,10.3
82.5,143.6,154.0,161.6,153.1,9.0
83.75,140.0,151.9,162.9,151.6,11.4
85.0,136.8,146.7,165.9,149.8,14.8
86.25,134.8,147.1,161.0,147.6,13.1
87.5,134.0,147.1,157.8,146.3,11.9
88.75,129.3,143.8,159.6,144.2,15.1
90.0,130.0,145.0,160.2,145.1,15.1
91.25,129.6,142.7,157.4,143.2,13.9
92.5,128.6,141.7,155.2,141.8,13.3
93.75,128.2,138.4,158.0,141.6,15.1
95.0,128.3,140.2,158.2,142.2,15.1
96.25,127.1,137.3,156.0,140.1,14.6
97.5,126.3,139.2,155.9,140.5,14.8
98.75,124.8,139.0,153.6,139.1,14.4
100.0,124.8,136.2,152.1,137.7,13.7
101.25,122.7,135.9,151.2,136.6,14.3
102.5,123.5,138.0,150.9,137.5,13.7
103.75,119.4,137.7,150.8,136.0,15.8
105.0,121.0,139.5,148.2,136.2,13.9
106.25,120.8,135.2,142.6,132.9,11.1
107.5,124.5,138.2,143.7,135.5,9.9
108.75,122.5,139.1,143.8,135.1,11.2
110.0,120.5,140.3,142.7,134.5,12.2
111.25,121.1,141.0,144.1,135.4,12.5
112.5,118.4,139.2,142.3,133.3,13.0
113.75,121.4,141.3,141.7,134.8,11.6
115.0,120.1,142.8,144.0,135.6,13.5
116.25,122.0,145.4,138.4,135.3,12.0
117.5,122.9,152.1,140.2,138.4,14.7
118.75,121.5,151.4,141.1,138.0,15.2
120.0,125.5,155.4,141.4,140.8,15.0
121.25,123.9,158.5,141.2,141.2,17.3
122.5,125.2,159.7,141.3,142.1,17.2
123.75,124.4,165.3,141.1,143.6,20.6
125.0,126.3,166.8,142.8,145.3,20.4
126.25,127.6,170.5,144.4,147.5,21.6
127.5,127.0,169.7,145.8,147.5,21.4
128.75,126.8,174.2,149.6,150.2,23.7
130.0,129.9,171.4,146.5,149.3,20.9
131.25,129.4,174.1,148.4,150.6,22.4
132.5,130.5,170.2,150.0,150.3,19.9
133.75,131.6,168.6,149.0,149.7,18.5
135.0,128.7,165.6,150.4,148.2,18.5
136.25,132.5,160.5,150.4,147.8,14.2
137.5,133.7,163.4,148.8,148.7,14.8
138.75,137.0,160.0,148.4,148.5,11.5
140.0,135.5,157.7,150.7,147.9,11.4
141.25,136.7,156.3,151.4,148.1,10.2
142.5,138.0,155.7,152.0,148.6,9.3
143.75,135.4,159.2,151.2,148.6,12.1
145.0,137.4,159.1,151.5,149.4,11.0
146.25,137.4,158.9,154.4,150.2,11.3
147.5,138.0,156.8,151.7,148.8,9.8
148.75,137.2,157.7,147.3,147.4,10.3
150.0,139.0,155.6,147.4,147.3,8.3
151.25,135.4,153.5,144.5,144.5,9.1
152.5,135.5,153.5,143.4,144.2,9.0
153.75,132.3,147.5,140.3,140.0,7.6
155.0,131.8,148.1,139.2,139.7,8.2
156.25,135.8,142.4,139.3,139.1,3.3
157.5,134.8,141.8,137.0,137.9,3.5
158.75,134.5,139.6,134.9,136.3,2.8
160.0,131.2,138.6,131.0,133.6,4.3
161.25,131.0,138.2,129.8,133.0,4.5
162.5,133.0,132.4,131.0,132.1,1.0
163.75,134.8,130.7,129.8,131.8,2.7
165.0,133.0,130.5,127.0,130.2,3.0
166.25,133.9,129.0,128.2,130.4,3.1
167.5,133.0,125.8,127.6,128.8,3.7
168.75,132.2,124.3,126.5,127.7,4.1
170.0,134.6,124.4,125.3,128.1,5.6
171.25,132.7,120.8,127.4,127.0,5.9
172.5,130.1,122.2,126.7,126.3,4.0
173.75,131.4,120.9,127.3,126.5,5.3
175.0,133.0,119.8,127.5,126.8,6.7
176.25,130.9,118.4,128.0,125.8,6.5
177.5,130.5,115.0,126.7,124.1,8.1
178.75,132.0,113.6,129.0,124.9,9.8
180.0,131.0,112.7,125.7,123.2,9.4
181.25,131.2,110.9,126.2,122.8,10.6
182.5,131.0,110.0,126.4,122.5,11.0
183.75,127.2,111.2,123.3,120.6,8.4
185.0,124.4,109.6,123.6,119.2,8.3
186.25,127.4,107.5,123.1,119.3,10.5
187.5,125.0,107.5,119.9,117.5,9.0
188.75,126.1,108.2,120.2,118.2,9.1
190.0,123.1,107.7,117.5,116.1,7.8
191.25,120.4,104.9,114.5,113.3,7.8
192.5,120.2,103.4,113.4,112.3,8.4
193.75,117.9,104.1,111.6,111.2,6.9
195.0,115.8,101.6,110.0,109.2,7.1
196.25,115.2,100.5,109.6,108.4,7.4
197.5,111.1,98.3,106.9,105.5,6.5
198.75,106.9,98.0,105.8,103.6,4.8
200.0,108.3,97.4,104.7,103.5,5.5
201.25,106.9,96.7,104.3,102.6,5.3
202.5,105.9,95.7,103.1,101.6,5.3
203.75,102.0,94.4,101.9,99.4,4.3
205.0,99.2,94.2,100.7,98.0,3.4
206.25,98.4,93.9,100.3,97.5,3.3
207.5,97.4,93.4,98.3,96.4,2.6
208.75,97.1,92.9,98.8,96.2,3.1
210.0,95.5,91.8,97.9,95.1,3.1
211.25,94.5,92.2,98.7,95.1,3.3
212.5,94.1,91.6,97.3,94.3,2.9
213.75,93.2,91.7,97.7,94.2,3.1
215.0,94.3,91.6,96.7,94.2,2.5
216.25,92.5,90.3,96.4,93.1,3.1
217.5,92.5,91.1,95.5,93.0,2.3
218.75,91.8,90.1,94.6,92.2,2.3
220.0,91.2,90.2,95.0,92.1,2.5
221.25,90.6,89.7,93.3,91.2,1.9
222.5,91.0,88.6,93.6,91.1,2.5
223.75,87.9,87.4,92.3,89.2,2.7
225.0,87.4,87.4,92.4,89.1,2.9
226.25,87.2,84.9,92.0,88.0,3.7
227.5,86.1,83.0,92.1,87.1,4.6
228.75,86.7,81.2,91.9,86.6,5.4
230.0,87.9,79.7,89.4,85.7,5.2
231.25,86.5,78.3,90.6,85.1,6.3
232.5,84.6,77.3,90.3,84.1,6.5
233.75,84.4,77.3,90.0,83.9,6.3
235.0,84.7,76.4,89.3,83.4,6.5
236.25,85.0,76.5,89.0,83.5,6.4
237.5,84.2,76.4,89.6,83.4,6.6
238.75,83.6,74.7,88.7,82.3,7.1
240.0,82.4,74.8,88.7,82.0,7.0
241.25,79.7,73.7,88.4,80.6,7.4
242.5,80.7,74.5,88.6,81.3,7.1
243.75,80.3,73.6,86.5,80.1,6.4
245.0,80.2,73.6,85.9,79.9,6.1
246.25,78.6,74.5,85.9,79.7,5.8
247.5,78.2,72.5,84.4,78.4,5.9
248.75,78.2,72.8,83.0,78.0,5.1
250.0,76.7,73.5,83.4,77.9,5.0
251.25,76.6,73.6,82.9,77.7,4.7
252.5,75.6,74.1,82.1,77.3,4.3
253.75,76.1,74.0,81.9,77.3,4.1
255.0,76.1,73.4,82.2,77.2,4.5
256.25,74.9,73.0,79.5,75.8,3.4
257.5,75.6,71.5,79.9,75.7,4.2
258.75,75.1,71.2,79.5,75.3,4.1
260.0,73.2,69.9,79.7,74.2,5.0
261.25,72.4,69.0,77.9,73.1,4.4
262.5,73.1,68.9,79.4,73.8,5.2
263.75,73.4,67.5,78.0,73.0,5.3
265.0,72.0,66.0,78.1,72.1,6.0
266.25,71.8,65.2,75.8,70.9,5.4
267.5,71.7,64.0,76.7,70.8,6.4
268.75,71.7,63.0,74.8,69.8,6.1
270.0,71.5,61.7,73.9,69.0,6.4
271.25,69.8,62.0,73.9,68.6,6.0
272.5,69.2,59.1,73.0,67.1,7.2
273.75,69.8,60.2,74.6,68.2,7.3
275.0,69.1,57.8,73.0,66.6,7.9
276.25,69.4,58.2,72.2,66.6,7.4
277.5,68.0,58.2,71.7,66.0,7.0
278.75,67.3,57.4,71.9,65.5,7.4
280.0,67.7,56.4,71.2,65.1,7.8
281.25,67.4,56.0,70.0,64.5,7.5
282.5,67.8,55.8,69.9,64.5,7.6
283.75,67.5,54.2,66.9,62.9,7.5
285.0,67.4,54.0,67.6,63.0,7.8
286.25,66.5,52.7,66.1,61.8,7.9
287.5,64.8,52.8,66.3,61.3,7.4
288.75,63.9,51.0,64.0,59.6,7.5
290.0,63.4,50.1,64.6,59.4,8.1
291.25,63.4,50.2,62.7,58.8,7.5
292.5,63.0,50.7,62.7,58.8,7.0
293.75,61.5,49.9,60.8,57.4,6.5
295.0,60.1,49.1,61.5,56.9,6.8
296.25,60.5,47.9,60.0,56.1,7.1
297.5,57.6,46.7,59.5,54.6,6.9
298.75,56.1,45.1,58.4,53.2,7.1
300.0,56.1,44.6,58.1,52.9,7.3
301.25,54.9,43.4,58.4,52.2,7.9
302.5,52.9,,56.2,54.6,2.4
303.75,52.0,,55.5,53.8,2.5
305.0,52.4,,54.9,53.7,1.7
306.25,50.5,,53.7,52.1,2.2
307.5,50.5,,55.1,52.8,3.3
308.75,49.1,,52.8,51.0,2.6
310.0,47.7,,52.4,50.1,3.3
311.25,46.7,,52.8,49.8,4.3
312.5,45.0,,51.0,48.0,4.2
313.75,43.9,,50.4,47.1,4.6
315.0,42.3,,49.8,46.0,5.3
316.25,39.8,,49.6,44.7,6.9
317.5,38.7,,48.7,43.7,7.1
318.75,38.0,,47.7,42.9,6.9
320.0,35.9,,47.7,41.8,8.3
321.25,35.5,,46.1,40.8,7.5
322.5,34.9,,45.5,40.2,7.5
323.75,33.5,,45.6,39.6,8.5
325.0,31.6,,45.4,38.5,9.8
326.25,29.6,,45.6,37.6,11.3
327.5,27.9,,44.4,36.2,11.6
328.5,26.6,,43.9,35.2,12.2