Folder: fsri_materials_database/01_Data/PP/Cone (part 2)

File: PP_HRRPUA_75.csv
Time after Ignition,PP_R1,PP_R2,PP_R3,Mean,Std. Dev.
0.0,11.5,9.6,14.0,11.7,2.2
0.5,15.1,14.9,19.3,16.4,2.5
1.0,19.9,19.2,25.7,21.6,3.6
1.5,25.1,28.1,32.7,28.6,3.9
2.0,32.0,35.7,39.0,35.6,3.5
2.5,40.0,47.1,48.1,45.1,4.5
3.0,50.0,56.1,56.6,54.2,3.7
3.5,61.2,69.5,64.4,65.1,4.2
4.0,74.7,80.8,73.7,76.4,3.8
4.5,86.5,89.2,85.4,87.0,2.0
5.0,102.3,105.1,95.7,101.0,4.9
5.5,116.8,114.7,110.7,114.1,3.1
6.0,125.1,128.8,127.3,127.1,1.9
6.5,135.7,143.5,140.9,140.0,4.0
7.0,150.4,161.6,159.1,157.0,5.9
7.5,165.0,173.5,171.2,169.9,4.4
8.0,174.0,190.1,195.0,186.4,11.0
8.5,191.8,208.1,210.0,203.3,10.0
9.0,201.7,231.0,223.8,218.8,15.3
9.5,224.6,255.1,244.2,241.3,15.5
10.0,237.4,267.6,256.9,253.9,15.3
10.5,249.7,293.4,275.8,273.0,22.0
11.0,275.6,302.7,291.0,289.8,13.6
11.5,295.3,330.9,315.9,314.0,17.9
12.0,319.9,354.2,331.9,335.4,17.4
12.5,333.0,378.8,346.0,352.6,23.6
13.0,352.4,381.6,359.6,364.6,15.2
13.5,379.4,397.7,390.1,389.1,9.2
14.0,396.7,422.3,403.6,407.5,13.3
14.5,419.6,430.2,405.4,418.4,12.5
15.0,433.0,442.0,425.9,433.7,8.1
15.5,448.7,461.9,429.8,446.8,16.2
16.0,467.9,457.4,447.3,457.5,10.3
16.5,495.7,477.1,474.3,482.4,11.6
17.0,506.4,493.8,491.8,497.3,7.9
17.5,532.9,510.9,489.4,511.1,21.8
18.0,550.0,522.4,510.8,527.7,20.2
18.5,565.8,568.8,521.6,552.1,26.4
19.0,573.2,552.6,530.2,552.0,21.5
19.5,602.5,565.4,552.2,573.4,26.1
20.0,609.4,599.5,582.0,597.0,13.9
20.5,647.6,627.9,585.2,620.2,31.9
21.0,638.4,615.3,589.3,614.3,24.6
21.5,695.3,614.4,614.2,641.3,46.8
22.0,707.8,679.7,616.1,667.9,47.0
22.5,734.5,644.5,670.9,683.3,46.3
23.0,712.6,701.2,651.0,688.3,32.8
23.5,770.9,677.5,682.3,710.2,52.6
24.0,768.4,699.7,670.7,712.9,50.2
24.5,786.6,733.1,734.1,751.3,30.6
25.0,815.7,771.2,702.9,763.3,56.8
25.5,815.1,778.2,733.3,775.5,41.0
26.0,820.0,785.2,752.6,785.9,33.7
26.5,853.4,791.2,744.9,796.5,54.5
27.0,830.8,765.1,799.7,798.6,32.9
27.5,817.2,825.0,800.4,814.2,12.6
28.0,920.4,856.9,805.6,861.0,57.5
28.5,879.3,864.1,892.3,878.6,14.1
29.0,889.4,884.9,877.2,883.8,6.1
29.5,925.7,846.2,876.6,882.8,40.1
30.0,850.6,829.9,873.4,851.3,21.8
30.5,911.5,970.5,872.1,918.0,49.5
31.0,951.0,869.2,859.4,893.2,50.3
31.5,979.6,907.5,970.1,952.4,39.1
32.0,1007.9,954.1,1011.0,991.0,32.0
32.5,955.4,960.3,960.8,958.8,3.0
33.0,948.0,985.5,914.2,949.2,35.7
33.5,1075.7,982.4,1023.7,1027.3,46.7
34.0,1025.3,1055.3,1067.3,1049.3,21.6
34.5,1095.7,960.2,1052.2,1036.0,69.2
35.0,1090.0,960.6,1096.9,1049.2,76.8
35.5,1079.6,1063.0,1177.8,1106.8,62.0
36.0,1032.4,1007.3,1206.9,1082.2,108.7
36.5,1205.3,1114.2,1051.3,1123.6,77.4
37.0,1039.5,1146.3,1171.6,1119.1,70.1
37.5,991.3,1171.0,1073.8,1078.7,90.0
38.0,1236.8,1085.9,1174.0,1165.5,75.8
38.5,1174.6,1097.5,1194.8,1155.6,51.3
39.0,1243.6,1241.5,1224.7,1236.6,10.4
39.5,1178.1,1133.0,1365.1,1225.4,123.1
40.0,1232.3,1283.4,1273.0,1262.9,27.0
40.5,1466.7,1158.9,1156.9,1260.8,178.3
41.0,1277.9,1104.0,1210.3,1197.4,87.7
41.5,1330.9,1260.2,1208.9,1266.7,61.3
42.0,1230.1,1160.3,1235.6,1208.7,42.0
42.5,1274.7,1252.5,1529.1,1352.1,153.7
43.0,1333.8,1150.1,1264.7,1249.5,92.8
43.5,1400.3,1333.2,1247.2,1326.9,76.7
44.0,1517.1,1383.3,1675.7,1525.4,146.3
44.5,1703.0,1584.3,1663.3,1650.2,60.4
45.0,1511.5,1386.1,1354.6,1417.4,83.0
45.5,1576.5,1241.8,1556.9,1458.4,187.8
46.0,1739.8,1467.3,1341.7,1516.2,203.5
46.5,1494.8,1435.6,1686.4,1538.9,131.1
47.0,1922.3,1356.7,1494.4,1591.1,295.0
47.5,1597.9,1629.8,1596.0,1607.9,19.0
48.0,1557.7,1608.7,1586.4,1584.3,25.6
48.5,1673.5,1375.0,1864.3,1637.6,246.6
49.0,1856.3,1682.2,1682.9,1740.5,100.3
49.5,1717.6,1430.4,1639.1,1595.7,148.4
50.0,1608.5,1686.2,1825.3,1706.7,109.8
50.5,1634.3,1685.5,1601.4,1640.4,42.4
51.0,1843.6,1818.5,1742.8,1801.6,52.5
51.5,2015.4,1723.2,1929.8,1889.5,150.2
52.0,1818.9,1715.4,1978.8,1837.7,132.7
52.5,1501.8,1651.1,1908.3,1687.1,205.6
53.0,2069.7,2098.9,1947.1,2038.5,80.6
53.5,2018.2,1770.6,2012.6,1933.8,141.4
54.0,2031.4,1852.8,2161.5,2015.2,155.0
54.5,1751.1,2041.0,2051.7,1947.9,170.5
55.0,2004.0,2152.4,1790.8,1982.4,181.8
55.5,2023.5,2074.0,2014.6,2037.4,32.1
56.0,1852.2,1854.6,1810.9,1839.2,24.6
56.5,1885.6,2254.7,1967.2,2035.8,193.9
57.0,2403.0,2109.7,2048.4,2187.0,189.5
57.5,2099.6,1854.6,2286.7,2080.3,216.7
58.0,1937.1,2029.0,1958.1,1974.7,48.1
58.5,2114.5,2243.5,2138.6,2165.5,68.6
59.0,2284.6,2239.0,1804.6,2109.4,265.0
59.5,1859.8,2037.3,2134.1,2010.4,139.1
60.0,2657.1,2086.2,2541.1,2428.1,301.8
60.5,1950.9,1944.7,2297.9,2064.5,202.2
61.0,2786.3,2365.6,2336.6,2496.2,251.7
61.5,2363.4,2108.8,1855.7,2109.3,253.9
62.0,2194.4,2523.0,2196.2,2304.5,189.2
62.5,2487.4,2310.8,2544.9,2447.7,122.0
63.0,2209.7,1859.8,2219.5,2096.3,204.9
63.5,2405.1,2258.5,2067.4,2243.6,169.4
64.0,2273.7,2451.6,1917.5,2214.3,272.0
64.5,2507.9,1851.4,2276.0,2211.7,332.9
65.0,2475.9,2617.5,2237.0,2443.5,192.3
65.5,2658.7,2502.2,1885.0,2348.6,409.1
66.0,2254.2,2554.9,2253.9,2354.3,173.7
66.5,2331.3,2613.8,2075.6,2340.2,269.2
67.0,1998.6,2237.2,2485.3,2240.4,243.4
67.5,2649.9,2241.4,2330.0,2407.1,214.9
68.0,2212.6,2415.4,2261.5,2296.5,105.8
68.5,2283.6,2442.7,2426.0,2384.1,87.5
69.0,2797.4,2705.9,2483.6,2662.3,161.4
69.5,2247.2,2581.0,2272.0,2366.8,186.0
70.0,2372.0,1894.8,2524.5,2263.8,328.5
70.5,2590.7,2850.3,2341.1,2594.0,254.6
71.0,2461.6,2731.6,2861.0,2684.7,203.8
71.5,2082.0,2740.0,2457.1,2426.4,330.1
72.0,2391.8,1931.9,2186.3,2170.0,230.4
72.5,2374.1,2539.1,2439.1,2450.8,83.1
73.0,2256.2,2686.2,3031.0,2657.8,388.2
73.5,2167.2,2628.3,2557.9,2451.1,248.4
74.0,2302.8,2447.4,2316.3,2355.5,79.8
74.5,2145.8,2910.9,2812.1,2622.9,416.2
75.0,2263.1,2830.7,2578.3,2557.4,284.4
75.5,1956.0,2510.9,2531.6,2332.8,326.5
76.0,2173.9,2942.8,2654.4,2590.4,388.4
76.5,2704.9,3093.6,2577.8,2792.1,268.7
77.0,2242.4,2765.4,2249.8,2419.2,299.9
77.5,1961.6,2870.2,2867.9,2566.6,523.9
78.0,2626.4,2621.7,2236.7,2494.9,223.6
78.5,1942.5,2794.3,2468.7,2401.8,429.8
79.0,2693.6,2421.9,2699.5,2605.0,158.6
79.5,2237.4,3452.8,2881.6,2857.2,608.1
80.0,2294.6,2809.3,2962.9,2688.9,350.1
80.5,2278.3,2134.5,2669.1,2360.6,276.7
81.0,2477.1,3108.4,2661.3,2748.9,324.6
81.5,2274.0,2589.5,3182.9,2682.2,461.5
82.0,1953.3,2673.9,2617.9,2415.1,400.8
82.5,2138.8,2522.1,2676.5,2445.8,276.8
83.0,2430.6,3181.8,2559.9,2724.1,401.6
83.5,2182.9,2633.2,2525.2,2447.1,235.1
84.0,2301.0,2545.6,2438.5,2428.4,122.6
84.5,1964.5,2744.6,2547.4,2418.8,405.6
85.0,2021.8,2584.4,2831.7,2479.3,415.0
85.5,2022.8,2670.8,2351.7,2348.5,324.0
86.0,2181.2,2835.7,2319.4,2445.4,345.0
86.5,2047.2,2657.7,2503.7,2402.9,317.5
87.0,1903.0,2395.9,2349.9,2216.3,272.2
87.5,1989.6,2419.8,2392.5,2267.3,240.9
88.0,1823.2,2382.3,2250.5,2152.0,292.3
88.5,1922.0,2416.7,2316.1,2218.3,261.5
89.0,1928.9,2213.5,2263.4,2135.3,180.5
89.5,1803.2,2095.3,2168.5,2022.3,193.3
90.0,1884.0,2103.2,1963.9,1983.7,111.0
90.5,1585.8,2068.4,1879.2,1844.5,243.2
91.0,1654.4,1997.5,1883.3,1845.0,174.7
91.5,1674.9,1895.1,1756.9,1775.6,111.3
92.0,1632.7,1776.4,1712.9,1707.3,72.0
92.5,1603.1,1681.2,1632.8,1639.0,39.4
93.0,1576.3,1559.0,1537.2,1557.5,19.6
93.5,1543.9,1449.2,1487.4,1493.5,47.7
94.0,1529.8,1311.7,1377.2,1406.2,111.9
94.5,1529.2,1226.7,1308.7,1354.9,156.5
95.0,1415.9,1114.6,1197.8,1242.8,155.6
95.5,1390.3,1017.1,1125.9,1177.8,191.9
96.0,1280.1,922.2,1028.6,1076.9,183.8
96.5,1243.1,833.0,933.3,1003.1,213.8
97.0,1183.3,758.9,842.8,928.3,224.8
97.5,1118.6,677.9,772.9,856.5,231.9
98.0,1056.1,606.8,687.6,783.5,239.5
98.5,1034.1,544.4,627.5,735.3,262.1
99.0,968.8,477.0,578.2,674.6,259.7
99.5,904.6,433.3,514.0,617.3,252.1
100.0,837.2,389.5,472.2,566.3,238.2
100.5,763.7,345.4,430.0,513.0,221.1
101.0,695.3,320.5,383.9,466.5,200.6
101.5,634.2,,354.9,494.5,197.5
102.0,559.4,,325.4,442.4,165.5
102.5,517.0,,299.6,408.3,153.7
103.0,466.3,,267.7,367.0,140.4
103.5,419.9,,241.4,330.7,126.2