Folder: fsri_materials_database/01_Data/Fiber_Cement_Board/FTIR/IS/Deprecated

Note: README.md
# Materials and Products Database
### Repository of materials and products properties and fire test data to improve fire modeling and fire investigation.

This project was supported in part by Award No. 2019-DU-BX-0018, awarded by the National Institute of Justice, Office of Justice Programs, U.S. Department of Justice. The opinions, findings, and conclusions or recommendations expressed in this publication / program / exhibition are those of the author(s) and do not necessarily reflect those of the Department of Justice.

***
***

__Cite this database:__ "McKinnon, M., Weinschenk, C., Dow, N., DiDomizio, M., and Madrzykowski, D. Materials and Products Database (Version 1.0.0), Fire Safety Research Institute, UL Research Institutes. Columbia, MD 21045, 2023."

__Cite the Technical Reference Guide:__ "McKinnon, M., Weinschenk, C., and Madrzykowski, D. Materials and Products Database - Technical Reference Guide, Fire Safety Research Institute, UL Research Institutes. Columbia, MD 21045, 2023."

__Cite the User Guide:__ "McKinnon, M., and Weinschenk, C. Materials and Products Database - User Guide, Fire Safety Research Institute, UL Research Institutes. Columbia, MD 21045, 2023."

***
***

## Database Structure

## 01_Data/
Raw data generated from each apparatus are included here in plain-text format. The data is organized first by material, next by the short name of test apparatus used, and where applicable additional filtering by test settings.

### Test Apparatus and Data File Structure
- __Cone Calorimeter__ (Cone)
    + Data file structure includes the material, the short name for the apparatus, heat flux setting and scan/scalar, date of test, and replicate number. Scan is for the raw output data and scalar is for the initial conditions and high-level test parameters. 
        * Example: __MDF_Cone_HF25scalar_210323_R1__ stands for the first replicate of scalar data generated from a medium density fiber board test in cone calorimeter exposed to 25 kW/m<sup>2</sup> on March 23, 2021.
    + A _Cone_Notes.csv_ is generated for each material from the __plot_Cone_data.py__ script. For materials whose experiments deviated from typical behavior relevant pictures are included in the respective material directory.
- __Fourier Transform Infrared Spectrometer__ (FTIR)
    + The FTIR directory contains subdirectories for the Attenuated Total Reflectance method (ATR) and the Integrating Sphere (IS)
    + Data file structure for the ATR experiment files includes the material, the abbreviated name for the apparatus, date of test, and replicate number. 
        * Example: __MDF_ATR_210323_R5__ stands for the fifth replicate of data collected with the ATR accessory conducted on June 8, 2021.
    + Data file structure for the IS experiment files includes the material, the abbreviated name for the apparatus, the measurand, whether the test is a sample measurement or standard reference, date of test, and replicate number.
        * Example: __OSB_IS_REFLECT_MEAS_2

File: Fiber_Cement_Board_IS_S_220928_R1.dpt
7497.03,0.49862
7473.89,0.50836
7450.74,0.50299
7427.6,0.50664
7404.45,0.49614
7381.31,0.49761
7358.16,0.49335
7335.02,0.50316
7311.87,0.50261
7288.73,0.49739
7265.58,0.49767
7242.44,0.49480
7219.29,0.49044
7196.15,0.48999
7173,0.48816
7149.86,0.48674
7126.71,0.48556
7103.57,0.48297
7080.42,0.48557
7057.28,0.47623
7034.13,0.47987
7010.99,0.48000
6987.84,0.48177
6964.7,0.48177
6941.55,0.48397
6918.41,0.48344
6895.26,0.49091
6872.12,0.48033
6848.97,0.48978
6825.83,0.48233
6802.68,0.48674
6779.54,0.48234
6756.39,0.48676
6733.25,0.48928
6710.1,0.49168
6686.96,0.49131
6663.82,0.49023
6640.67,0.49651
6617.53,0.48850
6594.38,0.49759
6571.24,0.49517
6548.09,0.49621
6524.95,0.49404
6501.8,0.49810
6478.66,0.49475
6455.51,0.49770
6432.37,0.49944
6409.22,0.49687
6386.08,0.50472
6362.93,0.49604
6339.79,0.50012
6316.64,0.49743
6293.5,0.49945
6270.35,0.50484
6247.21,0.50318
6224.06,0.50322
6200.92,0.50926
6177.77,0.50741
6154.63,0.50426
6131.48,0.50705
6108.34,0.50603
6085.19,0.50797
6062.05,0.50903
6038.9,0.50934
6015.76,0.50808
5992.61,0.50529
5969.47,0.50153
5946.32,0.50359
5923.18,0.50417
5900.03,0.50383
5876.89,0.50479
5853.74,0.50468
5830.6,0.50582
5807.45,0.50444
5784.31,0.50513
5761.16,0.50666
5738.02,0.50626
5714.87,0.50760
5691.73,0.50764
5668.58,0.50526
5645.44,0.50697
5622.29,0.50792
5599.15,0.50657
5576,0.50663
5552.86,0.50754
5529.71,0.50748
5506.57,0.50813
5483.42,0.50754
5460.28,0.50926
5437.13,0.50914
5413.99,0.50956
5390.84,0.50845
5367.7,0.50727
5344.55,0.50386
5321.41,0.49735
5298.26,0.48742
5275.12,0.47037
5251.97,0.44746
5228.83,0.42302
5205.68,0.41288
5182.54,0.41267
5159.39,0.41899
5136.25,0.42674
5113.1,0.43380
5089.96,0.44096
5066.81,0.44683
5043.67,0.45046
5020.52,0.45867
4997.38,0.46230
4974.23,0.46563
4951.09,0.46806
4927.94,0.47074
4904.8,0.46981
4881.65,0.46809
4858.51,0.46660
4835.36,0.46412
4812.22,0.46118
4789.07,0.45957
4765.93,0.45860
4742.78,0.45882
4719.64,0.46017
4696.49,0.46156
4673.35,0.45771
4650.2,0.45987
4627.06,0.45767
4603.92,0.45595
4580.77,0.45687
4557.63,0.45379
4534.48,0.45256
4511.34,0.44757
4488.19,0.44510
4465.05,0.44123
4441.9,0.43539
4418.76,0.42576
4395.61,0.41784
4372.47,0.41525
4349.32,0.40995
4326.18,0.40178
4303.03,0.40764
4279.89,0.40286
4256.74,0.39611
4233.6,0.39504
4210.45,0.39146
4187.31,0.38793
4164.16,0.38541
4141.02,0.38032
4117.87,0.37156
4094.73,0.36056
4071.58,0.34608
4048.44,0.33318
4025.29,0.33185
4002.15,0.33379
3979,0.33546
3955.86,0.33575
3932.71,0.33634
3909.57,0.33783
3886.42,0.33862
3863.28,0.33771
3840.13,0.33592
3816.99,0.32986
3793.84,0.32285
3770.7,0.31281
3747.55,0.29839
3724.41,0.27489
3701.26,0.23353
3678.12,0.14713
3654.97,0.13314
3631.83,0.11339
3608.68,0.10016
3585.54,0.09299
3562.39,0.08652
3539.25,0.08276
3516.1,0.08033
3492.96,0.07701
3469.81,0.07514
3446.67,0.07358
3423.52,0.07183
3400.38,0.07218
3377.23,0.07100
3354.09,0.07245
3330.94,0.07275
3307.8,0.07351
3284.65,0.07495
3261.51,0.07539
3238.36,0.07826
3215.22,0.07990
3192.07,0.08295
3168.93,0.08551
3145.78,0.08939
3122.64,0.09126
3099.49,0.09427
3076.35,0.09476
3053.2,0.09622
3030.06,0.08947
3006.91,0.10452
2983.77,0.09807
2960.62,0.07576
2937.48,0.07266
2914.33,0.07649
2891.19,0.08882
2868.04,0.08855
2844.9,0.10310
2821.75,0.12914
2798.61,0.14067
2775.46,0.14759
2752.32,0.15200
2729.17,0.15567
2706.03,0.16225
2682.88,0.16899
2659.74,0.17498
2636.59,0.17943
2613.45,0.18181
2590.3,0.18387
2567.16,0.18517
2544.02,0.18308
2520.87,0.17439
2497.73,0.18346
2474.58,0.20025
2451.44,0.20586
2428.29,0.20891
2405.15,0.20988
2382,0.20972
2358.86,0.20845
2335.71,0.20574
2312.57,0.20467
2289.42,0.20355
2266.28,0.19959
2243.13,0.19633
2219.99,0.19547
2196.84,0.19651
2173.7,0.19394
2150.55,0.19007
2127.41,0.18831
2104.26,0.19152
2081.12,0.19216
2057.97,0.19012
2034.83,0.18132
2011.68,0.17470
1988.54,0.16867
1965.39,0.16570
1942.25,0.16069
1919.1,0.16563
1895.96,0.15098
1872.81,0.14007
1849.67,0.15375
1826.52,0.14989
1803.38,0.12769
1780.23,0.12861
1757.09,0.12180
1733.94,0.06531
1710.8,0.09240
1687.65,0.08103
1664.51,0.07116
1641.36,0.06623
1618.22,0.06270
1595.07,0.05963
1571.93,0.06057
1548.78,0.06541
1525.64,0.07091
1502.49,0.06622
1479.35,0.06173
1456.2,0.05206
1433.06,0.05741
1409.91,0.05978
1386.77,0.06566
1363.62,0.06765
1340.48,0.07157
1317.33,0.07238
1294.19,0.07847
1271.04,0.07695
1247.9,0.07903
1224.75,0.08376
1201.61,0.07409
1178.46,0.07116
1155.32,0.07128
1132.17,0.08028
1109.03,0.08394
1085.88,0.09204
1062.74,0.09125
1039.59,0.10290
1016.45,0.11370
993.304,0.08939
970.159,0.07686
947.014,0.07105
923.869,0.06939
900.724,0.06435
877.579,0.06000
854.434,0.05944
831.289,0.05390
808.144,0.04927
784.999,0.04681
761.854,0.04531
738.709,0.04190
715.565,0.04405
692.42,0.05210
669.275,0.07572
646.13,0.06074
622.985,0.05767
599.84,0.06171

File: Fiber_Cement_Board_IS_S_220928_R2.dpt
7497.03,0.50127
7473.89,0.50374
7450.74,0.49800
7427.6,0.50310
7404.45,0.49360
7381.31,0.50059
7358.16,0.49390
7335.02,0.49417
7311.87,0.49795
7288.73,0.49533
7265.58,0.49967
7242.44,0.49894
7219.29,0.49929
7196.15,0.49180
7173,0.49148
7149.86,0.48980
7126.71,0.48333
7103.57,0.48796
7080.42,0.48297
7057.28,0.48240
7034.13,0.48354
7010.99,0.47984
6987.84,0.48180
6964.7,0.47925
6941.55,0.48596
6918.41,0.48606
6895.26,0.48495
6872.12,0.48712
6848.97,0.48669
6825.83,0.48784
6802.68,0.48559
6779.54,0.48803
6756.39,0.48698
6733.25,0.49378
6710.1,0.48654
6686.96,0.48991
6663.82,0.48845
6640.67,0.49354
6617.53,0.49225
6594.38,0.49579
6571.24,0.49286
6548.09,0.49249
6524.95,0.50157
6501.8,0.49567
6478.66,0.49932
6455.51,0.49963
6432.37,0.50409
6409.22,0.49819
6386.08,0.50148
6362.93,0.49879
6339.79,0.50258
6316.64,0.50483
6293.5,0.49812
6270.35,0.50249
6247.21,0.50369
6224.06,0.50290
6200.92,0.50691
6177.77,0.50636
6154.63,0.50579
6131.48,0.50585
6108.34,0.50525
6085.19,0.50693
6062.05,0.51043
6038.9,0.50660
6015.76,0.50933
5992.61,0.50581
5969.47,0.50084
5946.32,0.50018
5923.18,0.50287
5900.03,0.50206
5876.89,0.50383
5853.74,0.50566
5830.6,0.50335
5807.45,0.50436
5784.31,0.50602
5761.16,0.50560
5738.02,0.50873
5714.87,0.50532
5691.73,0.50502
5668.58,0.50533
5645.44,0.50530
5622.29,0.50743
5599.15,0.50700
5576,0.50793
5552.86,0.50666
5529.71,0.50850
5506.57,0.50841
5483.42,0.50910
5460.28,0.50851
5437.13,0.50853
5413.99,0.50930
5390.84,0.50769
5367.7,0.50755
5344.55,0.50610
5321.41,0.49642
5298.26,0.48551
5275.12,0.46967
5251.97,0.44808
5228.83,0.42643
5205.68,0.41393
5182.54,0.41211
5159.39,0.41965
5136.25,0.42713
5113.1,0.43373
5089.96,0.44100
5066.81,0.44699
5043.67,0.45253
5020.52,0.45655
4997.38,0.46144
4974.23,0.46472
4951.09,0.46793
4927.94,0.47025
4904.8,0.47029
4881.65,0.46778
4858.51,0.46636
4835.36,0.46358
4812.22,0.46195
4789.07,0.45892
4765.93,0.45817
4742.78,0.45839
4719.64,0.45933
4696.49,0.46031
4673.35,0.45680
4650.2,0.46004
4627.06,0.45679
4603.92,0.45559
4580.77,0.45515
4557.63,0.45370
4534.48,0.45035
4511.34,0.44722
4488.19,0.44450
4465.05,0.44129
4441.9,0.43428
4418.76,0.42567
4395.61,0.41781
4372.47,0.41454
4349.32,0.40999
4326.18,0.40123
4303.03,0.40671
4279.89,0.40254
4256.74,0.39573
4233.6,0.39475
4210.45,0.39131
4187.31,0.38833
4164.16,0.38575
4141.02,0.38003
4117.87,0.37106
4094.73,0.36036
4071.58,0.34552
4048.44,0.33240
4025.29,0.33204
4002.15,0.33374
3979,0.33592
3955.86,0.33567
3932.71,0.33693
3909.57,0.33820
3886.42,0.33876
3863.28,0.33779
3840.13,0.33529
3816.99,0.33029
3793.84,0.32272
3770.7,0.31271
3747.55,0.29871
3724.41,0.27446
3701.26,0.23397
3678.12,0.14708
3654.97,0.13345
3631.83,0.11407
3608.68,0.10062
3585.54,0.09359
3562.39,0.08729
3539.25,0.08278
3516.1,0.08048
3492.96,0.07824
3469.81,0.07599
3446.67,0.07360
3423.52,0.07278
3400.38,0.07133
3377.23,0.07130
3354.09,0.07178
3330.94,0.07326
3307.8,0.07352
3284.65,0.07458
3261.51,0.07695
3238.36,0.07822
3215.22,0.08070
3192.07,0.08360
3168.93,0.08691
3145.78,0.08924
3122.64,0.09231
3099.49,0.09405
3076.35,0.09527
3053.2,0.09657
3030.06,0.08954
3006.91,0.10461
2983.77,0.09833
2960.62,0.07606
2937.48,0.07341
2914.33,0.07609
2891.19,0.08889
2868.04,0.08922
2844.9,0.10285
2821.75,0.12960
2798.61,0.14025
2775.46,0.14772
2752.32,0.15251
2729.17,0.15573
2706.03,0.16266
2682.88,0.16888
2659.74,0.17495
2636.59,0.17946
2613.45,0.18239
2590.3,0.18415
2567.16,0.18562
2544.02,0.18312
2520.87,0.17468
2497.73,0.18329
2474.58,0.20063
2451.44,0.20628
2428.29,0.20907
2405.15,0.21020
2382,0.20952
2358.86,0.20909
2335.71,0.20647
2312.57,0.20540
2289.42,0.20365
2266.28,0.20041
2243.13,0.19680
2219.99,0.19594
2196.84,0.19720
2173.7,0.19463
2150.55,0.19032
2127.41,0.18913
2104.26,0.19197
2081.12,0.19258
2057.97,0.19082
2034.83,0.18135
2011.68,0.17500
1988.54,0.16891
1965.39,0.16573
1942.25,0.16057
1919.1,0.16586
1895.96,0.15104
1872.81,0.14044
1849.67,0.15366
1826.52,0.15035
1803.38,0.12799
1780.23,0.12880
1757.09,0.12203
1733.94,0.06589
1710.8,0.09240
1687.65,0.08114
1664.51,0.07120
1641.36,0.06678
1618.22,0.06216
1595.07,0.05968
1571.93,0.06076
1548.78,0.06523
1525.64,0.07104
1502.49,0.06617
1479.35,0.06118
1456.2,0.05203
1433.06,0.05773
1409.91,0.05988
1386.77,0.06621
1363.62,0.06784
1340.48,0.07139
1317.33,0.07213
1294.19,0.07867
1271.04,0.07691
1247.9,0.07916
1224.75,0.08358
1201.61,0.07413
1178.46,0.07060
1155.32,0.07150
1132.17,0.08046
1109.03,0.08421
1085.88,0.09207
1062.74,0.09148
1039.59,0.10270
1016.45,0.11275
993.304,0.08949
970.159,0.07664
947.014,0.07144
923.869,0.06871
900.724,0.06422
877.579,0.06041
854.434,0.05970
831.289,0.05517
808.144,0.04878
784.999,0.04609
761.854,0.04491
738.709,0.04208
715.565,0.04395
692.42,0.05250
669.275,0.07691
646.13,0.06183
622.985,0.05808
599.84,0.06270

File: Fiber_Cement_Board_IS_S_220928_R3.dpt
7497.03,0.50307
7473.89,0.50600
7450.74,0.50122
7427.6,0.49107
7404.45,0.49121
7381.31,0.50226
7358.16,0.50263
7335.02,0.50455
7311.87,0.48954
7288.73,0.49063
7265.58,0.49806
7242.44,0.49646
7219.29,0.49781
7196.15,0.48908
7173,0.49524
7149.86,0.49010
7126.71,0.48863
7103.57,0.48279
7080.42,0.48520
7057.28,0.48352
7034.13,0.48306
7010.99,0.47538
6987.84,0.48617
6964.7,0.48638
6941.55,0.48645
6918.41,0.48589
6895.26,0.48856
6872.12,0.48596
6848.97,0.48701
6825.83,0.48488
6802.68,0.48206
6779.54,0.49181
6756.39,0.48769
6733.25,0.49144
6710.1,0.48506
6686.96,0.49493
6663.82,0.49482
6640.67,0.49020
6617.53,0.49112
6594.38,0.49542
6571.24,0.49918
6548.09,0.49966
6524.95,0.49850
6501.8,0.49932
6478.66,0.50060
6455.51,0.50050
6432.37,0.49957
6409.22,0.49982
6386.08,0.49909
6362.93,0.50126
6339.79,0.50280
6316.64,0.50619
6293.5,0.50381
6270.35,0.50373
6247.21,0.50726
6224.06,0.50276
6200.92,0.50602
6177.77,0.50792
6154.63,0.50989
6131.48,0.50743
6108.34,0.50969
6085.19,0.50993
6062.05,0.50639
6038.9,0.51031
6015.76,0.50908
5992.61,0.50825
5969.47,0.50583
5946.32,0.50464
5923.18,0.50696
5900.03,0.50487
5876.89,0.50462
5853.74,0.50645
5830.6,0.50774
5807.45,0.50744
5784.31,0.50648
5761.16,0.50779
5738.02,0.50805
5714.87,0.50750
5691.73,0.50730
5668.58,0.50818
5645.44,0.50801
5622.29,0.51103
5599.15,0.50768
5576,0.50880
5552.86,0.51124
5529.71,0.50945
5506.57,0.51154
5483.42,0.51168
5460.28,0.51103
5437.13,0.51002
5413.99,0.51173
5390.84,0.51184
5367.7,0.50790
5344.55,0.50624
5321.41,0.50165
5298.26,0.48927
5275.12,0.47301
5251.97,0.44886
5228.83,0.42688
5205.68,0.41610
5182.54,0.41497
5159.39,0.42266
5136.25,0.42997
5113.1,0.43771
5089.96,0.44454
5066.81,0.45013
5043.67,0.45453
5020.52,0.45943
4997.38,0.46357
4974.23,0.46932
4951.09,0.47252
4927.94,0.47292
4904.8,0.47197
4881.65,0.47061
4858.51,0.46875
4835.36,0.46579
4812.22,0.46337
4789.07,0.46210
4765.93,0.46075
4742.78,0.46049
4719.64,0.46319
4696.49,0.46222
4673.35,0.45986
4650.2,0.46138
4627.06,0.45852
4603.92,0.45799
4580.77,0.45822
4557.63,0.45532
4534.48,0.45263
4511.34,0.44922
4488.19,0.44628
4465.05,0.44242
4441.9,0.43640
4418.76,0.42766
4395.61,0.41971
4372.47,0.41610
4349.32,0.41141
4326.18,0.40281
4303.03,0.40857
4279.89,0.40519
4256.74,0.39773
4233.6,0.39739
4210.45,0.39262
4187.31,0.39023
4164.16,0.38784
4141.02,0.38236
4117.87,0.37340
4094.73,0.36191
4071.58,0.34785
4048.44,0.33518
4025.29,0.33345
4002.15,0.33581
3979,0.33733
3955.86,0.33784
3932.71,0.33818
3909.57,0.33998
3886.42,0.33998
3863.28,0.33978
3840.13,0.33654
3816.99,0.33177
3793.84,0.32486
3770.7,0.31516
3747.55,0.30116
3724.41,0.27647
3701.26,0.23519
3678.12,0.14749
3654.97,0.13458
3631.83,0.11470
3608.68,0.10108
3585.54,0.09415
3562.39,0.08776
3539.25,0.08278
3516.1,0.08088
3492.96,0.07816
3469.81,0.07493
3446.67,0.07345
3423.52,0.07283
3400.38,0.07218
3377.23,0.07176
3354.09,0.07239
3330.94,0.07297
3307.8,0.07428
3284.65,0.07516
3261.51,0.07606
3238.36,0.07912
3215.22,0.08132
3192.07,0.08429
3168.93,0.08703
3145.78,0.09011
3122.64,0.09353
3099.49,0.09563
3076.35,0.09545
3053.2,0.09719
3030.06,0.09009
3006.91,0.10511
2983.77,0.09845
2960.62,0.07604
2937.48,0.07347
2914.33,0.07660
2891.19,0.08889
2868.04,0.08905
2844.9,0.10370
2821.75,0.12976
2798.61,0.14096
2775.46,0.14842
2752.32,0.15344
2729.17,0.15634
2706.03,0.16310
2682.88,0.16995
2659.74,0.17579
2636.59,0.18083
2613.45,0.18310
2590.3,0.18470
2567.16,0.18596
2544.02,0.18402
2520.87,0.17576
2497.73,0.18454
2474.58,0.20155
2451.44,0.20756
2428.29,0.21036
2405.15,0.21142
2382,0.21093
2358.86,0.20991
2335.71,0.20721
2312.57,0.20643
2289.42,0.20484
2266.28,0.20160
2243.13,0.19774
2219.99,0.19735
2196.84,0.19830
2173.7,0.19569
2150.55,0.19117
2127.41,0.19038
2104.26,0.19304
2081.12,0.19403
2057.97,0.19156
2034.83,0.18277
2011.68,0.17602
1988.54,0.16962
1965.39,0.16659
1942.25,0.16136
1919.1,0.16632
1895.96,0.15145
1872.81,0.14097
1849.67,0.15451
1826.52,0.15069
1803.38,0.12836
1780.23,0.12886
1757.09,0.12265
1733.94,0.06547
1710.8,0.09319
1687.65,0.08193
1664.51,0.07193
1641.36,0.06691
1618.22,0.06254
1595.07,0.05954
1571.93,0.06065
1548.78,0.06532
1525.64,0.07130
1502.49,0.06655
1479.35,0.06199
1456.2,0.05199
1433.06,0.05747
1409.91,0.06015
1386.77,0.06605
1363.62,0.06789
1340.48,0.07179
1317.33,0.07227
1294.19,0.07873
1271.04,0.07708
1247.9,0.07924
1224.75,0.08336
1201.61,0.07395
1178.46,0.07128
1155.32,0.07146
1132.17,0.08060
1109.03,0.08425
1085.88,0.09241
1062.74,0.09095
1039.59,0.10302
1016.45,0.11400
993.304,0.08849
970.159,0.07748
947.014,0.07124
923.869,0.06905
900.724,0.06414
877.579,0.06023
854.434,0.06021
831.289,0.05443
808.144,0.04860
784.999,0.04618
761.854,0.04595
738.709,0.04165
715.565,0.04309
692.42,0.05138
669.275,0.07672
646.13,0.06191
622.985,0.05784
599.84,0.06016

File: Fiber_Cement_Board_IS_S_220928_R4.dpt
7497.03,0.49620
7473.89,0.50038
7450.74,0.49783
7427.6,0.49795
7404.45,0.49401
7381.31,0.50401
7358.16,0.49724
7335.02,0.49557
7311.87,0.50763
7288.73,0.49551
7265.58,0.49865
7242.44,0.49424
7219.29,0.49842
7196.15,0.48138
7173,0.48904
7149.86,0.48557
7126.71,0.48483
7103.57,0.48409
7080.42,0.48363
7057.28,0.47985
7034.13,0.48328
7010.99,0.48163
6987.84,0.48186
6964.7,0.47997
6941.55,0.48273
6918.41,0.48006
6895.26,0.48287
6872.12,0.48755
6848.97,0.48471
6825.83,0.48445
6802.68,0.48900
6779.54,0.48604
6756.39,0.48648
6733.25,0.48633
6710.1,0.48616
6686.96,0.48981
6663.82,0.49078
6640.67,0.49365
6617.53,0.49476
6594.38,0.49361
6571.24,0.49255
6548.09,0.49148
6524.95,0.49757
6501.8,0.49563
6478.66,0.49886
6455.51,0.49761
6432.37,0.49849
6409.22,0.49942
6386.08,0.50253
6362.93,0.50035
6339.79,0.50100
6316.64,0.50203
6293.5,0.50631
6270.35,0.50396
6247.21,0.50344
6224.06,0.50312
6200.92,0.50096
6177.77,0.50651
6154.63,0.50558
6131.48,0.50699
6108.34,0.50594
6085.19,0.50938
6062.05,0.50595
6038.9,0.50772
6015.76,0.50411
5992.61,0.50778
5969.47,0.50504
5946.32,0.50399
5923.18,0.50260
5900.03,0.50381
5876.89,0.50659
5853.74,0.50407
5830.6,0.50514
5807.45,0.50323
5784.31,0.50436
5761.16,0.50596
5738.02,0.50750
5714.87,0.50562
5691.73,0.50594
5668.58,0.50345
5645.44,0.50719
5622.29,0.50585
5599.15,0.50651
5576,0.50523
5552.86,0.50870
5529.71,0.50899
5506.57,0.50813
5483.42,0.50950
5460.28,0.50826
5437.13,0.50883
5413.99,0.50892
5390.84,0.50823
5367.7,0.50632
5344.55,0.50408
5321.41,0.49779
5298.26,0.48743
5275.12,0.47157
5251.97,0.45017
5228.83,0.42668
5205.68,0.41426
5182.54,0.41574
5159.39,0.42066
5136.25,0.42856
5113.1,0.43497
5089.96,0.44235
5066.81,0.44652
5043.67,0.45382
5020.52,0.45848
4997.38,0.46264
4974.23,0.46649
4951.09,0.47010
4927.94,0.47090
4904.8,0.47201
4881.65,0.46798
4858.51,0.46825
4835.36,0.46389
4812.22,0.46169
4789.07,0.46057
4765.93,0.45899
4742.78,0.45863
4719.64,0.46018
4696.49,0.46079
4673.35,0.45742
4650.2,0.45956
4627.06,0.45667
4603.92,0.45506
4580.77,0.45562
4557.63,0.45369
4534.48,0.45117
4511.34,0.44789
4488.19,0.44445
4465.05,0.44092
4441.9,0.43438
4418.76,0.42621
4395.61,0.41867
4372.47,0.41549
4349.32,0.41078
4326.18,0.40152
4303.03,0.40778
4279.89,0.40308
4256.74,0.39654
4233.6,0.39520
4210.45,0.39127
4187.31,0.38897
4164.16,0.38544
4141.02,0.38099
4117.87,0.37207
4094.73,0.36067
4071.58,0.34618
4048.44,0.33350
4025.29,0.33273
4002.15,0.33459
3979,0.33650
3955.86,0.33736
3932.71,0.33824
3909.57,0.33895
3886.42,0.33903
3863.28,0.33875
3840.13,0.33614
3816.99,0.33056
3793.84,0.32371
3770.7,0.31474
3747.55,0.30002
3724.41,0.27530
3701.26,0.23481
3678.12,0.14733
3654.97,0.13375
3631.83,0.11462
3608.68,0.10089
3585.54,0.09371
3562.39,0.08748
3539.25,0.08410
3516.1,0.08068
3492.96,0.07817
3469.81,0.07588
3446.67,0.07444
3423.52,0.07300
3400.38,0.07176
3377.23,0.07179
3354.09,0.07224
3330.94,0.07367
3307.8,0.07402
3284.65,0.07423
3261.51,0.07661
3238.36,0.07805
3215.22,0.08087
3192.07,0.08387
3168.93,0.08669
3145.78,0.08947
3122.64,0.09312
3099.49,0.09492
3076.35,0.09542
3053.2,0.09686
3030.06,0.09019
3006.91,0.10479
2983.77,0.09808
2960.62,0.07536
2937.48,0.07309
2914.33,0.07661
2891.19,0.08847
2868.04,0.08917
2844.9,0.10335
2821.75,0.12939
2798.61,0.14130
2775.46,0.14808
2752.32,0.15263
2729.17,0.15631
2706.03,0.16333
2682.88,0.16968
2659.74,0.17543
2636.59,0.18041
2613.45,0.18302
2590.3,0.18445
2567.16,0.18546
2544.02,0.18333
2520.87,0.17507
2497.73,0.18438
2474.58,0.20093
2451.44,0.20695
2428.29,0.20963
2405.15,0.21109
2382,0.21062
2358.86,0.20946
2335.71,0.20727
2312.57,0.20605
2289.42,0.20466
2266.28,0.20091
2243.13,0.19757
2219.99,0.19682
2196.84,0.19775
2173.7,0.19532
2150.55,0.19109
2127.41,0.19022
2104.26,0.19308
2081.12,0.19368
2057.97,0.19164
2034.83,0.18247
2011.68,0.17550
1988.54,0.16953
1965.39,0.16618
1942.25,0.16164
1919.1,0.16628
1895.96,0.15112
1872.81,0.14071
1849.67,0.15412
1826.52,0.15040
1803.38,0.12814
1780.23,0.12908
1757.09,0.12235
1733.94,0.06573
1710.8,0.09244
1687.65,0.08169
1664.51,0.07177
1641.36,0.06675
1618.22,0.06233
1595.07,0.05969
1571.93,0.06081
1548.78,0.06544
1525.64,0.07134
1502.49,0.06652
1479.35,0.06173
1456.2,0.05240
1433.06,0.05770
1409.91,0.06018
1386.77,0.06576
1363.62,0.06783
1340.48,0.07191
1317.33,0.07222
1294.19,0.07895
1271.04,0.07672
1247.9,0.07908
1224.75,0.08335
1201.61,0.07430
1178.46,0.07082
1155.32,0.07145
1132.17,0.08075
1109.03,0.08437
1085.88,0.09281
1062.74,0.09127
1039.59,0.10306
1016.45,0.11339
993.304,0.08900
970.159,0.07685
947.014,0.07183
923.869,0.06921
900.724,0.06447
877.579,0.06014
854.434,0.06089
831.289,0.05456
808.144,0.04845
784.999,0.04666
761.854,0.04525
738.709,0.04302
715.565,0.04472
692.42,0.05267
669.275,0.07696
646.13,0.06047
622.985,0.05816
599.84,0.06151