Folder: fsri_materials_database/01_Data/Fiber_Cement_Board/FTIR/IS/Deprecated (part 2)

File: Fiber_Cement_Board_IS_S_220928_R5.dpt
7497.03,0.50245
7473.89,0.50420
7450.74,0.50039
7427.6,0.49468
7404.45,0.48929
7381.31,0.50469
7358.16,0.49624
7335.02,0.49601
7311.87,0.50086
7288.73,0.49616
7265.58,0.49769
7242.44,0.49586
7219.29,0.49645
7196.15,0.49607
7173,0.49232
7149.86,0.48545
7126.71,0.48230
7103.57,0.48365
7080.42,0.47867
7057.28,0.48218
7034.13,0.48045
7010.99,0.48358
6987.84,0.48772
6964.7,0.48496
6941.55,0.48099
6918.41,0.48416
6895.26,0.48239
6872.12,0.48467
6848.97,0.49066
6825.83,0.48789
6802.68,0.48602
6779.54,0.48194
6756.39,0.48980
6733.25,0.48796
6710.1,0.48894
6686.96,0.49069
6663.82,0.49213
6640.67,0.49637
6617.53,0.49424
6594.38,0.49318
6571.24,0.49699
6548.09,0.49826
6524.95,0.49558
6501.8,0.49896
6478.66,0.49769
6455.51,0.50100
6432.37,0.50252
6409.22,0.49959
6386.08,0.50000
6362.93,0.50322
6339.79,0.50247
6316.64,0.50756
6293.5,0.50636
6270.35,0.50687
6247.21,0.50480
6224.06,0.50761
6200.92,0.50563
6177.77,0.50672
6154.63,0.50700
6131.48,0.50744
6108.34,0.50612
6085.19,0.50587
6062.05,0.50779
6038.9,0.51140
6015.76,0.50743
5992.61,0.50315
5969.47,0.50281
5946.32,0.50305
5923.18,0.50391
5900.03,0.50577
5876.89,0.50243
5853.74,0.50748
5830.6,0.50808
5807.45,0.50410
5784.31,0.50541
5761.16,0.50732
5738.02,0.50684
5714.87,0.50778
5691.73,0.50590
5668.58,0.50577
5645.44,0.50630
5622.29,0.50865
5599.15,0.50955
5576,0.50757
5552.86,0.50792
5529.71,0.50925
5506.57,0.50817
5483.42,0.50749
5460.28,0.50948
5437.13,0.50807
5413.99,0.51074
5390.84,0.50809
5367.7,0.50801
5344.55,0.50449
5321.41,0.49773
5298.26,0.48750
5275.12,0.47154
5251.97,0.44913
5228.83,0.42979
5205.68,0.41491
5182.54,0.41512
5159.39,0.42212
5136.25,0.42980
5113.1,0.43733
5089.96,0.44372
5066.81,0.44792
5043.67,0.45457
5020.52,0.45863
4997.38,0.46371
4974.23,0.46772
4951.09,0.47069
4927.94,0.47114
4904.8,0.47185
4881.65,0.46977
4858.51,0.46774
4835.36,0.46488
4812.22,0.46340
4789.07,0.46065
4765.93,0.45969
4742.78,0.45996
4719.64,0.46104
4696.49,0.46227
4673.35,0.45752
4650.2,0.46017
4627.06,0.45806
4603.92,0.45549
4580.77,0.45707
4557.63,0.45394
4534.48,0.45160
4511.34,0.44900
4488.19,0.44562
4465.05,0.44229
4441.9,0.43459
4418.76,0.42640
4395.61,0.41971
4372.47,0.41566
4349.32,0.41100
4326.18,0.40263
4303.03,0.40864
4279.89,0.40372
4256.74,0.39693
4233.6,0.39590
4210.45,0.39225
4187.31,0.39005
4164.16,0.38713
4141.02,0.38187
4117.87,0.37305
4094.73,0.36159
4071.58,0.34715
4048.44,0.33456
4025.29,0.33265
4002.15,0.33509
3979,0.33717
3955.86,0.33704
3932.71,0.33804
3909.57,0.33962
3886.42,0.33964
3863.28,0.33905
3840.13,0.33643
3816.99,0.33056
3793.84,0.32398
3770.7,0.31454
3747.55,0.30043
3724.41,0.27614
3701.26,0.23521
3678.12,0.14775
3654.97,0.13455
3631.83,0.11524
3608.68,0.10084
3585.54,0.09352
3562.39,0.08739
3539.25,0.08398
3516.1,0.08099
3492.96,0.07855
3469.81,0.07531
3446.67,0.07361
3423.52,0.07302
3400.38,0.07169
3377.23,0.07160
3354.09,0.07237
3330.94,0.07321
3307.8,0.07417
3284.65,0.07474
3261.51,0.07703
3238.36,0.07874
3215.22,0.08138
3192.07,0.08422
3168.93,0.08755
3145.78,0.09026
3122.64,0.09333
3099.49,0.09483
3076.35,0.09579
3053.2,0.09685
3030.06,0.09025
3006.91,0.10527
2983.77,0.09896
2960.62,0.07611
2937.48,0.07342
2914.33,0.07622
2891.19,0.08927
2868.04,0.08912
2844.9,0.10414
2821.75,0.12967
2798.61,0.14160
2775.46,0.14863
2752.32,0.15334
2729.17,0.15656
2706.03,0.16337
2682.88,0.17033
2659.74,0.17581
2636.59,0.18070
2613.45,0.18342
2590.3,0.18491
2567.16,0.18605
2544.02,0.18356
2520.87,0.17533
2497.73,0.18478
2474.58,0.20136
2451.44,0.20736
2428.29,0.21000
2405.15,0.21119
2382,0.21098
2358.86,0.21007
2335.71,0.20756
2312.57,0.20633
2289.42,0.20499
2266.28,0.20157
2243.13,0.19813
2219.99,0.19761
2196.84,0.19862
2173.7,0.19600
2150.55,0.19133
2127.41,0.19065
2104.26,0.19311
2081.12,0.19404
2057.97,0.19212
2034.83,0.18251
2011.68,0.17578
1988.54,0.17009
1965.39,0.16618
1942.25,0.16134
1919.1,0.16631
1895.96,0.15159
1872.81,0.14083
1849.67,0.15446
1826.52,0.15084
1803.38,0.12844
1780.23,0.12915
1757.09,0.12274
1733.94,0.06578
1710.8,0.09274
1687.65,0.08203
1664.51,0.07223
1641.36,0.06703
1618.22,0.06270
1595.07,0.05990
1571.93,0.06068
1548.78,0.06521
1525.64,0.07130
1502.49,0.06654
1479.35,0.06168
1456.2,0.05223
1433.06,0.05761
1409.91,0.06010
1386.77,0.06595
1363.62,0.06782
1340.48,0.07162
1317.33,0.07233
1294.19,0.07854
1271.04,0.07731
1247.9,0.07906
1224.75,0.08340
1201.61,0.07338
1178.46,0.07099
1155.32,0.07169
1132.17,0.08103
1109.03,0.08467
1085.88,0.09245
1062.74,0.09169
1039.59,0.10363
1016.45,0.11319
993.304,0.08928
970.159,0.07687
947.014,0.07078
923.869,0.06903
900.724,0.06420
877.579,0.06052
854.434,0.05960
831.289,0.05492
808.144,0.04919
784.999,0.04662
761.854,0.04628
738.709,0.04332
715.565,0.04465
692.42,0.05226
669.275,0.07680
646.13,0.06121
622.985,0.05695
599.84,0.05834

File: Fiber_Cement_Board_IS_S_220928_R6.dpt
7497.03,0.50362
7473.89,0.49991
7450.74,0.49274
7427.6,0.50916
7404.45,0.50113
7381.31,0.50342
7358.16,0.49059
7335.02,0.50663
7311.87,0.50124
7288.73,0.50649
7265.58,0.49350
7242.44,0.48937
7219.29,0.49630
7196.15,0.48851
7173,0.49381
7149.86,0.48411
7126.71,0.48710
7103.57,0.48397
7080.42,0.48512
7057.28,0.48127
7034.13,0.48830
7010.99,0.48741
6987.84,0.48159
6964.7,0.48499
6941.55,0.48516
6918.41,0.48022
6895.26,0.48369
6872.12,0.48912
6848.97,0.48064
6825.83,0.48177
6802.68,0.48181
6779.54,0.48557
6756.39,0.48803
6733.25,0.48994
6710.1,0.49438
6686.96,0.49171
6663.82,0.49491
6640.67,0.49568
6617.53,0.49277
6594.38,0.49345
6571.24,0.49926
6548.09,0.49658
6524.95,0.49392
6501.8,0.49581
6478.66,0.49751
6455.51,0.50110
6432.37,0.50111
6409.22,0.49695
6386.08,0.50087
6362.93,0.50135
6339.79,0.49791
6316.64,0.50466
6293.5,0.50498
6270.35,0.50448
6247.21,0.50520
6224.06,0.50336
6200.92,0.50600
6177.77,0.50904
6154.63,0.50578
6131.48,0.50804
6108.34,0.50662
6085.19,0.50707
6062.05,0.50926
6038.9,0.50872
6015.76,0.51022
5992.61,0.50502
5969.47,0.50165
5946.32,0.50255
5923.18,0.50229
5900.03,0.50057
5876.89,0.50491
5853.74,0.50519
5830.6,0.50796
5807.45,0.50282
5784.31,0.50544
5761.16,0.50902
5738.02,0.50779
5714.87,0.50591
5691.73,0.50574
5668.58,0.50502
5645.44,0.51032
5622.29,0.50546
5599.15,0.50887
5576,0.50926
5552.86,0.50911
5529.71,0.50934
5506.57,0.50737
5483.42,0.50958
5460.28,0.51116
5437.13,0.51164
5413.99,0.50901
5390.84,0.50983
5367.7,0.50729
5344.55,0.50389
5321.41,0.49787
5298.26,0.48885
5275.12,0.47098
5251.97,0.44879
5228.83,0.42957
5205.68,0.41472
5182.54,0.41575
5159.39,0.42078
5136.25,0.43060
5113.1,0.43808
5089.96,0.44449
5066.81,0.44884
5043.67,0.45520
5020.52,0.46066
4997.38,0.46585
4974.23,0.46896
4951.09,0.47179
4927.94,0.47172
4904.8,0.47263
4881.65,0.47011
4858.51,0.46798
4835.36,0.46641
4812.22,0.46269
4789.07,0.46077
4765.93,0.45962
4742.78,0.46072
4719.64,0.46129
4696.49,0.46163
4673.35,0.45780
4650.2,0.46103
4627.06,0.45808
4603.92,0.45674
4580.77,0.45656
4557.63,0.45589
4534.48,0.45191
4511.34,0.44874
4488.19,0.44533
4465.05,0.44263
4441.9,0.43551
4418.76,0.42614
4395.61,0.41902
4372.47,0.41665
4349.32,0.41144
4326.18,0.40241
4303.03,0.40830
4279.89,0.40407
4256.74,0.39727
4233.6,0.39609
4210.45,0.39321
4187.31,0.39009
4164.16,0.38724
4141.02,0.38170
4117.87,0.37276
4094.73,0.36211
4071.58,0.34687
4048.44,0.33457
4025.29,0.33316
4002.15,0.33570
3979,0.33720
3955.86,0.33743
3932.71,0.33845
3909.57,0.33997
3886.42,0.34029
3863.28,0.33948
3840.13,0.33755
3816.99,0.33231
3793.84,0.32499
3770.7,0.31508
3747.55,0.30109
3724.41,0.27665
3701.26,0.23507
3678.12,0.14697
3654.97,0.13412
3631.83,0.11519
3608.68,0.10122
3585.54,0.09386
3562.39,0.08750
3539.25,0.08363
3516.1,0.08101
3492.96,0.07854
3469.81,0.07646
3446.67,0.07375
3423.52,0.07368
3400.38,0.07190
3377.23,0.07204
3354.09,0.07204
3330.94,0.07372
3307.8,0.07412
3284.65,0.07523
3261.51,0.07693
3238.36,0.07947
3215.22,0.08164
3192.07,0.08439
3168.93,0.08701
3145.78,0.09010
3122.64,0.09352
3099.49,0.09495
3076.35,0.09529
3053.2,0.09776
3030.06,0.09080
3006.91,0.10524
2983.77,0.09898
2960.62,0.07632
2937.48,0.07301
2914.33,0.07668
2891.19,0.08960
2868.04,0.09015
2844.9,0.10390
2821.75,0.12999
2798.61,0.14194
2775.46,0.14865
2752.32,0.15360
2729.17,0.15651
2706.03,0.16338
2682.88,0.17040
2659.74,0.17587
2636.59,0.18094
2613.45,0.18347
2590.3,0.18497
2567.16,0.18634
2544.02,0.18463
2520.87,0.17531
2497.73,0.18458
2474.58,0.20136
2451.44,0.20772
2428.29,0.21095
2405.15,0.21138
2382,0.21120
2358.86,0.21012
2335.71,0.20732
2312.57,0.20651
2289.42,0.20503
2266.28,0.20197
2243.13,0.19806
2219.99,0.19759
2196.84,0.19851
2173.7,0.19607
2150.55,0.19179
2127.41,0.19059
2104.26,0.19341
2081.12,0.19434
2057.97,0.19213
2034.83,0.18271
2011.68,0.17603
1988.54,0.16994
1965.39,0.16657
1942.25,0.16172
1919.1,0.16652
1895.96,0.15173
1872.81,0.14066
1849.67,0.15464
1826.52,0.15067
1803.38,0.12870
1780.23,0.12908
1757.09,0.12256
1733.94,0.06596
1710.8,0.09308
1687.65,0.08164
1664.51,0.07205
1641.36,0.06709
1618.22,0.06281
1595.07,0.05974
1571.93,0.06070
1548.78,0.06574
1525.64,0.07122
1502.49,0.06674
1479.35,0.06135
1456.2,0.05200
1433.06,0.05786
1409.91,0.05989
1386.77,0.06603
1363.62,0.06766
1340.48,0.07181
1317.33,0.07239
1294.19,0.07901
1271.04,0.07685
1247.9,0.07902
1224.75,0.08391
1201.61,0.07421
1178.46,0.07125
1155.32,0.07175
1132.17,0.08118
1109.03,0.08400
1085.88,0.09235
1062.74,0.09182
1039.59,0.10252
1016.45,0.11355
993.304,0.08918
970.159,0.07761
947.014,0.07143
923.869,0.06936
900.724,0.06459
877.579,0.06029
854.434,0.05983
831.289,0.05458
808.144,0.04884
784.999,0.04715
761.854,0.04549
738.709,0.04224
715.565,0.04415
692.42,0.05261
669.275,0.07710
646.13,0.06023
622.985,0.05734
599.84,0.05942

File: Fiber_Cement_Board_IS_S_220928_R7.dpt
7497.03,0.49766
7473.89,0.51191
7450.74,0.49562
7427.6,0.49555
7404.45,0.49478
7381.31,0.50769
7358.16,0.49812
7335.02,0.49414
7311.87,0.49526
7288.73,0.49700
7265.58,0.49806
7242.44,0.49624
7219.29,0.49148
7196.15,0.49182
7173,0.48914
7149.86,0.48563
7126.71,0.48228
7103.57,0.48199
7080.42,0.48065
7057.28,0.47830
7034.13,0.48763
7010.99,0.48134
6987.84,0.48261
6964.7,0.47988
6941.55,0.48560
6918.41,0.48435
6895.26,0.48568
6872.12,0.48776
6848.97,0.48514
6825.83,0.48431
6802.68,0.49286
6779.54,0.48654
6756.39,0.48884
6733.25,0.49093
6710.1,0.48710
6686.96,0.49044
6663.82,0.49418
6640.67,0.48898
6617.53,0.49170
6594.38,0.49249
6571.24,0.49770
6548.09,0.49647
6524.95,0.49957
6501.8,0.49711
6478.66,0.49931
6455.51,0.49824
6432.37,0.49692
6409.22,0.50127
6386.08,0.49981
6362.93,0.50202
6339.79,0.50486
6316.64,0.50115
6293.5,0.50138
6270.35,0.50322
6247.21,0.50451
6224.06,0.50569
6200.92,0.50494
6177.77,0.50406
6154.63,0.50527
6131.48,0.50708
6108.34,0.50603
6085.19,0.50802
6062.05,0.50864
6038.9,0.50701
6015.76,0.50679
5992.61,0.50378
5969.47,0.50370
5946.32,0.50405
5923.18,0.50274
5900.03,0.50216
5876.89,0.50467
5853.74,0.50591
5830.6,0.50489
5807.45,0.50430
5784.31,0.50703
5761.16,0.50667
5738.02,0.50591
5714.87,0.50491
5691.73,0.50498
5668.58,0.50657
5645.44,0.50898
5622.29,0.50767
5599.15,0.50919
5576,0.51051
5552.86,0.50906
5529.71,0.50832
5506.57,0.50752
5483.42,0.50981
5460.28,0.50972
5437.13,0.50866
5413.99,0.50962
5390.84,0.50789
5367.7,0.50764
5344.55,0.50526
5321.41,0.49830
5298.26,0.48809
5275.12,0.47256
5251.97,0.44986
5228.83,0.42721
5205.68,0.41637
5182.54,0.41536
5159.39,0.42271
5136.25,0.43097
5113.1,0.43615
5089.96,0.44379
5066.81,0.44975
5043.67,0.45446
5020.52,0.46001
4997.38,0.46466
4974.23,0.46841
4951.09,0.47154
4927.94,0.47204
4904.8,0.47172
4881.65,0.47037
4858.51,0.46782
4835.36,0.46479
4812.22,0.46199
4789.07,0.46065
4765.93,0.46016
4742.78,0.46010
4719.64,0.46068
4696.49,0.46262
4673.35,0.45833
4650.2,0.46126
4627.06,0.45781
4603.92,0.45610
4580.77,0.45754
4557.63,0.45509
4534.48,0.45221
4511.34,0.44777
4488.19,0.44516
4465.05,0.44170
4441.9,0.43528
4418.76,0.42646
4395.61,0.41896
4372.47,0.41582
4349.32,0.41123
4326.18,0.40201
4303.03,0.40832
4279.89,0.40382
4256.74,0.39674
4233.6,0.39598
4210.45,0.39189
4187.31,0.38993
4164.16,0.38742
4141.02,0.38169
4117.87,0.37276
4094.73,0.36197
4071.58,0.34676
4048.44,0.33442
4025.29,0.33376
4002.15,0.33568
3979,0.33697
3955.86,0.33766
3932.71,0.33870
3909.57,0.33942
3886.42,0.33952
3863.28,0.33893
3840.13,0.33732
3816.99,0.33188
3793.84,0.32484
3770.7,0.31475
3747.55,0.30020
3724.41,0.27644
3701.26,0.23456
3678.12,0.14738
3654.97,0.13419
3631.83,0.11501
3608.68,0.10096
3585.54,0.09396
3562.39,0.08784
3539.25,0.08381
3516.1,0.08132
3492.96,0.07824
3469.81,0.07597
3446.67,0.07395
3423.52,0.07349
3400.38,0.07210
3377.23,0.07233
3354.09,0.07241
3330.94,0.07274
3307.8,0.07414
3284.65,0.07504
3261.51,0.07642
3238.36,0.07901
3215.22,0.08151
3192.07,0.08418
3168.93,0.08667
3145.78,0.08951
3122.64,0.09367
3099.49,0.09528
3076.35,0.09587
3053.2,0.09672
3030.06,0.09038
3006.91,0.10554
2983.77,0.09860
2960.62,0.07629
2937.48,0.07302
2914.33,0.07684
2891.19,0.08928
2868.04,0.08967
2844.9,0.10342
2821.75,0.12995
2798.61,0.14145
2775.46,0.14843
2752.32,0.15348
2729.17,0.15677
2706.03,0.16378
2682.88,0.17042
2659.74,0.17576
2636.59,0.18096
2613.45,0.18345
2590.3,0.18464
2567.16,0.18616
2544.02,0.18395
2520.87,0.17556
2497.73,0.18436
2474.58,0.20194
2451.44,0.20723
2428.29,0.21087
2405.15,0.21167
2382,0.21087
2358.86,0.21047
2335.71,0.20780
2312.57,0.20674
2289.42,0.20570
2266.28,0.20198
2243.13,0.19851
2219.99,0.19774
2196.84,0.19874
2173.7,0.19622
2150.55,0.19230
2127.41,0.19086
2104.26,0.19387
2081.12,0.19454
2057.97,0.19207
2034.83,0.18273
2011.68,0.17593
1988.54,0.16996
1965.39,0.16676
1942.25,0.16174
1919.1,0.16691
1895.96,0.15192
1872.81,0.14074
1849.67,0.15446
1826.52,0.15050
1803.38,0.12819
1780.23,0.12908
1757.09,0.12263
1733.94,0.06535
1710.8,0.09325
1687.65,0.08179
1664.51,0.07187
1641.36,0.06721
1618.22,0.06215
1595.07,0.05986
1571.93,0.06030
1548.78,0.06532
1525.64,0.07144
1502.49,0.06619
1479.35,0.06155
1456.2,0.05208
1433.06,0.05761
1409.91,0.06022
1386.77,0.06593
1363.62,0.06751
1340.48,0.07185
1317.33,0.07214
1294.19,0.07865
1271.04,0.07689
1247.9,0.07924
1224.75,0.08326
1201.61,0.07414
1178.46,0.07072
1155.32,0.07186
1132.17,0.08044
1109.03,0.08443
1085.88,0.09175
1062.74,0.09137
1039.59,0.10252
1016.45,0.11341
993.304,0.08909
970.159,0.07682
947.014,0.07137
923.869,0.06908
900.724,0.06489
877.579,0.06031
854.434,0.05963
831.289,0.05492
808.144,0.04874
784.999,0.04629
761.854,0.04589
738.709,0.04288
715.565,0.04362
692.42,0.05110
669.275,0.07750
646.13,0.06175
622.985,0.05576
599.84,0.06054

File: Fiber_Cement_Board_IS_S_220928_R8.dpt
7497.03,0.50934
7473.89,0.50825
7450.74,0.50152
7427.6,0.50151
7404.45,0.49235
7381.31,0.49928
7358.16,0.48974
7335.02,0.50537
7311.87,0.49735
7288.73,0.49772
7265.58,0.49614
7242.44,0.49201
7219.29,0.49491
7196.15,0.48836
7173,0.49878
7149.86,0.48541
7126.71,0.48024
7103.57,0.48639
7080.42,0.48267
7057.28,0.48517
7034.13,0.47729
7010.99,0.47894
6987.84,0.48171
6964.7,0.48006
6941.55,0.48053
6918.41,0.48550
6895.26,0.48719
6872.12,0.48639
6848.97,0.48985
6825.83,0.48976
6802.68,0.48846
6779.54,0.48958
6756.39,0.48744
6733.25,0.48963
6710.1,0.49157
6686.96,0.49000
6663.82,0.49338
6640.67,0.49126
6617.53,0.49990
6594.38,0.49551
6571.24,0.49622
6548.09,0.49882
6524.95,0.49740
6501.8,0.49623
6478.66,0.49836
6455.51,0.50360
6432.37,0.49998
6409.22,0.49933
6386.08,0.50145
6362.93,0.50435
6339.79,0.50200
6316.64,0.50172
6293.5,0.50269
6270.35,0.50204
6247.21,0.50252
6224.06,0.50146
6200.92,0.50493
6177.77,0.50513
6154.63,0.50907
6131.48,0.50787
6108.34,0.50838
6085.19,0.50608
6062.05,0.51066
6038.9,0.50723
6015.76,0.50946
5992.61,0.50645
5969.47,0.50161
5946.32,0.50449
5923.18,0.50357
5900.03,0.50185
5876.89,0.50524
5853.74,0.50747
5830.6,0.50427
5807.45,0.50326
5784.31,0.50617
5761.16,0.50670
5738.02,0.50545
5714.87,0.50848
5691.73,0.50748
5668.58,0.50543
5645.44,0.50897
5622.29,0.50747
5599.15,0.50996
5576,0.50717
5552.86,0.50838
5529.71,0.50890
5506.57,0.50786
5483.42,0.50848
5460.28,0.51066
5437.13,0.51134
5413.99,0.50784
5390.84,0.50949
5367.7,0.50856
5344.55,0.50503
5321.41,0.49941
5298.26,0.48916
5275.12,0.47120
5251.97,0.44938
5228.83,0.42787
5205.68,0.41708
5182.54,0.41561
5159.39,0.42324
5136.25,0.42994
5113.1,0.43842
5089.96,0.44374
5066.81,0.45038
5043.67,0.45531
5020.52,0.46005
4997.38,0.46497
4974.23,0.46900
4951.09,0.46996
4927.94,0.47143
4904.8,0.47120
4881.65,0.46869
4858.51,0.46843
4835.36,0.46510
4812.22,0.46393
4789.07,0.46069
4765.93,0.46035
4742.78,0.46030
4719.64,0.46130
4696.49,0.46246
4673.35,0.45861
4650.2,0.46022
4627.06,0.45825
4603.92,0.45648
4580.77,0.45659
4557.63,0.45428
4534.48,0.45131
4511.34,0.44790
4488.19,0.44541
4465.05,0.44214
4441.9,0.43534
4418.76,0.42707
4395.61,0.41861
4372.47,0.41656
4349.32,0.41065
4326.18,0.40202
4303.03,0.40885
4279.89,0.40390
4256.74,0.39734
4233.6,0.39607
4210.45,0.39227
4187.31,0.39074
4164.16,0.38742
4141.02,0.38219
4117.87,0.37317
4094.73,0.36211
4071.58,0.34732
4048.44,0.33505
4025.29,0.33352
4002.15,0.33578
3979,0.33748
3955.86,0.33808
3932.71,0.33907
3909.57,0.33954
3886.42,0.34020
3863.28,0.34035
3840.13,0.33726
3816.99,0.33209
3793.84,0.32496
3770.7,0.31513
3747.55,0.30167
3724.41,0.27626
3701.26,0.23569
3678.12,0.14739
3654.97,0.13461
3631.83,0.11545
3608.68,0.10206
3585.54,0.09412
3562.39,0.08776
3539.25,0.08383
3516.1,0.08117
3492.96,0.07838
3469.81,0.07559
3446.67,0.07437
3423.52,0.07308
3400.38,0.07201
3377.23,0.07240
3354.09,0.07210
3330.94,0.07292
3307.8,0.07369
3284.65,0.07549
3261.51,0.07696
3238.36,0.08032
3215.22,0.08120
3192.07,0.08429
3168.93,0.08685
3145.78,0.09022
3122.64,0.09320
3099.49,0.09513
3076.35,0.09604
3053.2,0.09730
3030.06,0.09042
3006.91,0.10604
2983.77,0.09905
2960.62,0.07598
2937.48,0.07325
2914.33,0.07644
2891.19,0.08970
2868.04,0.08933
2844.9,0.10393
2821.75,0.13042
2798.61,0.14176
2775.46,0.14867
2752.32,0.15368
2729.17,0.15692
2706.03,0.16329
2682.88,0.17070
2659.74,0.17632
2636.59,0.18110
2613.45,0.18304
2590.3,0.18501
2567.16,0.18665
2544.02,0.18434
2520.87,0.17615
2497.73,0.18462
2474.58,0.20209
2451.44,0.20776
2428.29,0.21034
2405.15,0.21198
2382,0.21154
2358.86,0.21060
2335.71,0.20834
2312.57,0.20698
2289.42,0.20541
2266.28,0.20209
2243.13,0.19858
2219.99,0.19802
2196.84,0.19937
2173.7,0.19649
2150.55,0.19180
2127.41,0.19112
2104.26,0.19388
2081.12,0.19473
2057.97,0.19213
2034.83,0.18308
2011.68,0.17630
1988.54,0.17003
1965.39,0.16680
1942.25,0.16173
1919.1,0.16700
1895.96,0.15151
1872.81,0.14087
1849.67,0.15449
1826.52,0.15110
1803.38,0.12833
1780.23,0.12957
1757.09,0.12246
1733.94,0.06617
1710.8,0.09296
1687.65,0.08195
1664.51,0.07220
1641.36,0.06669
1618.22,0.06261
1595.07,0.05960
1571.93,0.06058
1548.78,0.06521
1525.64,0.07138
1502.49,0.06631
1479.35,0.06156
1456.2,0.05204
1433.06,0.05768
1409.91,0.05986
1386.77,0.06643
1363.62,0.06754
1340.48,0.07193
1317.33,0.07188
1294.19,0.07849
1271.04,0.07675
1247.9,0.07924
1224.75,0.08329
1201.61,0.07373
1178.46,0.07113
1155.32,0.07168
1132.17,0.08039
1109.03,0.08367
1085.88,0.09212
1062.74,0.09156
1039.59,0.10265
1016.45,0.11334
993.304,0.08953
970.159,0.07717
947.014,0.07150
923.869,0.06905
900.724,0.06379
877.579,0.06045
854.434,0.05938
831.289,0.05520
808.144,0.04914
784.999,0.04641
761.854,0.04552
738.709,0.04243
715.565,0.04413
692.42,0.05320
669.275,0.07746
646.13,0.06170
622.985,0.05749
599.84,0.06279

File: Fiber_Cement_Board_IS_T_220928_R7.dpt
7497.03,0.02669
7473.89,0.02619
7450.74,0.02779
7427.6,0.02971
7404.45,0.03140
7381.31,0.03397
7358.16,0.03090
7335.02,0.02998
7311.87,0.02633
7288.73,0.02696
7265.58,0.02426
7242.44,0.02376
7219.29,0.02849
7196.15,0.01906
7173,0.02804
7149.86,0.02348
7126.71,0.02791
7103.57,0.02661
7080.42,0.02216
7057.28,0.02642
7034.13,0.02226
7010.99,0.02715
6987.84,0.02283
6964.7,0.02256
6941.55,0.02638
6918.41,0.02541
6895.26,0.02859
6872.12,0.02921
6848.97,0.01614
6825.83,0.02895
6802.68,0.01737
6779.54,0.02304
6756.39,0.02200
6733.25,0.01942
6710.1,0.02277
6686.96,0.02731
6663.82,0.02131
6640.67,0.02219
6617.53,0.02870
6594.38,0.02570
6571.24,0.02343
6548.09,0.02512
6524.95,0.02343
6501.8,0.02366
6478.66,0.02185
6455.51,0.02633
6432.37,0.02259
6409.22,0.02212
6386.08,0.02477
6362.93,0.01879
6339.79,0.02115
6316.64,0.02217
6293.5,0.02116
6270.35,0.02130
6247.21,0.02205
6224.06,0.02147
6200.92,0.02003
6177.77,0.02290
6154.63,0.02318
6131.48,0.02476
6108.34,0.02180
6085.19,0.02392
6062.05,0.01996
6038.9,0.02359
6015.76,0.02095
5992.61,0.02206
5969.47,0.02160
5946.32,0.02298
5923.18,0.02023
5900.03,0.02291
5876.89,0.02220
5853.74,0.01957
5830.6,0.02228
5807.45,0.02320
5784.31,0.02225
5761.16,0.02363
5738.02,0.02184
5714.87,0.02334
5691.73,0.01981
5668.58,0.02101
5645.44,0.02118
5622.29,0.02146
5599.15,0.02144
5576,0.02193
5552.86,0.02034
5529.71,0.02099
5506.57,0.01994
5483.42,0.02134
5460.28,0.02107
5437.13,0.02094
5413.99,0.02244
5390.84,0.02171
5367.7,0.02215
5344.55,0.02362
5321.41,0.02149
5298.26,0.02332
5275.12,0.02274
5251.97,0.02216
5228.83,0.02077
5205.68,0.02011
5182.54,0.02208
5159.39,0.02370
5136.25,0.02205
5113.1,0.02358
5089.96,0.02146
5066.81,0.02347
5043.67,0.02223
5020.52,0.02184
4997.38,0.02314
4974.23,0.02207
4951.09,0.02180
4927.94,0.02213
4904.8,0.02107
4881.65,0.02265
4858.51,0.02216
4835.36,0.02312
4812.22,0.02226
4789.07,0.02198
4765.93,0.02140
4742.78,0.02151
4719.64,0.02383
4696.49,0.02237
4673.35,0.02195
4650.2,0.02213
4627.06,0.02318
4603.92,0.02197
4580.77,0.02272
4557.63,0.02172
4534.48,0.02277
4511.34,0.02277
4488.19,0.02244
4465.05,0.02283
4441.9,0.02226
4418.76,0.02160
4395.61,0.02252
4372.47,0.02231
4349.32,0.02223
4326.18,0.02213
4303.03,0.02244
4279.89,0.02295
4256.74,0.02218
4233.6,0.02217
4210.45,0.02191
4187.31,0.02292
4164.16,0.02221
4141.02,0.02220
4117.87,0.02242
4094.73,0.02230
4071.58,0.02228
4048.44,0.02235
4025.29,0.02225
4002.15,0.02211
3979,0.02242
3955.86,0.02267
3932.71,0.02279
3909.57,0.02254
3886.42,0.02314
3863.28,0.02256
3840.13,0.02327
3816.99,0.02216
3793.84,0.02273
3770.7,0.02254
3747.55,0.02288
3724.41,0.02258
3701.26,0.02242
3678.12,0.02268
3654.97,0.02202
3631.83,0.02228
3608.68,0.02204
3585.54,0.02146
3562.39,0.02132
3539.25,0.02126
3516.1,0.02046
3492.96,0.02161
3469.81,0.02078
3446.67,0.02075
3423.52,0.02010
3400.38,0.01992
3377.23,0.02025
3354.09,0.01975
3330.94,0.02007
3307.8,0.02029
3284.65,0.02044
3261.51,0.02008
3238.36,0.02086
3215.22,0.02094
3192.07,0.01987
3168.93,0.02083
3145.78,0.02057
3122.64,0.02113
3099.49,0.02070
3076.35,0.02049
3053.2,0.02033
3030.06,0.02068
3006.91,0.02060
2983.77,0.01960
2960.62,0.01897
2937.48,0.01965
2914.33,0.02029
2891.19,0.02053
2868.04,0.02046
2844.9,0.02102
2821.75,0.02148
2798.61,0.02117
2775.46,0.02138
2752.32,0.02133
2729.17,0.02169
2706.03,0.02142
2682.88,0.02114
2659.74,0.02136
2636.59,0.02113
2613.45,0.02175
2590.3,0.02123
2567.16,0.02127
2544.02,0.02121
2520.87,0.02111
2497.73,0.02065
2474.58,0.02105
2451.44,0.02109
2428.29,0.02100
2405.15,0.02114
2382,0.02125
2358.86,0.02133
2335.71,0.02092
2312.57,0.02143
2289.42,0.02122
2266.28,0.02100
2243.13,0.02111
2219.99,0.02125
2196.84,0.02080
2173.7,0.02115
2150.55,0.02088
2127.41,0.02101
2104.26,0.02103
2081.12,0.02108
2057.97,0.02118
2034.83,0.02074
2011.68,0.02085
1988.54,0.02081
1965.39,0.02069
1942.25,0.02075
1919.1,0.02111
1895.96,0.02097
1872.81,0.02047
1849.67,0.02058
1826.52,0.02008
1803.38,0.02002
1780.23,0.01909
1757.09,0.01745
1733.94,0.01936
1710.8,0.02060
1687.65,0.01953
1664.51,0.01894
1641.36,0.01852
1618.22,0.01897
1595.07,0.01891
1571.93,0.01865
1548.78,0.01823
1525.64,0.01864
1502.49,0.01886
1479.35,0.01861
1456.2,0.01868
1433.06,0.01866
1409.91,0.01855
1386.77,0.01803
1363.62,0.01825
1340.48,0.01762
1317.33,0.01676
1294.19,0.01800
1271.04,0.01924
1247.9,0.02051
1224.75,0.01887
1201.61,0.01896
1178.46,0.01774
1155.32,0.01767
1132.17,0.01813
1109.03,0.01855
1085.88,0.01844
1062.74,0.01984
1039.59,0.01971
1016.45,0.01996
993.304,0.02107
970.159,0.02025
947.014,0.01966
923.869,0.01948
900.724,0.01884
877.579,0.01921
854.434,0.01880
831.289,0.01961
808.144,0.01930
784.999,0.01862
761.854,0.01843
738.709,0.01886
715.565,0.01819
692.42,0.01783
669.275,0.01764
646.13,0.01644
622.985,0.01671
599.84,0.01497