Folder: fsri_materials_database/01_Data/Exterior_Plywood/FTIR/IS (part 2)

File: Exterior_Plywood_IS_S_220927_R5.dpt
7497.03,0.79301
7473.89,0.78512
7450.74,0.78537
7427.6,0.77840
7404.45,0.75994
7381.31,0.75476
7358.16,0.74858
7335.02,0.73785
7311.87,0.73772
7288.73,0.73123
7265.58,0.73536
7242.44,0.73004
7219.29,0.72246
7196.15,0.71689
7173,0.71111
7149.86,0.69722
7126.71,0.68611
7103.57,0.66817
7080.42,0.64865
7057.28,0.63103
7034.13,0.60747
7010.99,0.60048
6987.84,0.58202
6964.7,0.58259
6941.55,0.57246
6918.41,0.57483
6895.26,0.57673
6872.12,0.56817
6848.97,0.56978
6825.83,0.56761
6802.68,0.57028
6779.54,0.57111
6756.39,0.56953
6733.25,0.57800
6710.1,0.57148
6686.96,0.57593
6663.82,0.57636
6640.67,0.57780
6617.53,0.58497
6594.38,0.58059
6571.24,0.59351
6548.09,0.59079
6524.95,0.59390
6501.8,0.59446
6478.66,0.59576
6455.51,0.59830
6432.37,0.59938
6409.22,0.59810
6386.08,0.60209
6362.93,0.60680
6339.79,0.60491
6316.64,0.60685
6293.5,0.60724
6270.35,0.61504
6247.21,0.62099
6224.06,0.62912
6200.92,0.64129
6177.77,0.64162
6154.63,0.64832
6131.48,0.65262
6108.34,0.65851
6085.19,0.66046
6062.05,0.66217
6038.9,0.65642
6015.76,0.65194
5992.61,0.64854
5969.47,0.64823
5946.32,0.64566
5923.18,0.64862
5900.03,0.64466
5876.89,0.63840
5853.74,0.63848
5830.6,0.63770
5807.45,0.63571
5784.31,0.63246
5761.16,0.63542
5738.02,0.63729
5714.87,0.63405
5691.73,0.63252
5668.58,0.63096
5645.44,0.63038
5622.29,0.62896
5599.15,0.63107
5576,0.63240
5552.86,0.63273
5529.71,0.63403
5506.57,0.63624
5483.42,0.63651
5460.28,0.64028
5437.13,0.64512
5413.99,0.64953
5390.84,0.64991
5367.7,0.65040
5344.55,0.64778
5321.41,0.63699
5298.26,0.61507
5275.12,0.58050
5251.97,0.53723
5228.83,0.50695
5205.68,0.49510
5182.54,0.49223
5159.39,0.49984
5136.25,0.51297
5113.1,0.52264
5089.96,0.53428
5066.81,0.54680
5043.67,0.55520
5020.52,0.56218
4997.38,0.56533
4974.23,0.55977
4951.09,0.54839
4927.94,0.53008
4904.8,0.50994
4881.65,0.49025
4858.51,0.47115
4835.36,0.45646
4812.22,0.44451
4789.07,0.43936
4765.93,0.43549
4742.78,0.43541
4719.64,0.43845
4696.49,0.44266
4673.35,0.44937
4650.2,0.45815
4627.06,0.46731
4603.92,0.47950
4580.77,0.48981
4557.63,0.49709
4534.48,0.50206
4511.34,0.50357
4488.19,0.49572
4465.05,0.47770
4441.9,0.45095
4418.76,0.42117
4395.61,0.40625
4372.47,0.41342
4349.32,0.41758
4326.18,0.41204
4303.03,0.40022
4279.89,0.39495
4256.74,0.39750
4233.6,0.39991
4210.45,0.40021
4187.31,0.40319
4164.16,0.40737
4141.02,0.40216
4117.87,0.38826
4094.73,0.36737
4071.58,0.34375
4048.44,0.32083
4025.29,0.30693
4002.15,0.30601
3979,0.31250
3955.86,0.32175
3932.71,0.33332
3909.57,0.34391
3886.42,0.35274
3863.28,0.36158
3840.13,0.37159
3816.99,0.37388
3793.84,0.37387
3770.7,0.36983
3747.55,0.36097
3724.41,0.34537
3701.26,0.31343
3678.12,0.25310
3654.97,0.17636
3631.83,0.12353
3608.68,0.08994
3585.54,0.06772
3562.39,0.05617
3539.25,0.04798
3516.1,0.04346
3492.96,0.04046
3469.81,0.03919
3446.67,0.03784
3423.52,0.03806
3400.38,0.03875
3377.23,0.03852
3354.09,0.03984
3330.94,0.04165
3307.8,0.04449
3284.65,0.04499
3261.51,0.04871
3238.36,0.05164
3215.22,0.05629
3192.07,0.06111
3168.93,0.06698
3145.78,0.07412
3122.64,0.08165
3099.49,0.08971
3076.35,0.09585
3053.2,0.10320
3030.06,0.10861
3006.91,0.10494
2983.77,0.09254
2960.62,0.07096
2937.48,0.06142
2914.33,0.05994
2891.19,0.06193
2868.04,0.06574
2844.9,0.07740
2821.75,0.09931
2798.61,0.11656
2775.46,0.12483
2752.32,0.12881
2729.17,0.13160
2706.03,0.13939
2682.88,0.14962
2659.74,0.15660
2636.59,0.16464
2613.45,0.17207
2590.3,0.17892
2567.16,0.18249
2544.02,0.18345
2520.87,0.18915
2497.73,0.19897
2474.58,0.20929
2451.44,0.21859
2428.29,0.22996
2405.15,0.24230
2382,0.25298
2358.86,0.26177
2335.71,0.26840
2312.57,0.27053
2289.42,0.26820
2266.28,0.26251
2243.13,0.25701
2219.99,0.25399
2196.84,0.24951
2173.7,0.23598
2150.55,0.22492
2127.41,0.22223
2104.26,0.22706
2081.12,0.22944
2057.97,0.22529
2034.83,0.23152
2011.68,0.24518
1988.54,0.25382
1965.39,0.26072
1942.25,0.27216
1919.1,0.27927
1895.96,0.27804
1872.81,0.27557
1849.67,0.26993
1826.52,0.25746
1803.38,0.23484
1780.23,0.19116
1757.09,0.10035
1733.94,0.07031
1710.8,0.08907
1687.65,0.09076
1664.51,0.06762
1641.36,0.06906
1618.22,0.06874
1595.07,0.06349
1571.93,0.09338
1548.78,0.11109
1525.64,0.07594
1502.49,0.05310
1479.35,0.05747
1456.2,0.04465
1433.06,0.04188
1409.91,0.04637
1386.77,0.04252
1363.62,0.04182
1340.48,0.04251
1317.33,0.04123
1294.19,0.04175
1271.04,0.03797
1247.9,0.04047
1224.75,0.04093
1201.61,0.04073
1178.46,0.03423
1155.32,0.03837
1132.17,0.03210
1109.03,0.03615
1085.88,0.03717
1062.74,0.05505
1039.59,0.05698
1016.45,0.06400
993.304,0.06618
970.159,0.07979
947.014,0.09121
923.869,0.09839
900.724,0.08070
877.579,0.08827
854.434,0.09419
831.289,0.09217
808.144,0.07794
784.999,0.07764
761.854,0.07128
738.709,0.06515
715.565,0.05739
692.42,0.05359
669.275,0.05056
646.13,0.04963
622.985,0.04782
599.84,0.05116

File: Exterior_Plywood_IS_S_220927_R6.dpt
7497.03,0.79922
7473.89,0.77103
7450.74,0.77448
7427.6,0.77846
7404.45,0.76360
7381.31,0.75004
7358.16,0.73822
7335.02,0.74717
7311.87,0.73046
7288.73,0.73088
7265.58,0.73924
7242.44,0.72792
7219.29,0.72482
7196.15,0.71386
7173,0.71392
7149.86,0.69858
7126.71,0.69010
7103.57,0.67655
7080.42,0.64308
7057.28,0.63166
7034.13,0.62031
7010.99,0.60137
6987.84,0.58528
6964.7,0.58129
6941.55,0.57758
6918.41,0.57532
6895.26,0.57628
6872.12,0.56867
6848.97,0.56380
6825.83,0.56462
6802.68,0.57092
6779.54,0.56834
6756.39,0.56867
6733.25,0.56751
6710.1,0.57602
6686.96,0.57324
6663.82,0.57512
6640.67,0.57917
6617.53,0.58232
6594.38,0.58329
6571.24,0.58565
6548.09,0.59150
6524.95,0.59249
6501.8,0.59524
6478.66,0.59330
6455.51,0.59297
6432.37,0.60080
6409.22,0.60028
6386.08,0.60270
6362.93,0.60671
6339.79,0.60808
6316.64,0.60730
6293.5,0.61134
6270.35,0.61664
6247.21,0.62230
6224.06,0.63097
6200.92,0.63375
6177.77,0.64206
6154.63,0.64759
6131.48,0.65262
6108.34,0.65504
6085.19,0.66152
6062.05,0.65725
6038.9,0.65879
6015.76,0.65190
5992.61,0.64488
5969.47,0.64443
5946.32,0.64851
5923.18,0.64752
5900.03,0.64568
5876.89,0.63911
5853.74,0.64011
5830.6,0.63692
5807.45,0.62985
5784.31,0.63190
5761.16,0.63600
5738.02,0.63494
5714.87,0.63558
5691.73,0.63253
5668.58,0.63170
5645.44,0.62995
5622.29,0.62937
5599.15,0.62672
5576,0.62657
5552.86,0.63154
5529.71,0.63535
5506.57,0.63590
5483.42,0.63549
5460.28,0.63888
5437.13,0.64137
5413.99,0.64815
5390.84,0.64828
5367.7,0.64928
5344.55,0.64635
5321.41,0.63633
5298.26,0.61465
5275.12,0.57958
5251.97,0.53906
5228.83,0.50989
5205.68,0.49564
5182.54,0.49469
5159.39,0.50106
5136.25,0.51261
5113.1,0.52719
5089.96,0.53520
5066.81,0.54781
5043.67,0.55585
5020.52,0.56452
4997.38,0.56517
4974.23,0.56083
4951.09,0.54781
4927.94,0.53038
4904.8,0.51055
4881.65,0.48932
4858.51,0.46970
4835.36,0.45581
4812.22,0.44432
4789.07,0.43745
4765.93,0.43464
4742.78,0.43397
4719.64,0.43783
4696.49,0.44154
4673.35,0.44902
4650.2,0.45743
4627.06,0.46630
4603.92,0.47954
4580.77,0.48875
4557.63,0.49637
4534.48,0.50191
4511.34,0.50250
4488.19,0.49581
4465.05,0.47798
4441.9,0.45053
4418.76,0.42184
4395.61,0.40638
4372.47,0.41411
4349.32,0.41738
4326.18,0.41113
4303.03,0.40048
4279.89,0.39437
4256.74,0.39711
4233.6,0.39998
4210.45,0.40025
4187.31,0.40264
4164.16,0.40671
4141.02,0.40275
4117.87,0.38889
4094.73,0.36722
4071.58,0.34385
4048.44,0.32037
4025.29,0.30664
4002.15,0.30559
3979,0.31259
3955.86,0.32222
3932.71,0.33320
3909.57,0.34423
3886.42,0.35323
3863.28,0.36188
3840.13,0.37252
3816.99,0.37507
3793.84,0.37373
3770.7,0.37048
3747.55,0.36190
3724.41,0.34574
3701.26,0.31610
3678.12,0.25627
3654.97,0.17860
3631.83,0.12524
3608.68,0.09045
3585.54,0.06831
3562.39,0.05637
3539.25,0.04820
3516.1,0.04339
3492.96,0.04039
3469.81,0.03858
3446.67,0.03861
3423.52,0.03852
3400.38,0.03850
3377.23,0.03933
3354.09,0.03961
3330.94,0.04237
3307.8,0.04386
3284.65,0.04603
3261.51,0.04864
3238.36,0.05202
3215.22,0.05629
3192.07,0.06097
3168.93,0.06731
3145.78,0.07424
3122.64,0.08149
3099.49,0.08970
3076.35,0.09663
3053.2,0.10356
3030.06,0.10880
3006.91,0.10504
2983.77,0.09281
2960.62,0.07078
2937.48,0.06127
2914.33,0.05938
2891.19,0.06137
2868.04,0.06583
2844.9,0.07753
2821.75,0.09898
2798.61,0.11733
2775.46,0.12476
2752.32,0.12850
2729.17,0.13151
2706.03,0.13943
2682.88,0.14952
2659.74,0.15672
2636.59,0.16481
2613.45,0.17255
2590.3,0.17864
2567.16,0.18224
2544.02,0.18329
2520.87,0.18869
2497.73,0.19883
2474.58,0.20891
2451.44,0.21824
2428.29,0.23011
2405.15,0.24209
2382,0.25272
2358.86,0.26189
2335.71,0.26834
2312.57,0.27093
2289.42,0.26865
2266.28,0.26287
2243.13,0.25677
2219.99,0.25448
2196.84,0.25005
2173.7,0.23632
2150.55,0.22557
2127.41,0.22303
2104.26,0.22767
2081.12,0.22995
2057.97,0.22622
2034.83,0.23196
2011.68,0.24613
1988.54,0.25432
1965.39,0.26114
1942.25,0.27281
1919.1,0.27964
1895.96,0.27890
1872.81,0.27604
1849.67,0.27041
1826.52,0.25799
1803.38,0.23528
1780.23,0.19114
1757.09,0.10086
1733.94,0.07010
1710.8,0.08927
1687.65,0.09117
1664.51,0.06796
1641.36,0.06982
1618.22,0.06901
1595.07,0.06328
1571.93,0.09380
1548.78,0.11125
1525.64,0.07596
1502.49,0.05304
1479.35,0.05735
1456.2,0.04455
1433.06,0.04199
1409.91,0.04615
1386.77,0.04300
1363.62,0.04158
1340.48,0.04295
1317.33,0.04125
1294.19,0.04186
1271.04,0.03816
1247.9,0.04064
1224.75,0.04127
1201.61,0.04069
1178.46,0.03474
1155.32,0.03836
1132.17,0.03164
1109.03,0.03657
1085.88,0.03671
1062.74,0.05496
1039.59,0.05635
1016.45,0.06410
993.304,0.06673
970.159,0.08004
947.014,0.09136
923.869,0.09855
900.724,0.08097
877.579,0.08820
854.434,0.09489
831.289,0.09300
808.144,0.07852
784.999,0.07807
761.854,0.07195
738.709,0.06504
715.565,0.05884
692.42,0.05520
669.275,0.05068
646.13,0.04981
622.985,0.04663
599.84,0.04912

File: Exterior_Plywood_IS_S_220927_R7.dpt
7497.03,0.79724
7473.89,0.80144
7450.74,0.78591
7427.6,0.77185
7404.45,0.76164
7381.31,0.75336
7358.16,0.74804
7335.02,0.74033
7311.87,0.73715
7288.73,0.72768
7265.58,0.73400
7242.44,0.73171
7219.29,0.73102
7196.15,0.72342
7173,0.71332
7149.86,0.69270
7126.71,0.68094
7103.57,0.67530
7080.42,0.65278
7057.28,0.62979
7034.13,0.61096
7010.99,0.59154
6987.84,0.58796
6964.7,0.58089
6941.55,0.57608
6918.41,0.57570
6895.26,0.57479
6872.12,0.56985
6848.97,0.57744
6825.83,0.57077
6802.68,0.57110
6779.54,0.57046
6756.39,0.57004
6733.25,0.56827
6710.1,0.57453
6686.96,0.57207
6663.82,0.57501
6640.67,0.57870
6617.53,0.58443
6594.38,0.58694
6571.24,0.59105
6548.09,0.59179
6524.95,0.59621
6501.8,0.59862
6478.66,0.59495
6455.51,0.59405
6432.37,0.60082
6409.22,0.59781
6386.08,0.60379
6362.93,0.60641
6339.79,0.60654
6316.64,0.60826
6293.5,0.61248
6270.35,0.61455
6247.21,0.62712
6224.06,0.62799
6200.92,0.63920
6177.77,0.64655
6154.63,0.64750
6131.48,0.65207
6108.34,0.65830
6085.19,0.66455
6062.05,0.66309
6038.9,0.66031
6015.76,0.65537
5992.61,0.65052
5969.47,0.64593
5946.32,0.64841
5923.18,0.64795
5900.03,0.64492
5876.89,0.63690
5853.74,0.63951
5830.6,0.63858
5807.45,0.63449
5784.31,0.63400
5761.16,0.63562
5738.02,0.63618
5714.87,0.63408
5691.73,0.63276
5668.58,0.63282
5645.44,0.63308
5622.29,0.63120
5599.15,0.63064
5576,0.63323
5552.86,0.63402
5529.71,0.63298
5506.57,0.63620
5483.42,0.64075
5460.28,0.63903
5437.13,0.64380
5413.99,0.64827
5390.84,0.65104
5367.7,0.65238
5344.55,0.64872
5321.41,0.63915
5298.26,0.61841
5275.12,0.58289
5251.97,0.54317
5228.83,0.51368
5205.68,0.50017
5182.54,0.49780
5159.39,0.50547
5136.25,0.51669
5113.1,0.53013
5089.96,0.54083
5066.81,0.54984
5043.67,0.55979
5020.52,0.56633
4997.38,0.56768
4974.23,0.56352
4951.09,0.54939
4927.94,0.53127
4904.8,0.51034
4881.65,0.48912
4858.51,0.47213
4835.36,0.45602
4812.22,0.44425
4789.07,0.43843
4765.93,0.43452
4742.78,0.43469
4719.64,0.43761
4696.49,0.44272
4673.35,0.44883
4650.2,0.45780
4627.06,0.46776
4603.92,0.48026
4580.77,0.48959
4557.63,0.49619
4534.48,0.50195
4511.34,0.50376
4488.19,0.49765
4465.05,0.47817
4441.9,0.45045
4418.76,0.42184
4395.61,0.40652
4372.47,0.41390
4349.32,0.41750
4326.18,0.41167
4303.03,0.40101
4279.89,0.39473
4256.74,0.39789
4233.6,0.40045
4210.45,0.40075
4187.31,0.40291
4164.16,0.40838
4141.02,0.40354
4117.87,0.38906
4094.73,0.36779
4071.58,0.34425
4048.44,0.32114
4025.29,0.30706
4002.15,0.30670
3979,0.31352
3955.86,0.32214
3932.71,0.33369
3909.57,0.34523
3886.42,0.35440
3863.28,0.36262
3840.13,0.37295
3816.99,0.37624
3793.84,0.37495
3770.7,0.37101
3747.55,0.36402
3724.41,0.34785
3701.26,0.31764
3678.12,0.25805
3654.97,0.18102
3631.83,0.12671
3608.68,0.09189
3585.54,0.06907
3562.39,0.05571
3539.25,0.04826
3516.1,0.04318
3492.96,0.04090
3469.81,0.03914
3446.67,0.03803
3423.52,0.03885
3400.38,0.03840
3377.23,0.03883
3354.09,0.04006
3330.94,0.04206
3307.8,0.04387
3284.65,0.04543
3261.51,0.04879
3238.36,0.05228
3215.22,0.05548
3192.07,0.06153
3168.93,0.06792
3145.78,0.07404
3122.64,0.08242
3099.49,0.08996
3076.35,0.09675
3053.2,0.10472
3030.06,0.10978
3006.91,0.10613
2983.77,0.09311
2960.62,0.07063
2937.48,0.06068
2914.33,0.05935
2891.19,0.06137
2868.04,0.06584
2844.9,0.07724
2821.75,0.09954
2798.61,0.11691
2775.46,0.12543
2752.32,0.12919
2729.17,0.13159
2706.03,0.13980
2682.88,0.14990
2659.74,0.15737
2636.59,0.16531
2613.45,0.17293
2590.3,0.17884
2567.16,0.18274
2544.02,0.18363
2520.87,0.18883
2497.73,0.19842
2474.58,0.20947
2451.44,0.21841
2428.29,0.23043
2405.15,0.24267
2382,0.25360
2358.86,0.26213
2335.71,0.26895
2312.57,0.27140
2289.42,0.26925
2266.28,0.26379
2243.13,0.25813
2219.99,0.25580
2196.84,0.25092
2173.7,0.23703
2150.55,0.22622
2127.41,0.22337
2104.26,0.22862
2081.12,0.23103
2057.97,0.22680
2034.83,0.23316
2011.68,0.24676
1988.54,0.25530
1965.39,0.26218
1942.25,0.27369
1919.1,0.28033
1895.96,0.27968
1872.81,0.27731
1849.67,0.27113
1826.52,0.25907
1803.38,0.23619
1780.23,0.19138
1757.09,0.10038
1733.94,0.07041
1710.8,0.08920
1687.65,0.09170
1664.51,0.06860
1641.36,0.07030
1618.22,0.06924
1595.07,0.06341
1571.93,0.09407
1548.78,0.11181
1525.64,0.07595
1502.49,0.05317
1479.35,0.05749
1456.2,0.04497
1433.06,0.04185
1409.91,0.04646
1386.77,0.04283
1363.62,0.04173
1340.48,0.04274
1317.33,0.04146
1294.19,0.04194
1271.04,0.03824
1247.9,0.04018
1224.75,0.04113
1201.61,0.04088
1178.46,0.03464
1155.32,0.03853
1132.17,0.03185
1109.03,0.03649
1085.88,0.03711
1062.74,0.05492
1039.59,0.05744
1016.45,0.06409
993.304,0.06651
970.159,0.08055
947.014,0.09147
923.869,0.09935
900.724,0.08126
877.579,0.08807
854.434,0.09517
831.289,0.09330
808.144,0.07856
784.999,0.07822
761.854,0.07093
738.709,0.06502
715.565,0.05857
692.42,0.05431
669.275,0.05147
646.13,0.04893
622.985,0.04617
599.84,0.04959

File: Exterior_Plywood_IS_S_220927_R8.dpt
7497.03,0.80332
7473.89,0.80640
7450.74,0.78468
7427.6,0.77721
7404.45,0.76232
7381.31,0.74913
7358.16,0.74057
7335.02,0.73357
7311.87,0.73946
7288.73,0.73408
7265.58,0.72872
7242.44,0.72773
7219.29,0.73306
7196.15,0.71384
7173,0.70937
7149.86,0.70655
7126.71,0.68853
7103.57,0.67983
7080.42,0.64753
7057.28,0.63844
7034.13,0.61799
7010.99,0.59792
6987.84,0.58954
6964.7,0.57870
6941.55,0.57840
6918.41,0.57318
6895.26,0.57120
6872.12,0.57432
6848.97,0.57414
6825.83,0.57322
6802.68,0.56978
6779.54,0.57084
6756.39,0.56473
6733.25,0.56970
6710.1,0.57350
6686.96,0.57654
6663.82,0.57953
6640.67,0.57952
6617.53,0.58536
6594.38,0.58677
6571.24,0.59243
6548.09,0.59171
6524.95,0.59355
6501.8,0.59996
6478.66,0.59236
6455.51,0.60361
6432.37,0.59732
6409.22,0.60615
6386.08,0.60536
6362.93,0.60833
6339.79,0.60910
6316.64,0.61035
6293.5,0.61247
6270.35,0.61878
6247.21,0.62385
6224.06,0.63273
6200.92,0.63787
6177.77,0.64534
6154.63,0.64797
6131.48,0.65518
6108.34,0.66039
6085.19,0.66108
6062.05,0.66077
6038.9,0.66199
6015.76,0.65454
5992.61,0.65027
5969.47,0.64428
5946.32,0.64642
5923.18,0.65251
5900.03,0.64503
5876.89,0.64075
5853.74,0.63985
5830.6,0.64074
5807.45,0.63485
5784.31,0.63283
5761.16,0.63539
5738.02,0.63826
5714.87,0.63578
5691.73,0.63642
5668.58,0.63462
5645.44,0.63171
5622.29,0.63118
5599.15,0.63093
5576,0.63181
5552.86,0.63350
5529.71,0.63657
5506.57,0.63724
5483.42,0.63783
5460.28,0.64053
5437.13,0.64306
5413.99,0.64774
5390.84,0.65252
5367.7,0.65249
5344.55,0.64800
5321.41,0.63999
5298.26,0.61927
5275.12,0.58403
5251.97,0.54468
5228.83,0.51495
5205.68,0.50132
5182.54,0.50051
5159.39,0.50765
5136.25,0.51796
5113.1,0.53240
5089.96,0.54230
5066.81,0.55426
5043.67,0.56148
5020.52,0.56853
4997.38,0.57032
4974.23,0.56491
4951.09,0.55048
4927.94,0.53254
4904.8,0.51021
4881.65,0.48982
4858.51,0.47177
4835.36,0.45708
4812.22,0.44516
4789.07,0.43809
4765.93,0.43519
4742.78,0.43570
4719.64,0.43823
4696.49,0.44293
4673.35,0.44913
4650.2,0.45822
4627.06,0.46771
4603.92,0.48013
4580.77,0.49058
4557.63,0.49725
4534.48,0.50261
4511.34,0.50518
4488.19,0.49751
4465.05,0.47830
4441.9,0.45239
4418.76,0.42222
4395.61,0.40662
4372.47,0.41327
4349.32,0.41799
4326.18,0.41170
4303.03,0.40086
4279.89,0.39498
4256.74,0.39816
4233.6,0.40042
4210.45,0.40210
4187.31,0.40360
4164.16,0.40858
4141.02,0.40394
4117.87,0.38957
4094.73,0.36907
4071.58,0.34474
4048.44,0.32209
4025.29,0.30763
4002.15,0.30705
3979,0.31366
3955.86,0.32300
3932.71,0.33372
3909.57,0.34570
3886.42,0.35473
3863.28,0.36364
3840.13,0.37491
3816.99,0.37686
3793.84,0.37594
3770.7,0.37270
3747.55,0.36454
3724.41,0.34964
3701.26,0.31913
3678.12,0.26000
3654.97,0.18235
3631.83,0.12901
3608.68,0.09373
3585.54,0.06922
3562.39,0.05616
3539.25,0.04865
3516.1,0.04403
3492.96,0.04083
3469.81,0.03925
3446.67,0.03823
3423.52,0.03881
3400.38,0.03891
3377.23,0.03953
3354.09,0.04017
3330.94,0.04216
3307.8,0.04446
3284.65,0.04546
3261.51,0.04867
3238.36,0.05216
3215.22,0.05728
3192.07,0.06146
3168.93,0.06791
3145.78,0.07534
3122.64,0.08261
3099.49,0.09007
3076.35,0.09784
3053.2,0.10504
3030.06,0.11003
3006.91,0.10634
2983.77,0.09337
2960.62,0.07055
2937.48,0.06114
2914.33,0.05941
2891.19,0.06097
2868.04,0.06595
2844.9,0.07773
2821.75,0.09974
2798.61,0.11717
2775.46,0.12602
2752.32,0.12979
2729.17,0.13209
2706.03,0.14021
2682.88,0.15051
2659.74,0.15790
2636.59,0.16523
2613.45,0.17293
2590.3,0.17944
2567.16,0.18308
2544.02,0.18374
2520.87,0.18956
2497.73,0.19951
2474.58,0.20998
2451.44,0.21924
2428.29,0.23067
2405.15,0.24308
2382,0.25402
2358.86,0.26296
2335.71,0.26989
2312.57,0.27254
2289.42,0.27022
2266.28,0.26461
2243.13,0.25852
2219.99,0.25661
2196.84,0.25191
2173.7,0.23780
2150.55,0.22731
2127.41,0.22444
2104.26,0.22981
2081.12,0.23151
2057.97,0.22723
2034.83,0.23372
2011.68,0.24770
1988.54,0.25657
1965.39,0.26275
1942.25,0.27460
1919.1,0.28178
1895.96,0.28027
1872.81,0.27822
1849.67,0.27202
1826.52,0.25988
1803.38,0.23655
1780.23,0.19176
1757.09,0.10074
1733.94,0.07045
1710.8,0.08966
1687.65,0.09237
1664.51,0.06832
1641.36,0.07090
1618.22,0.06927
1595.07,0.06329
1571.93,0.09456
1548.78,0.11210
1525.64,0.07649
1502.49,0.05295
1479.35,0.05727
1456.2,0.04441
1433.06,0.04192
1409.91,0.04620
1386.77,0.04270
1363.62,0.04184
1340.48,0.04270
1317.33,0.04098
1294.19,0.04207
1271.04,0.03847
1247.9,0.04088
1224.75,0.04085
1201.61,0.04112
1178.46,0.03503
1155.32,0.03836
1132.17,0.03250
1109.03,0.03596
1085.88,0.03667
1062.74,0.05546
1039.59,0.05738
1016.45,0.06457
993.304,0.06611
970.159,0.08050
947.014,0.09202
923.869,0.09912
900.724,0.08159
877.579,0.08918
854.434,0.09538
831.289,0.09490
808.144,0.07844
784.999,0.07882
761.854,0.07213
738.709,0.06636
715.565,0.05853
692.42,0.05500
669.275,0.05042
646.13,0.04960
622.985,0.04701
599.84,0.04931