Folder: fsri_materials_database/01_Data/Exterior_Plywood/FTIR/IS

Note: README.md
# Materials and Products Database
### Repository of materials and products properties and fire test data to improve fire modeling and fire investigation.

This project was supported in part by Award No. 2019-DU-BX-0018, awarded by the National Institute of Justice, Office of Justice Programs, U.S. Department of Justice. The opinions, findings, and conclusions or recommendations expressed in this publication / program / exhibition are those of the author(s) and do not necessarily reflect those of the Department of Justice.

***
***

__Cite this database:__ "McKinnon, M., Weinschenk, C., Dow, N., DiDomizio, M., and Madrzykowski, D. Materials and Products Database (Version 1.0.0), Fire Safety Research Institute, UL Research Institutes. Columbia, MD 21045, 2023."

__Cite the Technical Reference Guide:__ "McKinnon, M., Weinschenk, C., and Madrzykowski, D. Materials and Products Database - Technical Reference Guide, Fire Safety Research Institute, UL Research Institutes. Columbia, MD 21045, 2023."

__Cite the User Guide:__ "McKinnon, M., and Weinschenk, C. Materials and Products Database - User Guide, Fire Safety Research Institute, UL Research Institutes. Columbia, MD 21045, 2023."

***
***

## Database Structure

## 01_Data/
Raw data generated from each apparatus are included here in plain-text format. The data is organized first by material, next by the short name of test apparatus used, and where applicable additional filtering by test settings.

### Test Apparatus and Data File Structure
- __Cone Calorimeter__ (Cone)
    + Data file structure includes the material, the short name for the apparatus, heat flux setting and scan/scalar, date of test, and replicate number. Scan is for the raw output data and scalar is for the initial conditions and high-level test parameters. 
        * Example: __MDF_Cone_HF25scalar_210323_R1__ stands for the first replicate of scalar data generated from a medium density fiber board test in cone calorimeter exposed to 25 kW/m<sup>2</sup> on March 23, 2021.
    + A _Cone_Notes.csv_ is generated for each material from the __plot_Cone_data.py__ script. For materials whose experiments deviated from typical behavior relevant pictures are included in the respective material directory.
- __Fourier Transform Infrared Spectrometer__ (FTIR)
    + The FTIR directory contains subdirectories for the Attenuated Total Reflectance method (ATR) and the Integrating Sphere (IS)
    + Data file structure for the ATR experiment files includes the material, the abbreviated name for the apparatus, date of test, and replicate number. 
        * Example: __MDF_ATR_210323_R5__ stands for the fifth replicate of data collected with the ATR accessory conducted on June 8, 2021.
    + Data file structure for the IS experiment files includes the material, the abbreviated name for the apparatus, the measurand, whether the test is a sample measurement or standard reference, date of test, and replicate number.
        * Example: __OSB_IS_REFLECT_MEAS_2

File: Exterior_Plywood_IS_S_220927_R1.dpt
7497.03,0.78412
7473.89,0.77450
7450.74,0.77458
7427.6,0.76269
7404.45,0.75917
7381.31,0.75501
7358.16,0.74884
7335.02,0.73216
7311.87,0.73376
7288.73,0.73081
7265.58,0.72106
7242.44,0.71628
7219.29,0.71145
7196.15,0.70951
7173,0.70127
7149.86,0.68264
7126.71,0.67156
7103.57,0.65986
7080.42,0.63874
7057.28,0.62454
7034.13,0.60144
7010.99,0.58808
6987.84,0.57998
6964.7,0.57564
6941.55,0.57370
6918.41,0.56608
6895.26,0.56607
6872.12,0.56366
6848.97,0.56395
6825.83,0.55991
6802.68,0.56678
6779.54,0.56049
6756.39,0.55823
6733.25,0.56102
6710.1,0.56310
6686.96,0.56611
6663.82,0.57186
6640.67,0.57036
6617.53,0.57758
6594.38,0.57823
6571.24,0.58288
6548.09,0.58210
6524.95,0.58636
6501.8,0.58939
6478.66,0.59149
6455.51,0.59237
6432.37,0.59058
6409.22,0.59640
6386.08,0.59868
6362.93,0.59938
6339.79,0.60204
6316.64,0.60512
6293.5,0.61059
6270.35,0.61132
6247.21,0.61425
6224.06,0.62216
6200.92,0.62883
6177.77,0.63510
6154.63,0.63968
6131.48,0.64388
6108.34,0.64825
6085.19,0.65216
6062.05,0.65307
6038.9,0.65242
6015.76,0.64363
5992.61,0.64307
5969.47,0.64123
5946.32,0.64400
5923.18,0.64053
5900.03,0.63677
5876.89,0.63410
5853.74,0.63347
5830.6,0.63036
5807.45,0.62768
5784.31,0.62746
5761.16,0.62819
5738.02,0.63043
5714.87,0.62921
5691.73,0.62716
5668.58,0.62615
5645.44,0.62169
5622.29,0.62287
5599.15,0.62064
5576,0.62288
5552.86,0.62658
5529.71,0.62448
5506.57,0.62708
5483.42,0.62867
5460.28,0.63208
5437.13,0.63406
5413.99,0.64081
5390.84,0.64409
5367.7,0.64050
5344.55,0.63562
5321.41,0.62470
5298.26,0.59711
5275.12,0.55700
5251.97,0.51106
5228.83,0.47929
5205.68,0.46123
5182.54,0.45975
5159.39,0.46880
5136.25,0.47943
5113.1,0.49302
5089.96,0.50519
5066.81,0.51777
5043.67,0.52923
5020.52,0.53850
4997.38,0.54265
4974.23,0.54188
4951.09,0.53505
4927.94,0.52054
4904.8,0.50269
4881.65,0.48407
4858.51,0.46762
4835.36,0.45176
4812.22,0.43950
4789.07,0.43360
4765.93,0.43090
4742.78,0.42972
4719.64,0.43335
4696.49,0.43668
4673.35,0.44340
4650.2,0.45185
4627.06,0.46166
4603.92,0.47411
4580.77,0.48354
4557.63,0.49092
4534.48,0.49566
4511.34,0.49731
4488.19,0.48990
4465.05,0.47203
4441.9,0.44679
4418.76,0.41807
4395.61,0.40311
4372.47,0.41109
4349.32,0.41392
4326.18,0.40819
4303.03,0.39530
4279.89,0.38998
4256.74,0.39301
4233.6,0.39447
4210.45,0.39531
4187.31,0.39740
4164.16,0.40014
4141.02,0.39579
4117.87,0.38095
4094.73,0.35966
4071.58,0.33738
4048.44,0.31503
4025.29,0.30095
4002.15,0.30013
3979,0.30673
3955.86,0.31462
3932.71,0.32529
3909.57,0.33595
3886.42,0.34432
3863.28,0.35261
3840.13,0.36128
3816.99,0.36340
3793.84,0.36037
3770.7,0.35527
3747.55,0.34488
3724.41,0.32603
3701.26,0.29168
3678.12,0.22903
3654.97,0.15244
3631.83,0.10571
3608.68,0.07818
3585.54,0.06174
3562.39,0.05192
3539.25,0.04549
3516.1,0.04170
3492.96,0.03994
3469.81,0.03808
3446.67,0.03822
3423.52,0.03854
3400.38,0.03820
3377.23,0.03854
3354.09,0.03997
3330.94,0.04119
3307.8,0.04349
3284.65,0.04495
3261.51,0.04763
3238.36,0.05053
3215.22,0.05372
3192.07,0.05837
3168.93,0.06328
3145.78,0.06909
3122.64,0.07566
3099.49,0.08248
3076.35,0.08832
3053.2,0.09567
3030.06,0.10131
3006.91,0.09958
2983.77,0.08893
2960.62,0.06989
2937.48,0.06082
2914.33,0.05892
2891.19,0.06078
2868.04,0.06563
2844.9,0.07673
2821.75,0.09759
2798.61,0.11415
2775.46,0.12179
2752.32,0.12528
2729.17,0.12815
2706.03,0.13573
2682.88,0.14571
2659.74,0.15385
2636.59,0.16120
2613.45,0.16858
2590.3,0.17523
2567.16,0.17908
2544.02,0.17955
2520.87,0.18513
2497.73,0.19462
2474.58,0.20496
2451.44,0.21434
2428.29,0.22514
2405.15,0.23684
2382,0.24680
2358.86,0.25457
2335.71,0.25937
2312.57,0.26178
2289.42,0.25855
2266.28,0.25239
2243.13,0.24567
2219.99,0.24226
2196.84,0.23720
2173.7,0.22383
2150.55,0.21352
2127.41,0.21062
2104.26,0.21507
2081.12,0.21766
2057.97,0.21428
2034.83,0.22029
2011.68,0.23370
1988.54,0.24224
1965.39,0.24922
1942.25,0.26017
1919.1,0.26710
1895.96,0.26652
1872.81,0.26423
1849.67,0.25881
1826.52,0.24730
1803.38,0.22589
1780.23,0.18578
1757.09,0.10114
1733.94,0.06922
1710.8,0.08560
1687.65,0.08463
1664.51,0.06242
1641.36,0.06311
1618.22,0.06487
1595.07,0.06170
1571.93,0.09000
1548.78,0.10573
1525.64,0.07418
1502.49,0.05284
1479.35,0.05692
1456.2,0.04406
1433.06,0.04175
1409.91,0.04673
1386.77,0.04264
1363.62,0.04163
1340.48,0.04227
1317.33,0.04139
1294.19,0.04181
1271.04,0.03856
1247.9,0.04057
1224.75,0.04134
1201.61,0.04099
1178.46,0.03424
1155.32,0.03822
1132.17,0.03180
1109.03,0.03679
1085.88,0.03662
1062.74,0.05446
1039.59,0.05702
1016.45,0.06412
993.304,0.06628
970.159,0.07946
947.014,0.08944
923.869,0.09600
900.724,0.07856
877.579,0.08456
854.434,0.08982
831.289,0.08688
808.144,0.07388
784.999,0.07222
761.854,0.06585
738.709,0.06126
715.565,0.05446
692.42,0.05355
669.275,0.04832
646.13,0.04897
622.985,0.04476
599.84,0.04930

File: Exterior_Plywood_IS_S_220927_R2.dpt
7497.03,0.79056
7473.89,0.78583
7450.74,0.77584
7427.6,0.78103
7404.45,0.76467
7381.31,0.74964
7358.16,0.74542
7335.02,0.73566
7311.87,0.73629
7288.73,0.72981
7265.58,0.72949
7242.44,0.73133
7219.29,0.72968
7196.15,0.71996
7173,0.71241
7149.86,0.69177
7126.71,0.67854
7103.57,0.66569
7080.42,0.63878
7057.28,0.62757
7034.13,0.60990
7010.99,0.58746
6987.84,0.58563
6964.7,0.57162
6941.55,0.56851
6918.41,0.57012
6895.26,0.56866
6872.12,0.56616
6848.97,0.56875
6825.83,0.56378
6802.68,0.56734
6779.54,0.56412
6756.39,0.56735
6733.25,0.56915
6710.1,0.56749
6686.96,0.57190
6663.82,0.57483
6640.67,0.57788
6617.53,0.57619
6594.38,0.57981
6571.24,0.58283
6548.09,0.59112
6524.95,0.59368
6501.8,0.59206
6478.66,0.59300
6455.51,0.59190
6432.37,0.59659
6409.22,0.59594
6386.08,0.59831
6362.93,0.60252
6339.79,0.60246
6316.64,0.60273
6293.5,0.60613
6270.35,0.61072
6247.21,0.62357
6224.06,0.62749
6200.92,0.63168
6177.77,0.64052
6154.63,0.64393
6131.48,0.65237
6108.34,0.65765
6085.19,0.65665
6062.05,0.65673
6038.9,0.65370
6015.76,0.64973
5992.61,0.64543
5969.47,0.64151
5946.32,0.64184
5923.18,0.64748
5900.03,0.64047
5876.89,0.63637
5853.74,0.63659
5830.6,0.63541
5807.45,0.63286
5784.31,0.63367
5761.16,0.63404
5738.02,0.63400
5714.87,0.63185
5691.73,0.63103
5668.58,0.63075
5645.44,0.62746
5622.29,0.62713
5599.15,0.62531
5576,0.62671
5552.86,0.62897
5529.71,0.63070
5506.57,0.63133
5483.42,0.63501
5460.28,0.63539
5437.13,0.64070
5413.99,0.64447
5390.84,0.64539
5367.7,0.64568
5344.55,0.64320
5321.41,0.62864
5298.26,0.60443
5275.12,0.56839
5251.97,0.52187
5228.83,0.49028
5205.68,0.47739
5182.54,0.47506
5159.39,0.48177
5136.25,0.49558
5113.1,0.50772
5089.96,0.52022
5066.81,0.53121
5043.67,0.54243
5020.52,0.54844
4997.38,0.55489
4974.23,0.55066
4951.09,0.54191
4927.94,0.52507
4904.8,0.50634
4881.65,0.48622
4858.51,0.46945
4835.36,0.45388
4812.22,0.44231
4789.07,0.43556
4765.93,0.43266
4742.78,0.43279
4719.64,0.43591
4696.49,0.44125
4673.35,0.44605
4650.2,0.45576
4627.06,0.46405
4603.92,0.47750
4580.77,0.48596
4557.63,0.49369
4534.48,0.49879
4511.34,0.49971
4488.19,0.49500
4465.05,0.47502
4441.9,0.44936
4418.76,0.42054
4395.61,0.40477
4372.47,0.41190
4349.32,0.41655
4326.18,0.40992
4303.03,0.39865
4279.89,0.39231
4256.74,0.39537
4233.6,0.39813
4210.45,0.39741
4187.31,0.39988
4164.16,0.40451
4141.02,0.39903
4117.87,0.38412
4094.73,0.36335
4071.58,0.34126
4048.44,0.31831
4025.29,0.30378
4002.15,0.30345
3979,0.30923
3955.86,0.31852
3932.71,0.32923
3909.57,0.34072
3886.42,0.34920
3863.28,0.35644
3840.13,0.36662
3816.99,0.36860
3793.84,0.36724
3770.7,0.36297
3747.55,0.35277
3724.41,0.33505
3701.26,0.30269
3678.12,0.24111
3654.97,0.16358
3631.83,0.11396
3608.68,0.08355
3585.54,0.06399
3562.39,0.05355
3539.25,0.04692
3516.1,0.04270
3492.96,0.03943
3469.81,0.03825
3446.67,0.03759
3423.52,0.03830
3400.38,0.03867
3377.23,0.03903
3354.09,0.04011
3330.94,0.04176
3307.8,0.04369
3284.65,0.04503
3261.51,0.04811
3238.36,0.05087
3215.22,0.05482
3192.07,0.05955
3168.93,0.06514
3145.78,0.07069
3122.64,0.07822
3099.49,0.08584
3076.35,0.09231
3053.2,0.09939
3030.06,0.10494
3006.91,0.10218
2983.77,0.09077
2960.62,0.06984
2937.48,0.06058
2914.33,0.05900
2891.19,0.06115
2868.04,0.06536
2844.9,0.07717
2821.75,0.09852
2798.61,0.11562
2775.46,0.12383
2752.32,0.12711
2729.17,0.12977
2706.03,0.13792
2682.88,0.14773
2659.74,0.15522
2636.59,0.16331
2613.45,0.17091
2590.3,0.17668
2567.16,0.18088
2544.02,0.18199
2520.87,0.18679
2497.73,0.19681
2474.58,0.20713
2451.44,0.21651
2428.29,0.22733
2405.15,0.23987
2382,0.25003
2358.86,0.25809
2335.71,0.26402
2312.57,0.26658
2289.42,0.26364
2266.28,0.25789
2243.13,0.25146
2219.99,0.24866
2196.84,0.24332
2173.7,0.22971
2150.55,0.21958
2127.41,0.21639
2104.26,0.22135
2081.12,0.22296
2057.97,0.21988
2034.83,0.22612
2011.68,0.23936
1988.54,0.24836
1965.39,0.25518
1942.25,0.26632
1919.1,0.27306
1895.96,0.27260
1872.81,0.27031
1849.67,0.26409
1826.52,0.25285
1803.38,0.23036
1780.23,0.18850
1757.09,0.10086
1733.94,0.06982
1710.8,0.08761
1687.65,0.08728
1664.51,0.06496
1641.36,0.06600
1618.22,0.06645
1595.07,0.06203
1571.93,0.09235
1548.78,0.10856
1525.64,0.07482
1502.49,0.05306
1479.35,0.05718
1456.2,0.04403
1433.06,0.04181
1409.91,0.04692
1386.77,0.04269
1363.62,0.04165
1340.48,0.04226
1317.33,0.04120
1294.19,0.04167
1271.04,0.03804
1247.9,0.04062
1224.75,0.04085
1201.61,0.04071
1178.46,0.03433
1155.32,0.03817
1132.17,0.03178
1109.03,0.03616
1085.88,0.03692
1062.74,0.05479
1039.59,0.05731
1016.45,0.06413
993.304,0.06624
970.159,0.07970
947.014,0.09056
923.869,0.09752
900.724,0.07981
877.579,0.08756
854.434,0.09252
831.289,0.08937
808.144,0.07579
784.999,0.07513
761.854,0.06850
738.709,0.06320
715.565,0.05681
692.42,0.05332
669.275,0.05004
646.13,0.04828
622.985,0.04594
599.84,0.04867

File: Exterior_Plywood_IS_S_220927_R3.dpt
7497.03,0.79780
7473.89,0.79151
7450.74,0.77754
7427.6,0.75868
7404.45,0.75911
7381.31,0.75013
7358.16,0.74588
7335.02,0.73625
7311.87,0.73182
7288.73,0.72497
7265.58,0.73021
7242.44,0.72308
7219.29,0.72437
7196.15,0.71252
7173,0.69873
7149.86,0.70005
7126.71,0.68680
7103.57,0.66691
7080.42,0.64514
7057.28,0.62669
7034.13,0.60260
7010.99,0.59291
6987.84,0.58057
6964.7,0.57954
6941.55,0.57746
6918.41,0.56760
6895.26,0.56671
6872.12,0.57458
6848.97,0.56929
6825.83,0.56337
6802.68,0.56285
6779.54,0.56668
6756.39,0.56354
6733.25,0.56529
6710.1,0.57054
6686.96,0.56809
6663.82,0.57609
6640.67,0.57160
6617.53,0.57776
6594.38,0.58620
6571.24,0.58701
6548.09,0.59154
6524.95,0.58745
6501.8,0.59106
6478.66,0.59032
6455.51,0.59233
6432.37,0.59752
6409.22,0.59645
6386.08,0.59708
6362.93,0.59933
6339.79,0.60674
6316.64,0.60443
6293.5,0.60621
6270.35,0.61334
6247.21,0.61879
6224.06,0.62748
6200.92,0.63052
6177.77,0.63871
6154.63,0.64700
6131.48,0.65023
6108.34,0.65470
6085.19,0.65737
6062.05,0.65481
6038.9,0.65273
6015.76,0.65004
5992.61,0.64618
5969.47,0.64099
5946.32,0.64406
5923.18,0.64382
5900.03,0.64080
5876.89,0.63693
5853.74,0.63581
5830.6,0.63497
5807.45,0.63227
5784.31,0.62898
5761.16,0.63050
5738.02,0.63127
5714.87,0.63099
5691.73,0.63093
5668.58,0.62618
5645.44,0.62572
5622.29,0.62484
5599.15,0.62497
5576,0.62699
5552.86,0.62908
5529.71,0.63068
5506.57,0.63218
5483.42,0.63444
5460.28,0.63327
5437.13,0.64199
5413.99,0.64413
5390.84,0.64580
5367.7,0.64709
5344.55,0.64254
5321.41,0.63146
5298.26,0.60901
5275.12,0.57066
5251.97,0.52851
5228.83,0.49715
5205.68,0.48460
5182.54,0.48201
5159.39,0.48899
5136.25,0.50073
5113.1,0.51399
5089.96,0.52538
5066.81,0.53584
5043.67,0.54771
5020.52,0.55436
4997.38,0.55716
4974.23,0.55432
4951.09,0.54397
4927.94,0.52584
4904.8,0.50657
4881.65,0.48768
4858.51,0.47008
4835.36,0.45469
4812.22,0.44286
4789.07,0.43653
4765.93,0.43247
4742.78,0.43392
4719.64,0.43623
4696.49,0.44018
4673.35,0.44658
4650.2,0.45612
4627.06,0.46500
4603.92,0.47575
4580.77,0.48630
4557.63,0.49466
4534.48,0.49941
4511.34,0.50070
4488.19,0.49365
4465.05,0.47523
4441.9,0.44955
4418.76,0.42046
4395.61,0.40507
4372.47,0.41203
4349.32,0.41587
4326.18,0.40971
4303.03,0.39933
4279.89,0.39204
4256.74,0.39543
4233.6,0.39770
4210.45,0.39843
4187.31,0.40082
4164.16,0.40467
4141.02,0.40021
4117.87,0.38640
4094.73,0.36522
4071.58,0.34200
4048.44,0.31876
4025.29,0.30510
4002.15,0.30453
3979,0.31053
3955.86,0.31903
3932.71,0.33063
3909.57,0.34166
3886.42,0.35023
3863.28,0.35845
3840.13,0.36875
3816.99,0.37121
3793.84,0.36844
3770.7,0.36522
3747.55,0.35601
3724.41,0.33910
3701.26,0.30737
3678.12,0.24685
3654.97,0.16844
3631.83,0.11858
3608.68,0.08559
3585.54,0.06574
3562.39,0.05485
3539.25,0.04764
3516.1,0.04346
3492.96,0.04005
3469.81,0.03822
3446.67,0.03811
3423.52,0.03838
3400.38,0.03893
3377.23,0.03877
3354.09,0.03969
3330.94,0.04153
3307.8,0.04305
3284.65,0.04525
3261.51,0.04820
3238.36,0.05102
3215.22,0.05613
3192.07,0.05975
3168.93,0.06569
3145.78,0.07245
3122.64,0.07992
3099.49,0.08737
3076.35,0.09381
3053.2,0.10129
3030.06,0.10659
3006.91,0.10341
2983.77,0.09203
2960.62,0.07040
2937.48,0.06074
2914.33,0.05957
2891.19,0.06153
2868.04,0.06573
2844.9,0.07766
2821.75,0.09868
2798.61,0.11601
2775.46,0.12397
2752.32,0.12800
2729.17,0.13048
2706.03,0.13857
2682.88,0.14838
2659.74,0.15607
2636.59,0.16367
2613.45,0.17078
2590.3,0.17745
2567.16,0.18080
2544.02,0.18213
2520.87,0.18773
2497.73,0.19758
2474.58,0.20757
2451.44,0.21673
2428.29,0.22823
2405.15,0.24102
2382,0.25133
2358.86,0.25950
2335.71,0.26561
2312.57,0.26803
2289.42,0.26540
2266.28,0.25994
2243.13,0.25375
2219.99,0.25058
2196.84,0.24578
2173.7,0.23187
2150.55,0.22176
2127.41,0.21887
2104.26,0.22346
2081.12,0.22567
2057.97,0.22202
2034.83,0.22807
2011.68,0.24200
1988.54,0.25060
1965.39,0.25695
1942.25,0.26845
1919.1,0.27559
1895.96,0.27456
1872.81,0.27269
1849.67,0.26655
1826.52,0.25452
1803.38,0.23247
1780.23,0.18946
1757.09,0.10078
1733.94,0.06977
1710.8,0.08815
1687.65,0.08909
1664.51,0.06622
1641.36,0.06728
1618.22,0.06729
1595.07,0.06237
1571.93,0.09268
1548.78,0.10953
1525.64,0.07509
1502.49,0.05300
1479.35,0.05741
1456.2,0.04424
1433.06,0.04190
1409.91,0.04665
1386.77,0.04285
1363.62,0.04200
1340.48,0.04246
1317.33,0.04108
1294.19,0.04175
1271.04,0.03780
1247.9,0.04068
1224.75,0.04147
1201.61,0.04116
1178.46,0.03392
1155.32,0.03858
1132.17,0.03207
1109.03,0.03628
1085.88,0.03685
1062.74,0.05485
1039.59,0.05743
1016.45,0.06397
993.304,0.06624
970.159,0.08003
947.014,0.09107
923.869,0.09753
900.724,0.07991
877.579,0.08768
854.434,0.09330
831.289,0.09101
808.144,0.07716
784.999,0.07548
761.854,0.06980
738.709,0.06396
715.565,0.05736
692.42,0.05309
669.275,0.05038
646.13,0.05073
622.985,0.04970
599.84,0.05146

File: Exterior_Plywood_IS_S_220927_R4.dpt
7497.03,0.79638
7473.89,0.79139
7450.74,0.78027
7427.6,0.77496
7404.45,0.75893
7381.31,0.75932
7358.16,0.74573
7335.02,0.73835
7311.87,0.72756
7288.73,0.73155
7265.58,0.72813
7242.44,0.72504
7219.29,0.71991
7196.15,0.71959
7173,0.70737
7149.86,0.70505
7126.71,0.68286
7103.57,0.66645
7080.42,0.64419
7057.28,0.63082
7034.13,0.60890
7010.99,0.59248
6987.84,0.58641
6964.7,0.57992
6941.55,0.57631
6918.41,0.57247
6895.26,0.56946
6872.12,0.57525
6848.97,0.56931
6825.83,0.56935
6802.68,0.56625
6779.54,0.56704
6756.39,0.56854
6733.25,0.56676
6710.1,0.57152
6686.96,0.57361
6663.82,0.57208
6640.67,0.57989
6617.53,0.57884
6594.38,0.58272
6571.24,0.58289
6548.09,0.58851
6524.95,0.59008
6501.8,0.59469
6478.66,0.59140
6455.51,0.59450
6432.37,0.59712
6409.22,0.59748
6386.08,0.60200
6362.93,0.60515
6339.79,0.60605
6316.64,0.60603
6293.5,0.60752
6270.35,0.61771
6247.21,0.62084
6224.06,0.62718
6200.92,0.63385
6177.77,0.64031
6154.63,0.64563
6131.48,0.65240
6108.34,0.65591
6085.19,0.65719
6062.05,0.65684
6038.9,0.65523
6015.76,0.64875
5992.61,0.64701
5969.47,0.64433
5946.32,0.64710
5923.18,0.64547
5900.03,0.64232
5876.89,0.64049
5853.74,0.63962
5830.6,0.63544
5807.45,0.63330
5784.31,0.63123
5761.16,0.63553
5738.02,0.63628
5714.87,0.63285
5691.73,0.63329
5668.58,0.62815
5645.44,0.62838
5622.29,0.62670
5599.15,0.62820
5576,0.62862
5552.86,0.63133
5529.71,0.63151
5506.57,0.63348
5483.42,0.63404
5460.28,0.63657
5437.13,0.63980
5413.99,0.64574
5390.84,0.64875
5367.7,0.64786
5344.55,0.64423
5321.41,0.63316
5298.26,0.61162
5275.12,0.57386
5251.97,0.53167
5228.83,0.50417
5205.68,0.48994
5182.54,0.48773
5159.39,0.49563
5136.25,0.50532
5113.1,0.51881
5089.96,0.52888
5066.81,0.54097
5043.67,0.55053
5020.52,0.55784
4997.38,0.56035
4974.23,0.55708
4951.09,0.54502
4927.94,0.52665
4904.8,0.50792
4881.65,0.48830
4858.51,0.46956
4835.36,0.45503
4812.22,0.44392
4789.07,0.43608
4765.93,0.43418
4742.78,0.43264
4719.64,0.43602
4696.49,0.44104
4673.35,0.44698
4650.2,0.45588
4627.06,0.46587
4603.92,0.47820
4580.77,0.48774
4557.63,0.49470
4534.48,0.49950
4511.34,0.50156
4488.19,0.49512
4465.05,0.47671
4441.9,0.44897
4418.76,0.42042
4395.61,0.40504
4372.47,0.41257
4349.32,0.41657
4326.18,0.40936
4303.03,0.39902
4279.89,0.39271
4256.74,0.39641
4233.6,0.39826
4210.45,0.39928
4187.31,0.40131
4164.16,0.40600
4141.02,0.40082
4117.87,0.38682
4094.73,0.36590
4071.58,0.34250
4048.44,0.31967
4025.29,0.30559
4002.15,0.30502
3979,0.31195
3955.86,0.32053
3932.71,0.33140
3909.57,0.34283
3886.42,0.35132
3863.28,0.36006
3840.13,0.36984
3816.99,0.37216
3793.84,0.37149
3770.7,0.36717
3747.55,0.35899
3724.41,0.34253
3701.26,0.31148
3678.12,0.25111
3654.97,0.17331
3631.83,0.12193
3608.68,0.08804
3585.54,0.06679
3562.39,0.05475
3539.25,0.04784
3516.1,0.04357
3492.96,0.04021
3469.81,0.03868
3446.67,0.03807
3423.52,0.03864
3400.38,0.03891
3377.23,0.03836
3354.09,0.04000
3330.94,0.04237
3307.8,0.04433
3284.65,0.04543
3261.51,0.04771
3238.36,0.05181
3215.22,0.05488
3192.07,0.06094
3168.93,0.06598
3145.78,0.07291
3122.64,0.08086
3099.49,0.08846
3076.35,0.09474
3053.2,0.10250
3030.06,0.10786
3006.91,0.10432
2983.77,0.09232
2960.62,0.07079
2937.48,0.06044
2914.33,0.05992
2891.19,0.06137
2868.04,0.06551
2844.9,0.07736
2821.75,0.09897
2798.61,0.11637
2775.46,0.12487
2752.32,0.12850
2729.17,0.13090
2706.03,0.13866
2682.88,0.14900
2659.74,0.15671
2636.59,0.16373
2613.45,0.17151
2590.3,0.17820
2567.16,0.18206
2544.02,0.18270
2520.87,0.18754
2497.73,0.19787
2474.58,0.20827
2451.44,0.21742
2428.29,0.22912
2405.15,0.24130
2382,0.25208
2358.86,0.26083
2335.71,0.26687
2312.57,0.26953
2289.42,0.26655
2266.28,0.26097
2243.13,0.25516
2219.99,0.25275
2196.84,0.24766
2173.7,0.23392
2150.55,0.22353
2127.41,0.22065
2104.26,0.22548
2081.12,0.22764
2057.97,0.22374
2034.83,0.22996
2011.68,0.24366
1988.54,0.25221
1965.39,0.25904
1942.25,0.27037
1919.1,0.27747
1895.96,0.27651
1872.81,0.27417
1849.67,0.26813
1826.52,0.25610
1803.38,0.23324
1780.23,0.19024
1757.09,0.10089
1733.94,0.06994
1710.8,0.08872
1687.65,0.09032
1664.51,0.06740
1641.36,0.06873
1618.22,0.06770
1595.07,0.06314
1571.93,0.09336
1548.78,0.11023
1525.64,0.07560
1502.49,0.05267
1479.35,0.05735
1456.2,0.04454
1433.06,0.04175
1409.91,0.04628
1386.77,0.04258
1363.62,0.04177
1340.48,0.04219
1317.33,0.04122
1294.19,0.04225
1271.04,0.03818
1247.9,0.04077
1224.75,0.04116
1201.61,0.04116
1178.46,0.03456
1155.32,0.03864
1132.17,0.03201
1109.03,0.03629
1085.88,0.03696
1062.74,0.05485
1039.59,0.05705
1016.45,0.06387
993.304,0.06651
970.159,0.07995
947.014,0.09143
923.869,0.09842
900.724,0.08066
877.579,0.08832
854.434,0.09474
831.289,0.09177
808.144,0.07758
784.999,0.07764
761.854,0.07122
738.709,0.06455
715.565,0.05720
692.42,0.05535
669.275,0.05108
646.13,0.05119
622.985,0.04741
599.84,0.05096