Folder: fsri_materials_database/01_Data/Excelsior/Cone (part 2)

File: Excelsior_Cone_HF35Scan_181019_R3.csv
Names,Time,Stack TC,Smoke TC,Exh Press,Smoke Comp,Smoke Meas,CO Meter,CO2 Meter,O2 Meter,Sample Mass,Ext Coeff,Start Test,Flame Verif
Chan Gain,,500,500,1,1,1,1,1,1,1,1,1,1
Offset,,0,0,0.126212,0,0,0,0,0,0,0,0,0
Gain,,1,1,25.011,13.7876,15.8843,1,1,1,1.00085,1.0195,1,1
Units,sec,C,C,Pa,%,%,%,%,%,g,/m,,
Baseline,,31.662,33.3637,171.486,97.8321,99.5861,0.002922045,0.0623583,20.9127,-0.0225608,-0.158872,,
11,2.5,31.2795,31.9733,170.056,97.8901,99.248,0.002862173,0.06233,20.9109,920.693,-0.123201,0,0
22,5.25,31.6045,32.923,169.956,97.909,99.1937,0.00296431,0.0626196,20.9107,920.523,-0.116578,0,0
33,8,31.7142,33.0587,171.203,97.9296,99.6978,0.00294224,0.0626029,20.9116,920.513,-0.160031,0,0
44,10.75,31.7021,33.4695,172.349,97.9511,99.3507,0.002902244,0.0627114,20.9125,920.443,-0.126884,0,0
55,13.5,32.0662,33.4516,171.396,97.9742,98.6997,0.002728759,0.0629296,20.9123,920.403,-0.0659774,0,0
66,16.25,31.9895,33.9795,173.087,98.01,98.7026,0.002880195,0.0634734,20.9122,920.352,-0.0629772,0,0
77,19,32.55,33.7595,169.392,98.0512,97.673,0.003370708,0.0691115,20.9065,920.272,0.0345627,0,0
88,21.75,32.9933,35.7447,153.671,98.0798,100.887,0.004049984,0.14066,20.8042,919.962,-0.252399,0,1
99,24.5,36.2048,41.433,157.834,98.0992,101.103,0.004475948,0.2499,20.6734,919.622,-0.269693,0,1
110,27.25,38.6777,44.7996,161.275,98.1333,100.366,0.004680648,0.307918,20.6183,919.262,-0.201216,0,0
121,30,40.5007,47.8936,155,98.1552,100.483,0.004973745,0.335249,20.59,919.031,-0.209626,0,0
132,32.75,41.9606,50.5411,154.631,98.2103,100.946,0.005646344,0.357564,20.5677,918.711,-0.245668,0,0
143,35.5,44.3129,51.9116,153.628,98.2368,99.3982,0.006199609,0.377368,20.5534,918.361,-0.105113,0,0
154,38.25,45.269,54.857,155.158,98.2856,100.101,0.006319881,0.385217,20.5496,918.051,-0.163688,0,0
165,41,46.204,56.525,152.656,98.3462,101.92,0.006334128,0.383162,20.5562,917.73,-0.319207,0,0
176,43.75,47.8465,56.9162,156.379,98.3878,101.17,0.006329734,0.375856,20.5672,917.45,-0.249332,0,0
187,46.5,47.9986,57.7208,155.997,98.4329,101.543,0.006157123,0.369035,20.5742,917.14,-0.278175,0,0
198,49.25,49.0013,58.2033,159.766,98.4867,100.784,0.006134735,0.366771,20.5767,916.87,-0.206176,0,0
209,52,49.0942,59.1231,156.76,98.5212,101.288,0.006177518,0.366425,20.5776,916.559,-0.24771,0,0
220,54.75,49.0116,60.0131,152.342,98.5591,100.11,0.006075785,0.366919,20.5771,916.249,-0.13966,0,0
231,57.5,50.4719,59.5599,158.707,98.6037,102.063,0.005974633,0.367898,20.5752,915.909,-0.30836,0,0
242,60.25,50.1006,60.247,155.938,98.65,100.602,0.005828034,0.369829,20.5739,915.659,-0.175262,0,0
253,63,50.8303,60.8179,161.819,98.6849,101.206,0.005704324,0.373333,20.5705,915.318,-0.225628,0,0
264,65.75,50.885,61.704,158.667,98.719,102.323,0.005825871,0.376597,20.5673,915.038,-0.320647,0,0
275,68.5,50.7531,62.339,155.03,98.7463,100.137,0.006147325,0.377239,20.5663,914.718,-0.125111,0,0
286,71.25,52.1946,61.2936,154.85,98.7749,101.292,0.006496618,0.3766,20.566,914.457,-0.225051,0,0
297,74,51.282,62.8014,155.634,98.804,99.0342,0.006589698,0.37576,20.5659,914.167,-0.02081388,0,0
308,76.75,52.6759,61.4401,154.07,98.8233,98.9678,0.006453948,0.374833,20.5658,913.877,-0.0130627,0,0
319,79.5,52.0501,62.2514,156.262,98.878,98.8306,0.006321164,0.375356,20.5658,913.597,0.004291019,0,0
330,82.25,53.3248,61.7204,153.815,98.9306,98.0865,0.006212071,0.375998,20.566,913.336,0.0766323,0,0
341,85,52.704,62.8072,153.396,98.979,99.0245,0.006089104,0.377076,20.5667,913.046,-0.004109093,0,0
352,87.75,53.358,62.7736,153.371,99.0261,97.2091,0.006075496,0.372065,20.5717,912.796,0.165619,0,0
363,90.5,52.2104,63.4732,153.768,99.0707,99.5466,0.006048611,0.362427,20.5826,912.516,-0.0428503,0,0
374,93.25,52.418,61.5808,157.14,99.1393,100.203,0.0059664,0.352323,20.5972,912.276,-0.0954325,0,0
385,96,51.4679,62.0117,161.483,99.1869,100.507,0.005878079,0.335081,20.6179,912.045,-0.118229,0,0
396,98.75,51.775,60.7449,161.042,99.2441,100.888,0.005662871,0.314541,20.6398,911.865,-0.146952,0,0
407,101.5,52.2848,58.6449,160.976,99.3278,102.829,0.005795049,0.294405,20.6667,911.685,-0.309784,0,0
418,104.25,50.1428,59.4401,163.48,99.3985,102.809,0.006291938,0.267775,20.6939,911.555,-0.301693,0,0
429,107,51.3129,56.2002,159.818,99.465,102.484,0.006902955,0.242853,20.7167,911.445,-0.267375,0,0
440,109.75,49.1549,55.3343,162.976,99.5319,100.789,0.007652218,0.218284,20.7467,911.355,-0.112243,0,0
451,112.5,47.4372,55.0143,166.525,99.574,101.659,0.008498469,0.196631,20.768,911.265,-0.185338,0,0
462,115.25,46.8192,52.3933,168.261,99.6106,102.659,0.009698776,0.179691,20.7875,911.235,-0.269594,0,0
473,118,46.2399,51.2815,162.4,99.6632,102.072,0.0106413,0.164755,20.8039,911.195,-0.213546,0,0
484,120.75,45.2172,49.4018,167.915,99.7099,102.202,0.0113851,0.154226,20.814,911.135,-0.220774,0,0
495,123.5,46.105,47.1265,166.297,99.733,101.744,0.0117602,0.144727,20.8222,911.075,-0.178566,0,0
506,126.25,44.48,47.1009,167.747,99.7671,102.808,0.0119623,0.137019,20.8284,911.005,-0.26855,0,0
517,129,43.7786,45.9022,167.628,99.7667,102.374,0.0121643,0.131605,20.8325,910.985,-0.230726,0,0
528,131.75,43.7168,44.5604,161.889,99.7684,102.866,0.0122392,0.128331,20.8359,910.934,-0.273411,0,0
539,134.5,43.018,43.9698,165.996,99.7827,101.679,0.0122152,0.124117,20.8407,910.904,-0.16832,0,0
550,137.25,42.2318,43.7615,170.848,99.7915,101.993,0.01228921,0.119995,20.8452,910.884,-0.195112,0,0
561,140,42.9598,42.8536,167.685,99.7772,101.724,0.012172,0.117119,20.8492,910.834,-0.172774,0,0
572,142.75,40.277,44.0972,170.071,99.7709,101.603,0.0120609,0.114953,20.8523,910.794,-0.162722,0,0
583,145.5,41.2676,42.7032,168.104,99.7452,101.619,0.0117018,0.113585,20.8546,910.834,-0.166473,0,0
594,148.25,41.8657,41.7564,171.995,99.7339,101.471,0.009932429,0.106595,20.8655,910.844,-0.154386,0,0
605,151,40.4217,40.5038,169.482,99.7074,100.963,0.00842237,0.0944618,20.876,-0.0100085,-0.11192,0,0
616,153.75,39.936,38.6402,170.61,99.6998,101.881,0.007729223,0.0928916,20.8784,-0.0500425,-0.193512,0,0
627,156.5,37.5507,38.6893,164.935,99.6733,102.221,0.006426525,0.0890887,20.8852,-0.0300255,-0.225755,0,0
638,159.25,37.4781,38.4479,169.732,99.6169,102.97,0.00515399,0.0790091,20.8992,-0.0300255,-0.296098,0,0
649,162,39.2071,37.4964,167.68,99.5841,101.197,0.004199268,0.07251,20.9066,-0.040034,-0.143656,0,0
660,164.75,37.9499,38.3076,165.54,99.5466,101.881,0.003564526,0.0686941,20.9102,-0.0300255,-0.207304,0,0
671,167.5,36.9341,38.3517,168.837,99.4974,100.739,0.003461567,0.0663384,20.9123,-0.0300255,-0.110869,0,0
682,170.25,37.5634,37.9958,168.923,99.4633,101.553,0.003373381,0.0648039,20.9125,-0.040034,-0.185938,0,0
693,173,37.0072,37.9499,171.542,99.4158,101.629,0.003065184,0.0642322,20.9138,-0.0500425,-0.196914,0,0
704,175.75,38.2133,36.7467,173.093,99.3644,101.282,0.003004672,0.063829,20.9138,-0.040034,-0.170939,0,0
715,178.5,36.2669,38.4586,169.031,99.3169,101.307,0.003227893,0.063425,20.9109,-0.0600511,-0.177402,0,0
726,181.25,38.0214,36.4982,169.563,99.3939,100.819,0.003310914,0.0631475,20.9105,-0.0700596,-0.127275,0,0
737,184,37.9497,36.428,170.886,99.5462,101.169,0.003168759,0.0630262,20.9113,-0.0500425,-0.144615,0,0
748,186.75,36.2202,37.7438,171.333,99.6556,101.078,0.003170123,0.0628045,20.9116,-0.0300255,-0.126733,0,0
759,189.5,36.7155,36.592,165.717,99.7679,102.285,0.003302082,0.06253954,20.9117,-0.0700596,-0.222818,0,0
770,192.25,37.206,36.3832,167.965,99.8374,101.712,0.003405869,0.0625057,20.9123,-0.0500425,-0.166402,0,0
781,195,36.716,36.4173,171.526,99.911,101.676,0.003425418,0.0625521,20.9125,-0.0900766,-0.156569,0,0
792,197.75,36.5588,36.7889,173.08,99.9594,102.48,0.003401212,0.0624834,20.9125,-0.0900766,-0.222737,0,0
803,200.5,35.6723,37.3335,170.269,99.9981,102.405,0.003314482,0.0624218,20.9115,-0.110094,-0.212715,0,0
814,203.25,35.6839,37.3847,167.968,100.018,102.612,0.003289691,0.0623815,20.9109,-0.140119,-0.228967,0,0
825,206,35.6959,36.734,169.618,100.02,101.85,0.003061463,0.06231581,20.9115,-0.0900766,-0.162119,0,0
836,208.75,36.3865,36.2356,166.963,100.035,102.362,0.002952023,0.0623935,20.9116,-0.0700596,-0.205674,0,0
847,211.5,35.8698,37.2871,170.782,100.026,102.369,0.003213978,0.0623588,20.9115,-0.0600511,-0.207019,0,0
858,214.25,36.2607,36.9998,166.777,99.9973,102.242,0.003432333,0.0622153,20.9111,-0.0500425,-0.198556,0,0
869,217,36.7707,36.5239,168.275,99.9712,101.484,0.003474772,0.0622365,20.9109,-0.040034,-0.134285,0,0
880,219.75,35.5168,37.1767,165.993,99.9464,101.499,0.003191187,0.0623049,20.9109,-0.0800681,-0.137873,0,0
891,222.5,36.5294,36.0416,167.941,99.9123,102.207,0.002952851,0.06223898,20.9109,-0.0700596,-0.203106,0,0
902,225.25,35.9939,36.7529,171.982,99.8731,101.947,0.002910023,0.0623308,20.9118,-0.0600511,-0.183804,0,0
913,228,35.5648,36.8773,171.39,99.8117,101.178,0.003128152,0.062383,20.9122,-0.0900766,-0.12161,0,0
924,230.75,36.001,35.9415,168.717,99.7507,101.822,0.003249142,0.062388,20.9123,-0.110094,-0.18384,0,0
935,233.5,35.4374,36.9192,172.506,99.6707,101.541,0.003282836,0.0623806,20.912,-0.0900766,-0.166239,0,0
946,236.25,36.2122,36.203,171.206,99.5853,102.008,0.003404703,0.06232224,20.9117,-0.120102,-0.214968,0,0
957,239,35.223,36.7933,167.58,99.4759,101.566,0.003472612,0.0623106,20.9116,-0.100085,-0.185956,0,0
968,241.75,35.4694,36.3309,168.002,99.3935,101.477,0.003462751,0.06231815,20.9115,-0.0900766,-0.185517,0,0
979,244.5,34.9426,36.7922,169.837,99.2866,101.659,0.003497862,0.0623152,20.9115,-0.0900766,-0.211186,0,0
990,247.25,35.1032,36.6265,168.895,99.1923,101.083,,0.0622726,,-0.0800681,-0.168832,0,0
1001,250,35.8364,36.2526,169.114,99.1641,101.138,,,,-0.0600511,-0.176219,0,0
1012,252.75,34.8813,36.8285,168.679,99.1843,100.852,,,,-0.0600511,-0.149115,0,0
1023,255.5,35.259,36.4453,169.27,99.213,100.701,,,,-0.0800681,-0.133157,0,0
1028,256.75,35.7791,36.2121,169.165,99.2172,100.546,,,,-0.0800681,-0.118948,0,0

File: Excelsior_HRRPUA_35.csv
Time after Ignition,Excelsior_R1,Excelsior_R2,Excelsior_R3,Mean,Std. Dev.
0.0,26.6,35.1,22.1,27.9,6.6
0.5,36.8,44.3,32.5,37.9,6.0
1.0,50.0,52.7,46.3,49.7,3.2
1.5,63.4,64.2,59.8,62.5,2.4
2.0,78.2,73.7,75.8,75.9,2.2
2.5,90.4,86.0,89.1,88.5,2.2
3.0,102.2,95.8,100.7,99.6,3.3
3.5,112.9,104.6,107.4,108.3,4.2
4.0,121.6,112.9,118.5,117.7,4.4
4.5,127.7,122.7,124.7,125.1,2.5
5.0,137.7,130.3,129.7,132.6,4.5
5.5,138.3,136.2,134.8,136.4,1.7
6.0,144.1,139.6,139.4,141.0,2.7
6.5,150.1,145.0,143.3,146.1,3.5
7.0,150.6,149.0,148.6,149.4,1.1
7.5,156.9,155.0,151.3,154.4,2.8
8.0,159.5,161.3,152.8,157.8,4.5
8.5,164.4,162.1,158.0,161.5,3.2
9.0,165.0,162.0,157.7,161.6,3.7
9.5,169.2,164.1,156.9,163.4,6.1
10.0,176.3,168.8,160.4,168.5,7.9
10.5,176.7,171.3,161.2,169.8,7.9
11.0,176.9,170.2,164.1,170.4,6.4
11.5,178.3,176.3,164.8,173.1,7.3
12.0,183.5,180.3,167.8,177.2,8.3
12.5,184.3,182.9,169.1,178.7,8.4
13.0,187.4,188.1,171.2,182.2,9.6
13.5,190.4,184.8,175.6,183.6,7.4
14.0,192.6,190.2,171.8,184.9,11.4
14.5,194.2,193.1,171.9,186.4,12.6
15.0,195.4,190.4,172.8,186.2,11.9
15.5,197.2,192.1,175.1,188.1,11.6
16.0,199.5,195.5,173.4,189.5,14.1
16.5,204.2,193.6,175.9,191.2,14.3
17.0,202.7,201.5,176.6,193.6,14.7
17.5,205.4,196.6,179.1,193.7,13.4
18.0,209.8,201.8,177.1,196.2,17.0
18.5,206.8,201.8,172.5,193.7,18.6
19.0,210.0,199.6,172.1,193.9,19.6
19.5,214.3,198.1,175.6,196.0,19.4
20.0,213.6,200.1,175.1,196.3,19.6
20.5,214.5,194.7,170.4,193.2,22.1
21.0,212.1,198.1,171.2,193.8,20.8
21.5,217.5,199.9,172.1,196.5,22.9
22.0,215.1,195.5,169.5,193.4,22.9
22.5,217.9,196.2,171.5,195.2,23.2
23.0,219.7,195.4,172.4,195.8,23.6
23.5,216.7,193.4,168.2,192.8,24.3
24.0,216.5,194.6,164.4,191.9,26.2
24.5,219.1,193.9,165.1,192.7,27.0
25.0,215.2,197.1,167.3,193.2,24.2
25.5,211.9,193.7,163.4,189.7,24.5
26.0,211.6,188.5,163.2,187.7,24.2
26.5,213.5,191.2,163.2,189.3,25.2
27.0,208.0,184.7,162.9,185.2,22.6
27.5,210.5,187.0,161.3,186.3,24.6
28.0,207.6,186.6,163.2,185.8,22.2
28.5,202.2,183.6,161.9,182.5,20.2
29.0,203.0,186.8,162.7,184.2,20.3
29.5,202.4,179.5,164.6,182.2,19.0
30.0,199.2,177.3,163.9,180.1,17.8
30.5,199.5,180.2,159.4,179.7,20.1
31.0,196.4,175.9,163.5,178.6,16.6
31.5,190.7,173.6,161.7,175.3,14.6
32.0,193.5,173.0,160.8,175.8,16.5
32.5,186.8,174.6,163.5,175.0,11.7
33.0,183.4,169.5,161.3,171.4,11.2
33.5,184.8,171.3,163.8,173.3,10.6
34.0,184.3,167.3,160.9,170.8,12.1
34.5,179.7,168.1,163.2,170.3,8.5
35.0,178.4,162.6,162.2,167.7,9.2
35.5,177.1,164.9,164.4,168.8,7.2
36.0,177.0,163.3,164.9,168.4,7.5
36.5,172.9,163.4,163.9,166.8,5.4
37.0,171.5,162.3,163.5,165.7,5.0
37.5,170.3,161.7,159.4,163.8,5.7
38.0,169.0,159.3,158.9,162.4,5.7
38.5,165.3,160.2,162.1,162.5,2.6
39.0,165.4,159.3,162.0,162.3,3.1
39.5,164.6,157.8,164.4,162.3,3.8
40.0,161.9,155.2,164.3,160.5,4.7
40.5,163.4,158.7,161.1,161.1,2.3
41.0,158.9,155.5,163.1,159.2,3.8
41.5,160.1,155.1,163.7,159.6,4.3
42.0,157.1,156.7,165.3,159.7,4.9
42.5,156.4,158.0,167.3,160.6,5.9
43.0,157.8,153.7,167.2,159.6,6.9
43.5,157.9,152.6,165.6,158.7,6.5
44.0,157.2,152.8,164.0,158.0,5.7
44.5,155.5,152.7,166.7,158.3,7.4
45.0,151.5,151.5,167.4,156.8,9.2
45.5,152.8,153.3,165.5,157.2,7.2
46.0,151.1,153.0,164.3,156.2,7.1
46.5,150.1,151.4,165.1,155.6,8.3
47.0,150.8,151.4,166.2,156.1,8.7
47.5,148.5,150.9,166.5,155.3,9.8
48.0,148.3,150.8,165.7,154.9,9.4
48.5,146.9,151.1,167.3,155.1,10.8
49.0,146.1,150.8,167.2,154.7,11.1
49.5,144.5,149.8,166.5,153.6,11.5
50.0,145.2,150.3,167.3,154.2,11.6
50.5,143.9,156.0,165.2,155.0,10.7
51.0,141.1,151.5,164.4,152.3,11.7
51.5,145.2,149.5,167.4,154.0,11.7
52.0,140.8,149.1,165.6,151.8,12.6
52.5,139.8,148.3,165.3,151.1,13.0
53.0,139.9,147.2,166.6,151.2,13.8
53.5,139.7,148.6,166.1,151.5,13.4
54.0,141.0,145.8,166.3,151.0,13.5
54.5,137.2,147.9,167.1,150.7,15.1
55.0,140.8,143.9,166.2,150.3,13.9
55.5,140.6,146.9,167.5,151.7,14.1
56.0,138.9,145.1,165.5,149.8,13.9
56.5,137.7,147.5,163.8,149.7,13.2
57.0,137.8,146.2,168.2,150.7,15.7
57.5,137.6,146.4,169.5,151.2,16.5
58.0,137.0,146.3,167.5,150.3,15.6
58.5,139.0,144.2,166.5,149.9,14.6
59.0,135.9,146.0,166.3,149.4,15.5
59.5,138.4,145.0,167.3,150.2,15.2
60.0,136.1,144.1,166.7,149.0,15.9
60.5,137.1,144.2,164.2,148.5,14.1
61.0,136.7,144.0,168.8,149.8,16.8
61.5,136.9,145.9,166.8,149.9,15.3
62.0,137.6,144.6,165.9,149.3,14.8
62.5,135.7,144.0,168.4,149.4,17.0
63.0,134.4,145.9,168.7,149.7,17.4
63.5,135.5,144.2,162.6,147.4,13.8
64.0,137.3,144.4,166.7,149.5,15.3
64.5,136.7,144.4,164.2,148.4,14.2
65.0,137.6,143.1,165.5,148.7,14.8
65.5,133.3,145.1,164.6,147.6,15.8
66.0,135.7,144.1,164.4,148.1,14.7
66.5,135.1,145.6,162.2,147.6,13.7
67.0,134.1,144.6,162.5,147.1,14.4
67.5,135.7,144.4,165.4,148.5,15.3
68.0,132.8,142.6,163.8,146.4,15.9
68.5,133.1,141.9,161.8,145.6,14.7
69.0,134.0,144.2,161.6,146.6,14.0
69.5,131.5,140.5,158.7,143.6,13.8
70.0,134.5,143.1,157.0,144.8,11.4
70.5,133.0,142.4,159.0,144.8,13.2
71.0,134.5,141.5,158.3,144.7,12.2
71.5,134.3,142.3,154.3,143.6,10.1
72.0,132.4,138.4,154.4,141.7,11.4
72.5,130.1,138.3,153.6,140.7,11.9
73.0,127.9,140.3,156.5,141.6,14.3
73.5,129.2,137.4,149.0,138.5,9.9
74.0,129.1,139.6,147.7,138.8,9.3
74.5,127.5,139.8,144.3,137.2,8.7
75.0,125.6,134.6,144.3,134.8,9.4
75.5,127.9,136.3,143.9,136.0,8.0
76.0,124.7,137.0,138.4,133.4,7.5
76.5,124.6,136.7,138.4,133.2,7.5
77.0,126.7,135.6,137.3,133.2,5.7
77.5,124.6,138.6,135.1,132.8,7.3
78.0,122.5,133.1,134.0,129.9,6.4
78.5,122.6,136.0,131.7,130.1,6.8
79.0,122.9,134.9,130.7,129.5,6.1
79.5,121.9,133.1,126.2,127.1,5.6
80.0,122.2,131.9,125.4,126.5,5.0
80.5,119.6,131.2,122.3,124.4,6.1
81.0,118.2,130.5,119.9,122.9,6.7
81.5,119.0,131.1,117.7,122.6,7.4
82.0,118.2,129.6,115.4,121.1,7.5
82.5,117.3,128.9,111.0,119.1,9.1
83.0,115.7,128.4,111.3,118.5,8.9
83.5,115.1,128.9,107.0,117.0,11.0
84.0,115.2,127.1,107.2,116.5,10.0
84.5,111.9,126.3,103.5,113.9,11.5
85.0,112.6,127.4,104.2,114.7,11.8
85.5,112.2,124.9,100.3,112.5,12.3
86.0,110.1,124.0,99.1,111.1,12.5
86.5,107.9,123.3,95.4,108.9,13.9
87.0,109.6,121.5,94.3,108.5,13.6
87.5,106.8,121.6,91.1,106.5,15.3
88.0,107.2,121.5,88.6,105.8,16.5
88.5,106.0,119.4,86.0,103.8,16.8
89.0,103.6,121.4,85.1,103.3,18.1
89.5,102.1,118.4,81.4,100.6,18.5
90.0,101.1,119.1,80.5,100.3,19.3
90.5,101.2,118.8,77.9,99.3,20.5
91.0,99.8,115.5,76.1,97.1,19.8
91.5,98.3,115.1,73.8,95.7,20.7
92.0,99.1,115.4,72.4,95.6,21.7
92.5,96.4,113.0,71.5,93.7,20.9
93.0,96.2,113.4,67.4,92.3,23.2
93.5,94.2,112.0,66.2,90.8,23.1
94.0,93.3,112.5,64.9,90.2,24.0
94.5,91.6,112.2,63.4,89.1,24.5
95.0,90.3,113.1,61.1,88.2,26.1
95.5,87.1,108.3,58.7,84.7,24.9
96.0,85.7,106.5,57.7,83.3,24.5
96.5,84.5,107.6,56.4,82.8,25.6
97.0,83.6,104.6,55.8,81.3,24.5
97.5,83.3,102.1,53.9,79.8,24.3
98.0,80.7,98.7,54.2,77.8,22.4
98.5,78.5,98.6,51.9,76.3,23.4
99.0,77.4,95.6,51.8,75.0,22.0
99.5,77.6,93.6,50.2,73.8,22.0
100.0,75.4,91.8,50.4,72.5,20.9
100.5,74.6,90.6,49.1,71.4,20.9
101.0,73.2,89.0,49.2,70.5,20.0
101.5,71.1,86.8,47.6,68.5,19.7
102.0,70.1,83.9,47.2,67.1,18.5
102.5,69.8,85.0,46.4,67.1,19.4
103.0,68.4,82.1,45.4,65.3,18.6
103.5,68.5,81.1,44.4,64.7,18.6
104.0,67.5,78.8,44.4,63.6,17.6
104.5,66.7,77.8,43.9,62.8,17.3
105.0,66.3,76.5,42.8,61.9,17.3
105.5,66.5,74.1,42.8,61.1,16.3
106.0,64.9,73.1,41.9,60.0,16.2
106.5,64.7,70.8,42.2,59.3,15.1
107.0,62.7,70.3,41.3,58.1,15.0
107.5,61.2,67.9,40.6,56.6,14.2
108.0,60.7,68.6,40.2,56.5,14.7
108.5,58.8,66.5,40.5,55.3,13.3
109.0,57.8,65.0,40.2,54.3,12.8
109.5,56.4,63.6,40.3,53.4,12.0
110.0,55.1,62.9,40.2,52.7,11.6
110.5,54.7,62.6,40.0,52.4,11.5
111.0,54.3,60.5,39.7,51.5,10.6
111.5,54.1,60.1,38.4,50.8,11.2
112.0,53.3,59.2,38.1,50.2,10.9
112.5,52.5,57.8,37.4,49.2,10.6
113.0,51.2,57.3,37.0,48.5,10.4
113.5,51.2,56.1,36.8,48.0,10.0
114.0,49.6,54.7,36.3,46.8,9.5
114.5,48.8,55.0,36.0,46.6,9.7
115.0,47.8,53.4,35.7,45.7,9.0
115.5,47.7,52.4,35.3,45.1,8.8
116.0,46.6,51.9,35.3,44.6,8.5
116.5,45.7,50.9,33.9,43.5,8.7
117.0,45.5,50.4,,48.0,3.4
117.5,44.9,49.3,,47.1,3.1
118.0,44.7,49.0,,46.8,3.0
118.5,45.2,49.4,,47.3,3.0
119.0,44.0,47.8,,45.9,2.7
119.5,43.9,47.7,,45.8,2.6
120.0,43.3,47.3,,45.3,2.8
120.5,43.2,46.3,,44.8,2.2
121.0,41.8,46.3,,44.1,3.2
121.5,42.2,46.6,,44.4,3.1
122.0,41.5,46.1,,43.8,3.2
122.5,40.7,45.2,,42.9,3.2
123.0,40.2,44.6,,42.4,3.1
123.5,40.1,44.0,,42.0,2.8
124.0,39.5,44.2,,41.9,3.3
124.5,38.7,43.7,,41.2,3.5
125.0,38.6,42.5,,40.5,2.7
125.5,38.5,42.9,,40.7,3.1
126.0,37.9,42.1,,40.0,3.0
126.5,37.7,42.2,,39.9,3.2
127.0,38.0,42.0,,40.0,2.9
127.5,37.4,41.8,,39.6,3.1
128.0,37.7,40.4,,39.1,1.9
128.5,37.5,40.7,,39.1,2.3
129.0,37.5,41.2,,39.3,2.6
129.5,36.4,40.6,,38.5,3.0
130.0,37.5,40.0,,38.7,1.8
130.5,36.8,39.1,,38.0,1.7
131.0,36.0,38.9,,37.4,2.1
131.5,36.5,38.4,,37.5,1.3
132.0,36.0,38.2,,37.1,1.5
132.5,35.6,38.4,,37.0,2.0
133.0,35.6,37.4,,36.5,1.3
133.5,35.4,36.7,,36.0,0.9
134.0,35.1,36.6,,35.9,1.1
134.5,34.9,36.5,,35.7,1.1
135.0,34.3,36.1,,35.2,1.3
135.5,34.5,35.7,,35.1,0.9
136.0,34.0,35.9,,35.0,1.3
136.5,33.5,35.1,,34.3,1.1
137.0,33.3,34.6,,33.9,0.9
137.5,33.0,34.3,,33.6,0.9
138.0,32.3,34.2,,33.3,1.3
138.5,32.2,34.4,,33.3,1.5
139.0,32.2,34.3,,33.2,1.5
139.5,31.5,34.2,,32.9,1.9
140.0,31.3,33.5,,32.4,1.5
140.5,30.9,33.4,,32.2,1.8
141.0,31.5,33.4,,32.4,1.3
141.5,31.0,32.8,,31.9,1.3
142.0,30.7,33.2,,32.0,1.8
142.5,31.1,33.0,,32.1,1.3
143.0,30.8,32.8,,31.8,1.4
143.5,30.6,32.4,,31.5,1.3
144.0,30.3,32.8,,31.5,1.8
144.5,30.4,32.3,,31.3,1.3
145.0,29.5,32.1,,30.8,1.8
145.5,30.0,32.0,,31.0,1.4
146.0,29.5,31.3,,30.4,1.3
146.5,29.8,31.4,,30.6,1.2
146.75,29.2,,,29.2,