Folder: fsri_materials_database/01_Data/Excelsior/Cone

Note: README.md
# Materials and Products Database
### Repository of materials and products properties and fire test data to improve fire modeling and fire investigation.

This project was supported in part by Award No. 2019-DU-BX-0018, awarded by the National Institute of Justice, Office of Justice Programs, U.S. Department of Justice. The opinions, findings, and conclusions or recommendations expressed in this publication / program / exhibition are those of the author(s) and do not necessarily reflect those of the Department of Justice.

***
***

__Cite this database:__ "McKinnon, M., Weinschenk, C., Dow, N., DiDomizio, M., and Madrzykowski, D. Materials and Products Database (Version 1.0.0), Fire Safety Research Institute, UL Research Institutes. Columbia, MD 21045, 2023."

__Cite the Technical Reference Guide:__ "McKinnon, M., Weinschenk, C., and Madrzykowski, D. Materials and Products Database - Technical Reference Guide, Fire Safety Research Institute, UL Research Institutes. Columbia, MD 21045, 2023."

__Cite the User Guide:__ "McKinnon, M., and Weinschenk, C. Materials and Products Database - User Guide, Fire Safety Research Institute, UL Research Institutes. Columbia, MD 21045, 2023."

***
***

## Database Structure

## 01_Data/
Raw data generated from each apparatus are included here in plain-text format. The data is organized first by material, next by the short name of test apparatus used, and where applicable additional filtering by test settings.

### Test Apparatus and Data File Structure
- __Cone Calorimeter__ (Cone)
    + Data file structure includes the material, the short name for the apparatus, heat flux setting and scan/scalar, date of test, and replicate number. Scan is for the raw output data and scalar is for the initial conditions and high-level test parameters. 
        * Example: __MDF_Cone_HF25scalar_210323_R1__ stands for the first replicate of scalar data generated from a medium density fiber board test in cone calorimeter exposed to 25 kW/m<sup>2</sup> on March 23, 2021.
    + A _Cone_Notes.csv_ is generated for each material from the __plot_Cone_data.py__ script. For materials whose experiments deviated from typical behavior relevant pictures are included in the respective material directory.
- __Fourier Transform Infrared Spectrometer__ (FTIR)
    + The FTIR directory contains subdirectories for the Attenuated Total Reflectance method (ATR) and the Integrating Sphere (IS)
    + Data file structure for the ATR experiment files includes the material, the abbreviated name for the apparatus, date of test, and replicate number. 
        * Example: __MDF_ATR_210323_R5__ stands for the fifth replicate of data collected with the ATR accessory conducted on June 8, 2021.
    + Data file structure for the IS experiment files includes the material, the abbreviated name for the apparatus, the measurand, whether the test is a sample measurement or standard reference, date of test, and replicate number.
        * Example: __OSB_IS_REFLECT_MEAS_2

File: Excelsior_Cone_HF35Scalar_181018_R1.csv
LABORATORY,FSRI
TEST IDENT,BC_E1
OPERATOR,Dow
MATERIAL,Boot Camp Excelsior
ORIENTATION,Horizontal
HEAT FLUX,35
SURF AREA,0.01
C FACTOR,0.0399942
SPEC HOLDER DIFF,365.82
SPECIMEN MASS,12
SCAN TIME,0.25
O2 DELAY TIME,11
CO DELAY TIME,11
CO2 DELAY TIME,8
FLOW FACTOR,1
SCAN COUNT,1142
TIME TO IGN,18.75
END OF TEST SCAN,662
END OF TEST TIME,165.5
TEST STATUS,1

File: Excelsior_Cone_HF35Scalar_181018_R2.csv
LABORATORY,FSRI
TEST IDENT,BC_E2
OPERATOR,Dow
MATERIAL,Boot Camp Excelsior
ORIENTATION,Horizontal
HEAT FLUX,35
SURF AREA,0.01
C FACTOR,0.039478
SPEC HOLDER DIFF,364.69
SPECIMEN MASS,14.17
SCAN TIME,0.25
O2 DELAY TIME,11
CO DELAY TIME,11
CO2 DELAY TIME,8
FLOW FACTOR,1
SCAN COUNT,1147
TIME TO IGN,20.25
END OF TEST SCAN,667
END OF TEST TIME,166.75
TEST STATUS,1

File: Excelsior_Cone_HF35Scalar_181019_R3.csv
LABORATORY,FSRI
TEST IDENT,BC-E3
OPERATOR,Dow
MATERIAL,Boot Camp Excelsior
ORIENTATION,Horizontal
HEAT FLUX,35
SURF AREA,0.01
C FACTOR,0.03822
SPEC HOLDER DIFF,352.52
SPECIMEN MASS,17.55
SCAN TIME,0.25
O2 DELAY TIME,11
CO DELAY TIME,11
CO2 DELAY TIME,8
FLOW FACTOR,1
SCAN COUNT,1028
TIME TO IGN,20.5
END OF TEST SCAN,548
END OF TEST TIME,137
TEST STATUS,1

File: Excelsior_Cone_HF35Scan_181018_R1.csv
Names,Time,Stack TC,Smoke TC,Exh Press,Smoke Comp,Smoke Meas,CO Meter,CO2 Meter,O2 Meter,Sample Mass,Ext Coeff,Start Test,Flame Verif
Chan Gain,,500,500,1,1,1,1,1,1,1,1,1,1
Offset,,0,0,0.14301,0,0,0,0,0,0,0,0,0
Gain,,1,1,25.011,13.5312,14.6783,1,1,1,1.00099,1.04424,1,1
Units,sec,C,C,Pa,%,%,%,%,%,g,/m,,
Baseline,,39.9588,41.8313,180.306,100.201,98.9739,0.003443114,0.0522564,20.9604,-0.737692,0.112955,,
12,2.75,38.4941,40.6419,184.184,100.394,99.3443,0.003574805,0.0577858,20.9538,943.947,0.096277,0,0
24,5.75,39.0241,40.3999,176.765,100.391,99.3497,0.003542739,0.0578437,20.9541,943.837,0.0954795,0,0
36,8.75,39.0279,40.6705,182.876,100.384,98.62,0.00360143,0.05758274,20.9571,943.827,0.162365,0,0
48,11.75,39.0621,41.4254,177.12,100.399,97.5243,0.003601781,0.0565584,20.9595,943.717,0.26606,0,0
60,14.75,39.5878,41.9092,179.226,100.389,98.5963,0.003548043,0.0556127,20.9582,943.667,0.165023,0,0
72,17.75,39.7211,41.3568,177.112,100.384,97.0316,0.003724897,0.0582885,20.9388,943.627,0.311178,0,0
84,20.75,41.7507,45.5105,170.335,100.372,100.608,0.004002225,0.09843488,20.8141,943.297,-0.0215418,0,1
96,23.75,45.1133,50.3427,169.194,100.372,99.6588,0.004231298,0.175839,20.6999,942.836,0.06532988,0,0
108,26.75,47.9475,54.6872,161.119,100.357,98.6505,0.004669464,0.238509,20.6497,942.496,0.157125,0,0
120,29.75,50.5529,59.3372,163.965,100.334,100.571,0.005220893,0.285802,20.6171,942.086,-0.0216239,0,0
132,32.75,53.4977,62.352,163.687,100.32,99.1239,0.005751596,0.326904,20.5845,941.615,0.109873,0,0
144,35.75,55.3842,65.5238,156.585,100.309,98.6684,0.006104364,0.364328,20.5546,941.205,0.151012,0,0
156,38.75,57.4242,68.0287,161.698,100.297,99.6937,0.006155851,0.395154,20.5379,940.754,0.0552955,0,0
168,41.75,58.2759,69.9199,164.514,100.303,99.0603,0.006070819,0.41459,20.5291,940.344,0.114169,0,0
180,44.75,59.5756,71.9275,160.217,100.28,98.7893,0.006074306,0.427252,20.5388,939.933,0.137226,0,0
192,47.75,60.4283,72.2137,164.341,100.283,99.6023,0.006510973,0.425481,20.5607,939.563,0.0623761,0,0
204,50.75,60.3003,72.3701,170.632,100.283,99.1692,0.006781609,0.415637,20.5866,939.233,0.102299,0,0
216,53.75,60.1151,71.7375,162.726,100.284,98.2164,0.006710429,0.400313,20.6078,938.942,0.190844,0,0
228,56.75,59.8591,71.0167,166.32,100.285,99.1692,0.006554124,0.385148,20.6303,938.622,0.102488,0,0
240,59.75,59.8296,70.9221,161.936,100.264,98.1689,0.006528451,0.368457,20.6459,938.362,0.193463,0,0
252,62.75,59.4149,69.6767,170.794,100.242,99.274,0.006633774,0.355811,20.6578,938.071,0.0888506,0,0
264,65.75,59.0986,69.6501,169.402,100.223,99.5378,0.006785328,0.344172,20.6691,937.801,0.06280227,0,0
276,68.75,59.1759,68.8765,168.057,100.212,97.8921,0.006906174,0.333918,20.6788,937.491,0.214537,0,0
288,71.75,58.7017,68.5745,165.173,100.211,98.4287,0.006851246,0.324809,20.687,937.241,0.164347,0,0
300,74.75,59.1858,67.677,168.83,100.2,98.3696,0.006912488,0.316897,20.6917,936.95,0.16887,0,0
312,77.75,59.1891,67.4942,164.164,100.199,97.7922,0.007171918,0.311713,20.6937,936.74,0.222719,0,0
324,80.75,58.9545,66.9308,171.057,100.173,97.6551,0.007260126,0.307269,20.6961,936.45,0.23319,0,0
336,83.75,58.7873,66.7707,173.014,100.157,97.3227,0.007135339,0.304142,20.6977,936.25,0.262946,0,0
348,86.75,59.0084,66.463,164.478,100.131,96.5948,0.00687845,0.300939,20.7002,935.939,0.329298,0,0
360,89.75,58.7871,66.1373,173.627,100.119,97.3832,0.006471608,0.297567,20.704,935.719,0.253782,0,0
372,92.75,58.2003,66.0359,169.246,100.097,98.1653,0.006377852,0.29292,20.7114,935.519,0.178506,0,0
384,95.75,58.0354,66.0585,173.479,100.092,97.2426,0.006647898,0.287009,20.7191,935.309,0.264565,0,0
396,98.75,57.9863,64.8482,172.979,100.081,97.6041,0.006901859,0.280816,20.7275,935.119,0.229518,0,0
408,101.75,57.8772,64.4622,169.28,100.069,98.1738,0.006841653,0.273415,20.7375,934.898,0.17518,0,0
420,104.75,57.7798,63.7668,169.289,100.093,97.1418,0.006857416,0.26519,20.7483,934.758,0.274102,0,0
432,107.75,56.594,63.4931,167.665,100.079,99.0572,0.00702603,0.256251,20.7604,934.568,0.0940346,0,0
444,110.75,56.6276,62.7346,175.771,100.079,98.0368,0.007125943,0.245887,20.7735,934.428,0.188809,0,0
456,113.75,55.4838,61.8052,174.269,100.091,99.5249,0.006978277,0.234147,20.7898,934.278,0.0519498,0,0
468,116.75,55.5873,60.6554,172.144,100.114,99.347,0.007103284,0.22046,20.807,934.188,0.0704101,0,0
480,119.75,54.8573,59.2197,175.188,100.095,100.439,0.007558556,0.207123,20.8227,934.068,-0.0313563,0,0
492,122.75,53.7035,58.6095,170.948,100.089,99.4245,0.008206243,0.194287,20.832,933.967,0.0610387,0,0
504,125.75,53.0244,57.6888,170.923,100.091,99.2843,0.009055394,0.183111,20.8413,933.877,0.0741532,0,0
516,128.75,52.6591,55.7916,170.88,100.081,100.599,0.009329473,0.170432,20.8557,933.817,-0.0472545,0,0
528,131.75,51.8296,55.5802,172.06,100.065,98.4444,0.009593101,0.159951,20.8637,933.757,0.149591,0,0
540,134.75,51.4228,54.1115,174.164,100.034,99.3291,0.0101512,0.150631,20.873,933.717,0.0647292,0,0
552,137.75,50.7766,53.9025,173.106,100.016,98.6464,0.0107127,0.142234,20.8777,933.637,0.126275,0,0
564,140.75,50.16,53.1219,178.774,100.003,98.3373,0.0111979,0.135453,20.8837,933.597,0.153887,0,0
576,143.75,50.1447,51.6924,174.988,100.007,98.6406,0.011365,0.128839,20.8883,933.557,0.12606,0,0
588,146.75,49.3326,51.1308,177.527,99.9819,98.7728,0.0114743,0.123723,20.8905,933.517,0.111451,0,0
600,149.75,49.5351,51.002,172.782,99.9695,98.491,0.0118695,0.119162,20.8928,933.467,0.136484,0,0
612,152.75,48.6432,51.1182,177.391,99.9654,99.5974,0.012257,0.115301,20.8954,933.417,0.03377746,0,0
624,155.75,48.1225,50.455,176.565,99.9447,98.8946,0.0121434,0.111649,20.8987,933.357,0.0967545,0,0
636,158.75,48.3864,49.6053,175.913,99.9162,98.0453,0.0119577,0.10796,20.9022,933.327,0.173147,0,0
648,161.75,47.9671,48.8669,177.023,99.8762,98.2643,0.0120347,0.104966,20.9034,933.317,0.149033,0,0
660,164.75,46.9857,48.9255,175.654,99.8617,98.8565,0.012346,0.102624,20.9057,933.277,0.0926716,0,0
672,167.75,47.098,48.5227,174.124,99.8204,98.491,0.0113907,0.100214,20.9092,933.747,0.122814,0,0
684,170.75,46.0981,47.4634,179.689,99.7919,98.2164,0.009112938,0.0940989,20.926,98.2776,0.145773,0,0
696,173.75,45.3361,46.2562,179.345,99.7663,97.3044,0.007730096,0.0868227,20.9333,-0.750745,0.228878,0,0
708,176.75,44.7213,44.7213,179.655,99.7498,98.4162,0.006888884,0.0837369,20.9282,-0.670666,0.123293,0,0
720,179.75,45.3276,44.8262,183.945,99.7329,98.1877,0.005975071,0.0810454,20.9341,-0.740736,0.143026,0,0
732,182.75,43.8451,44.4852,177.369,99.7106,98.4413,0.005070705,0.0762161,20.9446,-0.780775,0.117355,0,0
744,185.75,44.3252,44.6672,179.387,99.6961,98.0193,0.004501645,0.0710319,20.95,-0.740736,0.155376,0,0
756,188.75,43.9956,44.7389,176.028,99.6747,97.7174,0.004074863,0.0667747,20.9544,-0.750745,0.181661,0,0
768,191.75,44.5693,44.1574,183,99.6263,98.5712,0.003823726,0.063227,20.9569,-0.740736,0.0975335,0,0
780,194.75,43.6674,43.6173,176.188,99.6111,98.4852,0.00347926,0.0607429,20.9584,-0.740736,0.104124,0,0
792,197.75,44.0809,43.7083,177.701,99.5685,98.1483,0.003343973,0.0588826,20.9589,-0.730726,0.131597,0,0
804,200.75,43.4296,43.8585,179.383,99.5442,97.7528,0.003425737,0.057216,20.959,-0.720716,0.166344,0,0
816,203.75,43.1828,43.992,183.436,99.4946,97.5454,0.003614131,0.0560118,20.9601,-0.730726,0.181239,0,0
828,206.75,43.1517,43.6963,177.631,99.4802,97.5736,0.003476802,0.0552516,20.961,-0.740736,0.177259,0,0
840,209.75,43.6756,43.5904,175.094,99.4888,98.4708,0.003285351,0.0545123,20.9612,-0.740736,0.0942107,0,0
852,212.75,42.8989,43.1804,181.124,99.4905,97.51,0.003302954,0.0541841,20.9598,-0.720716,0.184183,0,0
864,215.75,42.9246,42.8926,177.561,99.4897,98.0435,0.003412571,0.0545352,20.9595,-0.720716,0.134126,0,0
876,218.75,42.8813,43.4671,179.456,99.4843,98.4959,0.00370396,0.0547658,20.9597,-0.740736,0.0914597,0,0
888,221.75,42.1386,43.4155,180.066,99.4942,97.9638,0.003611657,0.0546439,20.9597,-0.740736,0.141996,0,0
900,224.75,42.5372,43.7195,184.87,99.4917,98.2652,0.003497586,0.0542724,20.9597,-0.760755,0.113623,0,0
912,227.75,42.0025,42.6191,180.26,99.4897,97.8867,0.003525593,0.0538262,20.9597,-0.750745,0.148785,0,0
924,230.75,42.4816,42.7495,178.765,99.4901,97.8334,0.003757386,0.05360087,20.9612,-0.780775,0.153813,0,0
936,233.75,42.3666,42.6665,179.412,99.488,97.8916,0.003836325,0.0532323,20.9615,-0.780775,0.148172,0,0
948,236.75,42.1961,42.7259,177.141,99.4938,97.6672,0.003665509,0.0529023,20.9602,-0.750745,0.169728,0,0
960,239.75,42.7064,42.6866,177.062,99.4946,97.5982,0.003617074,0.0527939,20.9603,-0.760755,0.176276,0,0
972,242.75,42.2534,42.3494,186.05,99.5082,97.9552,0.003482796,0.0527375,20.961,-0.760755,0.144085,0,0
984,245.75,42.1327,42.7782,185.462,99.5033,98.3154,0.00360514,0.0527407,20.9613,-0.770765,0.110012,0,0
996,248.75,41.6714,42.7357,179.999,99.4983,97.523,0.003746039,0.0525132,20.9609,-0.760755,0.183684,0,0
1008,251.75,41.5805,43.1532,178.419,99.5029,97.828,0.003819467,0.0525179,20.9602,-0.790785,0.155494,0,0
1020,254.75,42.1969,42.6293,180.91,99.5107,97.3151,0.003783236,0.0525216,20.9616,-0.780775,0.204368,0,0
1032,257.75,42.1708,42.83,175.507,99.4987,97.6506,0.00366799,0.0527258,20.962,-0.780775,0.171739,0,0
1044,260.75,41.7554,42.7253,180.633,99.5091,98.1931,0.003418438,0.0527761,20.9616,-0.820815,0.121945,0,0
1056,263.75,41.8595,42.5644,178.766,99.5107,98.5577,0.003161728,0.0527024,20.9619,-0.810805,0.0881455,0,0
1068,266.75,42.1249,42.4964,176.984,99.5243,97.8518,0.003166669,0.052531,20.9626,-0.790785,0.155249,0,0
1080,269.75,42.0652,42.4945,176.237,99.5334,98.3024,0.003431218,0.0525368,20.9623,-0.800795,0.113997,0,0
1092,272.75,41.799,42.2467,179.479,99.5413,97.8164,0.003637305,0.0529137,20.9609,-0.800795,0.16012,0,0
1104,275.75,41.8824,42.2859,175.577,99.5363,99.0079,,0.0534509,,-0.780775,0.048757,0,0
1116,278.75,41.2812,42.2484,185.909,99.5491,97.6076,,,,-0.730726,0.18041,0,0
1128,281.75,40.7654,42.4563,182.245,99.5541,97.8262,,,,-0.810805,0.160375,0,0
1140,284.75,40.9299,41.1874,179.326,99.5491,98.0717,,,,-0.760755,0.136963,0,0
1142,285.25,40.6035,41.146,177.868,99.557,98.1125,,,,-0.760755,0.133878,0,0

File: Excelsior_Cone_HF35Scan_181018_R2.csv
Names,Time,Stack TC,Smoke TC,Exh Press,Smoke Comp,Smoke Meas,CO Meter,CO2 Meter,O2 Meter,Sample Mass,Ext Coeff,Start Test,Flame Verif
Chan Gain,,500,500,1,1,1,1,1,1,1,1,1,1
Offset,,0,0,0.14301,0,0,0,0,0,0,0,0,0
Gain,,1,1,25.011,14.3065,15.6922,1,1,1,1.00094,1.047,1,1
Units,sec,C,C,Pa,%,%,%,%,%,g,/m,,
Baseline,,39.6114,41.5643,167.614,103.512,104.658,0.00221593,0.0504185,20.9581,-0.0975498,-0.101115,,
12,2.75,38.5403,40.3428,164.809,103.481,104.186,0.002732332,0.0514063,20.9587,945.577,-0.062341,0,0
24,5.75,38.9231,39.6948,169.602,103.501,104.658,0.002737814,0.0516081,20.9571,945.156,-0.102091,0,0
36,8.75,38.8689,40.8843,165.316,103.535,104.286,0.002483074,0.0533617,20.9526,945.256,-0.0663978,0,0
48,11.75,38.5773,41.3152,165.211,103.562,104.291,0.002214539,0.0567115,20.946,945.126,-0.0644576,0,0
60,14.75,39.686,41.0043,166.758,103.609,102.692,0.002272826,0.0607254,20.9409,945.126,0.08162751,0,0
72,17.75,39.1058,41.5869,164.83,103.648,101.689,0.002518583,0.0635416,20.9361,945.046,0.175238,0,0
84,20.75,39.3832,42.4407,151.979,103.692,103.741,0.003065469,0.0964435,20.8697,944.886,-0.004384778,0,1
96,23.75,43.1589,47.0172,152.266,103.733,103.758,0.003765722,0.177528,20.7478,944.316,-0.00219158,0,1
108,26.75,46.2151,51.8865,152.241,103.79,104.454,0.004107457,0.248517,20.6647,944.185,-0.0585576,0,0
120,29.75,48.1857,55.9674,148.677,103.833,105.116,0.004294144,0.300931,20.6207,943.675,-0.112741,0,0
132,32.75,50.9332,59.3036,153.42,103.881,103.084,0.004599836,0.339351,20.5861,943.305,0.0707348,0,0
144,35.75,52.6529,62.5425,148.115,103.938,105.091,0.005092913,0.371343,20.5593,942.884,-0.101343,0,0
156,38.75,54.6099,64.4591,155.921,103.969,104.697,0.005383817,0.393201,20.5483,942.464,-0.0640927,0,0
168,41.75,55.6388,67.3432,155.143,104.021,104.271,0.005465873,0.403778,20.5506,942.174,-0.0221248,0,0
180,44.75,57.0643,67.7069,153.337,104.074,105.22,0.005310035,0.402839,20.5597,941.753,-0.100566,0,0
192,47.75,57.5568,68.4773,154.53,104.123,102.903,0.005217712,0.396438,20.5751,941.433,0.108236,0,0
204,50.75,57.2384,69.2649,157.551,104.168,105.118,0.005144292,0.385788,20.593,941.083,-0.0833748,0,0
216,53.75,58.6771,68.6358,158.993,104.198,104.041,0.005125235,0.373353,20.6119,940.772,0.0138655,0,0
228,56.75,58.3438,68.8778,154.553,104.23,103.625,0.005293087,0.362228,20.6235,940.462,0.0534812,0,0
240,59.75,58.4492,68.4531,154.782,104.256,104.195,0.005528544,0.353509,20.6351,940.142,0.005418945,0,0
252,62.75,57.9839,68.157,160.914,104.275,102.797,0.005870672,0.345575,20.6412,939.921,0.131121,0,0
264,65.75,58.0769,68.1243,155.301,104.313,102.921,0.006027122,0.340331,20.6451,939.611,0.123392,0,0
276,68.75,57.9409,68.2854,154.668,104.343,103.799,0.006124184,0.33595,20.6491,939.301,0.0480023,0,0
288,71.75,58.4115,67.7243,154.649,104.378,104.948,0.005945782,0.33145,20.6522,938.92,-0.0499738,0,0
300,74.75,58.1369,67.4684,156.512,104.418,103.863,0.005584307,0.327636,20.6575,938.74,0.04889537,0,0
312,77.75,58.6744,67.5582,157.286,104.466,104.895,0.005455562,0.323906,20.6609,938.47,-0.0376865,0,0
324,80.75,57.9995,67.463,153.285,104.498,104.707,0.005316671,0.321487,20.662,938.2,-0.01835358,0,0
336,83.75,58.7668,67.1603,153.23,104.5056,105.121,0.00546225,0.3206833,20.6615,937.93,-0.0539222,0,0
348,86.75,57.9913,67.5351,158.47,104.534,103.706,0.005435068,0.319758,20.6639,937.649,0.0730095,0,0
360,89.75,58.7245,66.645,151.454,104.548,104.647,0.005147495,0.317013,20.6675,937.419,-0.008727816,0,0
372,92.75,58.7168,66.4705,150.628,104.55,105.331,0.005080547,0.314182,20.6713,937.169,-0.06835486,0,0
384,95.75,58.4184,66.8428,152.711,104.575,104.17,0.005197364,0.310229,20.6776,936.959,0.0356062,0,0
396,98.75,58.1436,66.0205,159.767,104.577,103.992,0.005439992,0.304924,20.6846,936.728,0.0515598,0,0
408,101.75,58.3076,65.641,157.619,104.589,105.324,0.005662592,0.298101,20.6925,936.508,-0.064316,0,0
420,104.75,57.8015,65.6882,156.545,104.597,104.924,0.005335076,0.290216,20.7016,936.308,-0.0286945,0,0
432,107.75,57.5911,65.2156,152.971,104.608,105.215,0.005229982,0.283936,20.7084,936.098,-0.0531866,0,0
444,110.75,57.5058,64.5374,161.407,104.592,106.005,0.005455606,0.276004,20.7207,935.938,-0.123244,0,0
456,113.75,56.6108,63.6258,156.441,104.607,105.656,0.005756873,0.265965,20.7312,935.737,-0.0916404,0,0
468,116.75,56.7163,62.4252,162.871,104.595,107.019,0.005777284,0.254877,20.7444,935.567,-0.21039,0,0
480,119.75,55.9569,62.0691,160.306,104.61,105.777,0.005794046,0.237441,20.771,935.467,-0.10186,0,0
492,122.75,55.1564,60.5952,165.23,104.614,106.876,0.00629889,0.218939,20.7911,935.347,-0.196448,0,0
504,125.75,53.9118,59.5518,159.698,104.609,105.801,0.00725705,0.202104,20.8103,935.327,-0.10405,0,0
516,128.75,53.5026,58.185,162.011,104.611,105.856,0.008410447,0.184593,20.8266,935.287,-0.108641,0,0
528,131.75,52.3019,56.8485,163.072,104.607,106.711,0.009773851,0.170798,20.8399,935.217,-0.182891,0,0
540,134.75,52.1109,55.609,168.37,104.606,105.978,0.0105172,0.158195,20.8518,935.147,-0.119728,0,0
552,137.75,51.4378,54.3133,161.077,104.612,106.085,0.0107211,0.148234,20.8607,935.067,-0.128483,0,0
564,140.75,50.5371,53.8038,159.708,104.616,106.384,0.01092747,0.140013,20.8663,935.027,-0.153972,0,0
576,143.75,50.1713,52.8663,159.258,104.627,106.327,0.0112351,0.133548,20.8708,934.977,-0.148052,0,0
588,146.75,49.944,51.6301,164.867,104.648,106.405,0.0117042,0.12777,20.8758,934.947,-0.152917,0,0
600,149.75,49.2949,51.1949,167.502,104.668,105.797,0.0119052,0.122942,20.8797,934.877,-0.0985444,0,0
612,152.75,48.5742,51.1614,168.651,104.7,105.921,0.0117944,0.118004,20.8843,934.897,-0.106474,0,0
624,155.75,48.3311,50.2964,162.153,104.727,106.065,0.0118399,0.113894,20.8881,934.817,-0.116586,0,0
636,158.75,47.8732,50.2475,166.377,104.761,104.782,0.0121298,0.110291,20.8917,934.767,-0.001871269,0,0
648,161.75,47.4324,49.6595,157.891,104.763,105.631,0.0121408,0.107238,20.893,934.707,-0.07576295,0,0
660,164.75,47.5634,48.7008,164.917,104.818,105.474,0.011948,0.104724,20.8955,934.727,-0.05731203,0,0
672,167.75,46.7822,48.8183,161.533,104.84,105.67,0.01186007,0.102858,20.8968,934.596,-0.0724397,0,0
684,170.75,47.1052,47.8978,165.702,104.87,105.794,0.0113639,0.101725,20.8973,934.556,-0.0806159,0,0
696,173.75,46.415,48.5229,166.512,104.887,105.882,0.0105688,0.101597,20.8974,87.8023,-0.0867302,0,0
708,176.75,45.8725,47.8194,166.435,104.92,106.272,0.008872118,0.099013,20.9044,-0.110103,-0.117616,0,0
720,179.75,46.1203,46.6133,165.695,104.939,105.684,0.006577587,0.0897878,20.923,-0.0800751,-0.0649714,0,0
732,182.75,45.9317,46.1047,167.769,104.954,105.755,0.004889813,0.0783655,20.9367,-0.0900845,-0.0697503,0,0
744,185.75,44.8164,46.1689,165.976,104.95,105.891,0.003721245,0.0703767,20.9439,-0.110103,-0.0819392,0,0
756,188.75,45.1599,45.2647,163.43,104.962,106.069,0.002948957,0.06509956,20.9499,-0.120113,-0.096343,0,0
768,191.75,44.0468,45.1148,166.689,104.98,106.836,0.002522956,0.0610164,20.9533,-0.140131,-0.160965,0,0
780,194.75,43.4856,44.9809,164.57,104.992,106.921,0.002539988,0.0580309,20.9549,-0.120113,-0.167179,0,0
792,197.75,43.6832,44.4249,163.534,105.011,107.315,0.002626854,0.0561182,20.9563,-0.0900845,-0.199332,0,0
804,200.75,43.5259,44.6035,165.355,105.019,106.562,0.002497333,0.0547441,20.9579,-0.110103,-0.133991,0,0
816,203.75,43.2064,44.0897,166.241,105.03,104.904,0.00234035,0.0537177,20.9588,-0.110103,0.0110556,0,0
828,206.75,42.9917,43.863,165.036,105.033,105.977,0.002285277,0.0529489,20.9591,-0.0800751,-0.0821529,0,0
840,209.75,42.8935,43.7907,167.62,105.033,106.323,0.002231957,0.05242826,20.959,-0.100094,-0.11203,0,0
852,212.75,43.4585,43.2547,167.424,105.029,105.856,0.002233711,0.0519794,20.9597,-0.100094,-0.0720281,0,0
864,215.75,42.5191,43.704,168.719,105.03,106.442,0.002292567,0.0517809,20.961,-0.0800751,-0.122633,0,0
876,218.75,42.5865,42.9774,168.252,105.017,106.092,0.00216973,0.0514137,20.9607,-0.100094,-0.0934817,0,0
888,221.75,42.4765,42.9588,167.291,105.022,105.972,0.002207039,0.0512133,20.9602,-0.0600563,-0.082734,0,0
900,224.75,42.5735,42.4472,168.702,105.014,105.888,0.002174238,0.05113063,20.9601,-0.110103,-0.076114,0,0
912,227.75,42.2398,42.7587,166.241,105.008,106.045,0.002177774,0.0510327,20.9601,-0.0900845,-0.09030021,0,0
924,230.75,41.9675,42.6341,165.502,105.008,106.432,0.002320324,0.0510917,20.9595,-0.100094,-0.123709,0,0
936,233.75,42.4197,42.3527,167.295,104.984,106.267,0.002478019,0.05118398,20.9596,-0.16015,-0.111587,0,0
948,236.75,41.8129,42.9558,166.684,104.981,106.186,0.002459356,0.0510518,20.9598,-0.16015,-0.104812,0,0
960,239.75,41.9341,42.5947,167.192,104.976,106.529,0.002164726,0.0510037,20.9601,-0.150141,-0.134844,0,0
972,242.75,42.1535,42.19,168.935,104.981,106.239,0.001903021,0.0509237,20.9605,-0.100094,-0.10945,0,0
984,245.75,41.6601,42.9309,165.722,104.962,106.224,0.002039797,0.0510761,20.9604,-0.110103,-0.109809,0,0
996,248.75,42.0332,42.4441,169.934,104.971,106.37,0.00235939,0.0510892,20.9595,-0.110103,-0.121665,0,0
1008,251.75,41.3279,42.6067,163.547,104.968,105.955,0.00244609,0.0510602,20.9609,-0.16015,-0.0859334,0,0
1020,254.75,41.7999,42.7222,162.871,104.968,106.796,0.002529312,0.0508596,20.9613,-0.120113,-0.158538,0,0
1032,257.75,41.6558,42.455,166.226,104.97,106.645,0.00243501,0.0508353,20.959,-0.140131,-0.145405,0,0
1044,260.75,41.3273,42.4798,164.761,104.968,106.136,0.002330425,0.051233,20.9568,-0.120113,-0.101649,0,0
1056,263.75,41.8026,42.6809,166.136,104.961,105.815,0.002416631,0.0518901,20.9558,-0.140131,-0.0744952,0,0
1068,266.75,41.7605,42.6662,169.892,104.962,106.29,0.002431797,0.0524521,20.9555,-0.120113,-0.115483,0,0
1080,269.75,41.5141,42.3819,167.061,104.968,106.032,0.002447977,0.0525547,20.9554,-0.100094,-0.0926174,0,0
1092,272.75,41.1794,42.4994,165.841,104.958,106.639,0.002447672,0.0525757,20.9545,-0.110103,-0.145899,0,0
1104,275.75,41.941,42.3307,165.589,104.957,106.363,,0.0527726,,-0.100094,-0.12219,0,0
1116,278.75,41.6414,42.3386,167.162,104.961,106.19,,,,-0.100094,-0.106942,0,0
1128,281.75,40.9596,42.7044,170.406,104.95,105.926,,,,-0.110103,-0.0850056,0,0
1140,284.75,41.6725,42.6649,166.853,104.956,105.753,,,,-0.100094,-0.0695109,0,0
1147,286.5,41.5497,42.043,163.924,104.965,106.064,,,,-0.110103,-0.0956603,0,0