Folder: fsri_materials_database/01_Data/ABS/Cone (part 6)

File: ABS_HRRPUA_50.csv
Time after Ignition,ABS_R1,ABS_R2,ABS_R3,Mean,Std. Dev.
0.0,-0.2,3.1,10.9,4.6,5.7
0.5,2.2,3.9,17.4,7.9,8.3
1.0,4.2,8.0,28.3,13.5,13.0
1.5,15.8,15.7,36.8,22.8,12.1
2.0,24.5,25.6,54.2,34.8,16.9
2.5,38.7,33.2,69.5,47.1,19.6
3.0,56.4,57.1,93.0,68.8,20.9
3.5,69.9,76.0,112.2,86.0,22.9
4.0,91.8,101.6,137.8,110.4,24.3
4.5,111.8,129.1,156.9,132.6,22.8
5.0,142.1,149.4,182.8,158.1,21.7
5.5,168.5,178.8,214.9,187.4,24.4
6.0,192.1,194.8,232.8,206.6,22.8
6.5,221.5,228.7,252.5,234.2,16.2
7.0,249.7,252.8,284.8,262.4,19.4
7.5,271.0,275.6,302.5,283.0,17.1
8.0,289.2,297.6,318.3,301.7,15.0
8.5,319.4,323.1,331.1,324.5,6.0
9.0,337.7,354.7,358.6,350.3,11.1
9.5,371.1,375.1,367.5,371.2,3.8
10.0,360.2,396.6,397.6,384.8,21.3
10.5,395.8,418.1,410.8,408.2,11.4
11.0,417.4,445.7,423.5,428.9,14.9
11.5,423.3,451.5,447.6,440.8,15.3
12.0,462.8,471.2,462.3,465.4,5.0
12.5,489.4,504.2,503.2,498.9,8.3
13.0,498.2,503.5,511.8,504.5,6.9
13.5,524.1,522.3,530.3,525.6,4.2
14.0,533.6,514.4,543.7,530.6,14.9
14.5,559.2,542.0,541.7,547.6,10.0
15.0,575.8,547.3,578.8,567.3,17.4
15.5,598.9,586.2,609.7,598.2,11.8
16.0,588.2,596.6,619.1,601.3,16.0
16.5,595.4,604.2,608.7,602.8,6.8
17.0,618.7,607.8,666.3,631.0,31.1
17.5,631.6,642.6,653.5,642.5,11.0
18.0,628.0,629.6,650.9,636.1,12.8
18.5,676.3,677.0,661.5,671.6,8.8
19.0,665.1,680.1,697.6,680.9,16.3
19.5,692.9,727.6,713.1,711.2,17.4
20.0,706.5,700.6,695.8,700.9,5.4
20.5,714.1,739.3,743.4,732.2,15.8
21.0,722.6,725.1,744.9,730.9,12.2
21.5,697.4,748.6,761.5,735.8,33.9
22.0,725.6,769.5,769.1,754.8,25.3
22.5,765.0,791.1,779.7,778.6,13.1
23.0,740.1,790.3,767.7,766.0,25.1
23.5,733.6,735.4,805.1,758.0,40.8
24.0,765.1,805.0,775.6,781.9,20.7
24.5,783.7,770.5,772.6,775.6,7.1
25.0,799.3,760.0,797.5,785.6,22.2
25.5,775.2,822.8,815.8,804.6,25.7
26.0,802.3,812.6,789.2,801.4,11.7
26.5,791.7,788.0,798.3,792.7,5.2
27.0,783.2,800.7,820.1,801.3,18.5
27.5,804.3,822.4,835.8,820.8,15.8
28.0,807.9,803.0,805.1,805.3,2.5
28.5,820.8,827.8,837.1,828.5,8.2
29.0,829.5,846.3,819.4,831.7,13.6
29.5,836.2,850.0,813.7,833.3,18.3
30.0,874.6,830.6,840.6,848.6,23.0
30.5,798.9,820.3,808.6,809.3,10.7
31.0,806.3,808.1,817.0,810.5,5.7
31.5,832.8,909.9,845.0,862.5,41.4
32.0,850.3,845.8,827.3,841.1,12.2
32.5,832.2,882.4,842.3,852.3,26.5
33.0,876.5,840.7,823.9,847.0,26.9
33.5,862.5,849.6,814.4,842.2,24.9
34.0,847.4,844.9,862.2,851.5,9.4
34.5,858.1,876.1,838.7,857.6,18.7
35.0,862.0,861.8,848.0,857.3,8.0
35.5,851.6,864.8,870.4,862.3,9.6
36.0,878.3,869.1,850.8,866.1,14.0
36.5,876.3,888.2,881.6,882.0,6.0
37.0,877.2,900.7,892.3,890.1,11.9
37.5,911.7,901.9,913.8,909.1,6.3
38.0,881.6,876.5,874.0,877.4,3.9
38.5,862.4,930.0,893.9,895.4,33.8
39.0,864.4,898.1,898.0,886.8,19.4
39.5,915.4,906.8,895.5,905.9,10.0
40.0,861.9,909.0,862.7,877.9,27.0
40.5,924.7,901.8,924.2,916.9,13.1
41.0,859.9,904.1,956.7,906.9,48.5
41.5,884.2,913.5,932.4,910.0,24.3
42.0,916.7,913.9,897.4,909.3,10.5
42.5,908.4,878.7,919.6,902.2,21.1
43.0,897.6,939.3,918.5,918.5,20.9
43.5,859.9,965.3,942.1,922.4,55.4
44.0,949.1,936.6,952.0,945.9,8.2
44.5,909.1,931.1,964.3,934.8,27.8
45.0,977.7,918.5,992.3,962.8,39.1
45.5,917.4,962.8,1018.1,966.1,50.4
46.0,905.2,956.4,938.9,933.5,26.0
46.5,939.2,986.6,1018.9,981.6,40.1
47.0,947.1,947.9,952.5,949.2,2.9
47.5,926.4,922.1,942.6,930.4,10.8
48.0,967.0,945.9,1001.5,971.5,28.1
48.5,924.0,986.9,969.0,960.0,32.4
49.0,967.3,980.0,969.3,972.2,6.8
49.5,927.2,941.1,1011.3,959.9,45.1
50.0,938.7,972.5,1002.9,971.4,32.1
50.5,936.4,962.4,1034.5,977.8,50.8
51.0,987.0,975.4,996.1,986.2,10.3
51.5,948.4,960.9,1001.6,970.3,27.8
52.0,1030.2,1021.8,1017.1,1023.1,6.6
52.5,903.5,987.8,1014.3,968.5,57.9
53.0,1085.8,990.6,988.2,1021.5,55.7
53.5,983.8,1021.9,1071.7,1025.8,44.1
54.0,980.3,1060.6,1079.6,1040.1,52.7
54.5,1033.1,1035.1,1045.3,1037.9,6.5
55.0,1038.6,1064.4,1063.3,1055.4,14.6
55.5,1020.4,1019.7,1090.0,1043.4,40.4
56.0,964.0,1058.6,1030.7,1017.8,48.6
56.5,1027.6,1077.2,1058.7,1054.5,25.1
57.0,1022.5,1028.2,1061.1,1037.3,20.8
57.5,1025.9,1026.9,1131.0,1061.3,60.4
58.0,1077.6,1059.4,1162.3,1099.8,54.9
58.5,1001.9,1085.9,1077.3,1055.0,46.2
59.0,1115.2,1090.2,1095.0,1100.2,13.2
59.5,1043.6,1093.4,1106.4,1081.1,33.1
60.0,1078.7,1103.7,1173.1,1118.5,48.9
60.5,1009.2,1126.9,1154.0,1096.7,77.0
61.0,1146.6,1131.4,1119.7,1132.5,13.5
61.5,1006.7,1150.6,1126.6,1094.6,77.1
62.0,1109.3,1117.3,1104.9,1110.5,6.3
62.5,1128.1,1119.7,1137.7,1128.5,9.0
63.0,1082.7,1094.0,1147.3,1108.0,34.5
63.5,1139.2,1149.8,1218.1,1169.0,42.9
64.0,1146.3,1118.9,1232.6,1166.0,59.4
64.5,1166.1,1192.5,1209.8,1189.5,22.0
65.0,1112.7,1186.4,1222.9,1174.0,56.1
65.5,1204.7,1215.9,1304.2,1241.6,54.5
66.0,1228.0,1175.1,1299.0,1234.0,62.1
66.5,1128.6,1185.1,1167.5,1160.4,28.9
67.0,1184.8,1166.4,1271.4,1207.5,56.1
67.5,1149.1,1192.9,1235.5,1192.5,43.2
68.0,1174.2,1110.6,1264.2,1183.0,77.2
68.5,1182.8,1225.9,1263.7,1224.1,40.5
69.0,1141.1,1245.2,1263.1,1216.5,65.9
69.5,1114.0,1270.7,1253.2,1212.6,85.9
70.0,1220.1,1224.5,1389.6,1278.1,96.6
70.5,1181.3,1180.3,1281.3,1214.3,58.1
71.0,1185.4,1317.9,1346.3,1283.2,85.9
71.5,1192.7,1170.8,1360.3,1241.3,103.7
72.0,1313.3,1157.0,1291.6,1253.9,84.7
72.5,1282.4,1152.7,1285.9,1240.3,75.9
73.0,1269.5,1183.3,1409.8,1287.5,114.3
73.5,1263.5,1250.6,1301.9,1272.0,26.7
74.0,1249.7,1265.0,1387.2,1300.6,75.4
74.5,1220.9,1325.5,1394.2,1313.5,87.2
75.0,1239.8,1237.2,1393.1,1290.0,89.3
75.5,1234.6,1306.9,1420.7,1320.7,93.8
76.0,1256.5,1220.4,1416.8,1297.9,104.5
76.5,1172.7,1399.3,1347.9,1306.6,118.8
77.0,1329.6,1316.5,1415.7,1353.9,53.9
77.5,1275.6,1268.8,1579.0,1374.4,177.2
78.0,1337.3,1407.1,1328.4,1357.6,43.1
78.5,1315.8,1339.5,1536.4,1397.2,121.1
79.0,1199.0,1209.9,1397.4,1268.8,111.5
79.5,1297.4,1344.8,1376.2,1339.4,39.7
80.0,1296.0,1442.1,1467.0,1401.7,92.4
80.5,1361.1,1269.3,1391.6,1340.7,63.6
81.0,1306.4,1330.5,1421.3,1352.7,60.6
81.5,1268.8,1435.5,1414.0,1372.7,90.7
82.0,1439.8,1296.1,1481.7,1405.9,97.3
82.5,1298.0,1328.0,1583.2,1403.1,156.7
83.0,1308.6,1304.8,1427.3,1346.9,69.6
83.5,1382.3,1433.7,1479.8,1431.9,48.8
84.0,1446.0,1323.5,1425.6,1398.4,65.6
84.5,1433.5,1344.5,1479.6,1419.2,68.7
85.0,1516.8,1344.3,1436.4,1432.5,86.3
85.5,1355.2,1224.9,1412.7,1331.0,96.2
86.0,1513.1,1335.9,1480.1,1443.0,94.2
86.5,1380.1,1379.7,1473.4,1411.1,54.0
87.0,1352.8,1402.4,1501.0,1418.7,75.4
87.5,1339.8,1344.2,1524.2,1402.7,105.3
88.0,1363.3,1281.7,1489.5,1378.1,104.7
88.5,1564.6,1325.5,1410.1,1433.4,121.2
89.0,1416.4,1358.5,1380.9,1385.3,29.2
89.5,1449.1,1342.3,1421.7,1404.4,55.5
90.0,1405.4,1405.4,1525.0,1445.3,69.0
90.5,1423.6,1425.1,1562.9,1470.5,80.0
91.0,1374.0,1308.1,1422.0,1368.0,57.2
91.5,1446.4,1478.2,1447.3,1457.3,18.1
92.0,1357.3,1302.5,1481.0,1380.3,91.4
92.5,1327.9,1403.6,1506.7,1412.7,89.7
93.0,1428.9,1391.2,1549.6,1456.6,82.8
93.5,1410.9,1379.0,1395.6,1395.2,15.9
94.0,1476.7,1315.9,1411.1,1401.2,80.9
94.5,1426.5,1471.1,1458.9,1452.2,23.0
95.0,1411.0,1450.5,1376.9,1412.8,36.8
95.5,1542.0,1388.1,1337.3,1422.5,106.6
96.0,1440.2,1280.5,1408.3,1376.4,84.5
96.5,1390.0,1460.3,1363.5,1404.6,50.1
97.0,1476.6,1354.6,1341.1,1390.7,74.6
97.5,1402.9,1281.9,1353.7,1346.2,60.8
98.0,1535.7,1283.0,1335.5,1384.8,133.3
98.5,1388.7,1306.1,1359.1,1351.3,41.9
99.0,1442.0,1276.3,1361.3,1359.9,82.8
99.5,1409.1,1314.0,1297.3,1340.1,60.3
100.0,1441.7,1322.8,1238.4,1334.3,102.1
100.5,1389.7,1368.0,1277.3,1345.0,59.6
101.0,1397.5,1253.4,1280.7,1310.5,76.5
101.5,1396.4,1271.7,1247.8,1305.3,79.8
102.0,1355.4,1245.7,1228.2,1276.4,69.0
102.5,1345.1,1287.4,1238.9,1290.5,53.2
103.0,1340.3,1227.8,1170.3,1246.1,86.5
103.5,1336.5,1191.2,1177.9,1235.2,88.0
104.0,1301.3,1224.3,1124.8,1216.8,88.5
104.5,1287.0,1157.3,1090.6,1178.3,99.9
105.0,1329.9,1148.2,1013.6,1163.9,158.8
105.5,1221.2,1099.4,1002.7,1107.8,109.5
106.0,1254.3,1159.9,970.5,1128.2,144.6
106.5,1201.5,1167.2,902.8,1090.5,163.5
107.0,1284.7,1090.0,868.8,1081.2,208.1
107.5,1211.8,1059.1,833.9,1034.9,190.1
108.0,1214.8,1037.6,799.5,1017.3,208.4
108.5,1164.2,1012.8,742.0,973.0,213.9
109.0,1130.4,977.5,720.8,942.9,207.0
109.5,1050.9,934.5,668.7,884.7,195.9
110.0,1036.9,934.1,629.9,867.0,211.6
110.5,1000.9,911.2,580.6,830.9,221.3
111.0,960.7,866.7,550.7,792.7,214.8
111.5,893.5,862.9,522.0,759.5,206.2
112.0,870.1,793.5,490.2,717.9,200.9
112.5,836.3,778.6,456.0,690.3,204.9
113.0,812.6,746.9,427.8,662.4,205.8
113.5,777.2,715.8,398.6,630.5,203.2
114.0,723.0,672.7,369.0,588.2,191.5
114.5,686.2,646.4,342.4,558.3,188.0
115.0,641.6,596.9,322.4,520.3,172.8
115.5,592.6,550.7,288.9,477.4,164.6

File: ABS_HRRPUA_75.csv
Time after Ignition,ABS_R1,ABS_R2,ABS_R3,Mean,Std. Dev.
0.0,33.8,47.4,28.7,36.7,9.7
0.5,59.7,69.3,41.6,56.9,14.1
1.0,82.9,93.8,71.6,82.8,11.1
1.5,117.7,112.9,96.2,109.0,11.3
2.0,144.3,128.3,122.5,131.7,11.3
2.5,169.9,155.8,158.3,161.3,7.5
3.0,206.2,186.6,179.9,190.9,13.7
3.5,231.9,199.4,210.7,214.0,16.5
4.0,274.2,230.6,235.4,246.7,23.9
4.5,292.6,261.5,273.5,275.9,15.7
5.0,339.8,285.0,317.0,313.9,27.6
5.5,371.8,316.6,342.8,343.7,27.6
6.0,393.2,330.5,386.7,370.1,34.5
6.5,422.7,382.6,409.8,405.0,20.4
7.0,463.8,398.8,455.1,439.3,35.3
7.5,509.3,458.8,486.9,485.0,25.3
8.0,521.6,503.6,522.7,516.0,10.7
8.5,567.1,523.1,563.9,551.4,24.5
9.0,607.3,584.1,574.3,588.6,16.9
9.5,619.5,604.3,611.0,611.6,7.6
10.0,635.7,609.2,634.0,626.3,14.8
10.5,638.8,676.3,626.7,647.3,25.9
11.0,672.8,687.4,644.7,668.3,21.7
11.5,680.8,702.9,669.1,684.3,17.1
12.0,732.4,743.4,693.0,722.9,26.5
12.5,756.5,746.6,687.3,730.1,37.4
13.0,742.6,764.8,744.6,750.7,12.2
13.5,777.3,809.3,773.2,786.6,19.8
14.0,789.8,794.8,778.3,787.6,8.5
14.5,820.0,811.3,797.4,809.6,11.4
15.0,799.7,823.8,826.5,816.7,14.7
15.5,832.7,895.3,812.1,846.7,43.3
16.0,858.9,888.5,893.3,880.2,18.6
16.5,859.8,877.4,895.6,877.6,17.9
17.0,885.0,905.2,882.1,890.8,12.6
17.5,928.6,876.2,874.0,892.9,30.9
18.0,958.3,953.0,904.2,938.5,29.8
18.5,905.9,958.3,877.0,913.7,41.2
19.0,947.5,934.2,965.4,949.0,15.7
19.5,958.7,948.2,915.9,940.9,22.3
20.0,964.8,986.8,899.7,950.4,45.3
20.5,1036.3,962.3,936.8,978.5,51.7
21.0,1018.0,987.8,980.8,995.6,19.8
21.5,1020.4,998.6,1002.4,1007.1,11.7
22.0,968.1,1004.5,1017.0,996.6,25.4
22.5,1079.8,1069.7,1007.3,1052.3,39.3
23.0,1043.7,1060.4,952.3,1018.8,58.2
23.5,1009.7,1051.4,964.7,1008.6,43.4
24.0,1041.4,1014.8,983.0,1013.0,29.2
24.5,1032.4,1031.2,989.9,1017.8,24.2
25.0,1061.6,1074.9,1020.7,1052.4,28.2
25.5,1026.1,985.9,1051.9,1021.3,33.2
26.0,1002.1,988.4,1019.9,1003.5,15.8
26.5,1041.7,1025.7,1049.2,1038.9,12.0
27.0,1101.0,1018.0,1057.2,1058.7,41.6
27.5,1075.3,1042.5,1061.2,1059.7,16.5
28.0,1114.3,1021.4,1058.4,1064.7,46.7
28.5,1107.9,1123.9,1024.4,1085.4,53.4
29.0,1054.8,1063.4,1059.4,1059.2,4.3
29.5,1056.8,1090.7,1054.4,1067.3,20.3
30.0,1066.8,1108.6,1076.5,1084.0,21.9
30.5,1136.2,1111.0,1085.4,1110.9,25.4
31.0,1165.0,1124.6,1042.9,1110.9,62.2
31.5,1138.0,1095.8,1093.1,1109.0,25.2
32.0,1074.8,1078.1,1143.3,1098.8,38.6
32.5,1106.3,1139.4,1118.7,1121.5,16.7
33.0,1040.5,1100.7,1094.3,1078.5,33.1
33.5,1132.4,1106.1,1133.0,1123.8,15.4
34.0,1090.1,1119.9,1173.5,1127.8,42.2
34.5,1110.5,1164.1,1198.5,1157.7,44.3
35.0,1073.3,1173.2,1213.4,1153.3,72.1
35.5,1069.7,1161.1,1171.5,1134.1,56.0
36.0,1164.6,1099.9,1176.8,1147.1,41.3
36.5,1153.7,1238.6,1272.2,1221.5,61.1
37.0,1168.0,1195.7,1233.5,1199.0,32.9
37.5,1205.9,1150.5,1266.9,1207.8,58.2
38.0,1169.0,1342.0,1261.8,1257.6,86.6
38.5,1194.2,1118.7,1231.3,1181.4,57.4
39.0,1249.1,1138.0,1260.7,1215.9,67.8
39.5,1235.1,1197.9,1249.7,1227.6,26.7
40.0,1280.1,1198.9,1282.6,1253.9,47.7
40.5,1204.9,1163.5,1268.5,1212.3,52.9
41.0,1225.3,1287.2,1327.6,1280.0,51.5
41.5,1248.0,1256.1,1242.9,1249.0,6.7
42.0,1254.5,1351.6,1271.0,1292.4,51.9
42.5,1219.5,1304.2,1324.8,1282.9,55.8
43.0,1170.8,1280.4,1402.4,1284.5,115.8
43.5,1342.2,1285.9,1334.9,1321.0,30.6
44.0,1315.4,1312.3,1327.5,1318.4,8.0
44.5,1157.4,1262.3,1452.1,1290.6,149.4
45.0,1316.0,1400.4,1450.0,1388.8,67.7
45.5,1352.1,1365.9,1331.6,1349.8,17.2
46.0,1263.6,1442.8,1272.3,1326.2,101.1
46.5,1353.6,1324.2,1352.7,1343.5,16.7
47.0,1298.9,1395.2,1320.3,1338.1,50.5
47.5,1391.7,1441.8,1703.0,1512.1,167.2
48.0,1302.8,1452.1,1424.8,1393.2,79.5
48.5,1360.1,1425.3,1446.7,1410.7,45.1
49.0,1430.8,1288.1,1474.0,1397.6,97.3
49.5,1516.4,1520.6,1496.6,1511.2,12.8
50.0,1430.7,1414.9,1447.7,1431.1,16.4
50.5,1471.2,1468.0,1424.2,1454.5,26.3
51.0,1453.8,1498.0,1491.9,1481.3,23.9
51.5,1431.3,1441.0,1364.3,1412.2,41.7
52.0,1612.5,1490.4,1571.3,1558.0,62.1
52.5,1568.5,1525.8,1564.4,1552.9,23.6
53.0,1530.2,1686.8,1454.8,1557.2,118.3
53.5,1436.8,1511.2,1454.8,1467.6,38.8
54.0,1493.1,1770.4,1566.7,1610.1,143.6
54.5,1521.0,1541.1,1864.7,1642.3,192.9
55.0,1615.4,1603.5,1472.1,1563.6,79.5
55.5,1531.5,1744.5,1792.5,1689.5,138.9
56.0,1669.9,1735.7,1476.8,1627.5,134.6
56.5,1735.7,1412.9,1664.1,1604.2,169.5
57.0,1622.2,1506.6,1803.8,1644.2,149.8
57.5,1486.1,1705.7,1666.4,1619.4,117.1
58.0,1864.7,1718.8,1553.9,1712.5,155.5
58.5,1676.4,1747.7,1722.6,1715.6,36.2
59.0,1697.2,1717.4,1877.9,1764.2,99.0
59.5,1691.9,1725.0,1581.3,1666.1,75.2
60.0,1512.9,1503.8,1688.7,1568.5,104.2
60.5,1666.1,1784.7,1633.5,1694.7,79.5
61.0,1715.1,1629.3,1656.4,1666.9,43.9
61.5,1588.6,1697.0,2094.8,1793.5,266.5
62.0,1593.9,1647.0,2022.0,1754.3,233.4
62.5,1708.2,1728.2,1702.6,1713.0,13.5
63.0,1839.4,1884.2,1577.0,1766.8,166.0
63.5,1540.8,1740.4,1563.2,1614.8,109.4
64.0,1833.9,1927.9,2090.1,1950.6,129.6
64.5,1662.9,1619.2,1641.4,1641.2,21.8
65.0,1823.0,1833.5,2160.3,1938.9,191.8
65.5,1826.4,1700.4,1931.1,1819.3,115.5
66.0,1898.3,1840.2,2105.5,1948.0,139.5
66.5,2056.1,1796.3,1891.8,1914.7,131.4
67.0,1682.2,1744.1,2239.5,1888.6,305.5
67.5,2039.7,1852.9,1844.6,1912.4,110.3
68.0,1942.3,1612.0,2170.4,1908.2,280.8
68.5,1977.2,1722.1,1760.5,1820.0,137.5
69.0,2122.6,1775.4,1861.5,1919.8,180.8
69.5,1852.2,1785.7,2189.7,1942.5,216.6
70.0,1668.8,1665.7,1793.5,1709.3,72.9
70.5,1832.1,1673.3,2350.7,1952.0,354.3
71.0,1933.2,1929.1,2223.5,2028.6,168.8
71.5,2044.4,1758.4,1878.0,1893.6,143.6
72.0,1667.7,1911.3,2355.3,1978.1,348.6
72.5,1735.6,1926.8,2076.9,1913.1,171.1
73.0,1801.2,2015.9,1829.2,1882.1,116.7
73.5,1660.1,1785.9,1829.5,1758.5,88.0
74.0,1908.5,1825.5,2101.3,1945.1,141.5
74.5,1947.5,1971.2,1986.6,1968.4,19.7
75.0,1783.2,1821.0,1993.6,1865.9,112.2
75.5,1853.4,1833.1,2012.1,1899.5,98.0
76.0,1913.2,1938.9,1878.2,1910.1,30.4
76.5,1735.0,1819.6,2141.8,1898.8,214.6
77.0,1963.0,1738.7,1863.7,1855.1,112.4
77.5,2047.2,1700.2,1809.1,1852.2,177.4
78.0,1669.7,1677.2,1741.6,1696.2,39.5
78.5,1808.9,1696.9,1737.2,1747.7,56.7
79.0,1635.4,1608.5,1696.6,1646.8,45.1
79.5,1844.6,1641.7,1730.2,1738.8,101.7
80.0,1742.7,1444.6,1576.8,1588.1,149.3
80.5,1676.8,1532.6,1537.4,1582.3,81.9
81.0,1583.6,1410.8,1509.5,1501.3,86.7
81.5,1624.5,1450.5,1455.0,1510.0,99.2
82.0,1524.2,1389.7,1380.4,1431.4,80.5
82.5,1533.4,1261.8,1356.3,1383.8,137.9
83.0,1416.0,1156.9,1311.2,1294.7,130.3
83.5,1365.4,1207.9,1221.4,1264.9,87.3
84.0,1301.9,1056.2,1129.8,1162.7,126.1
84.5,1213.0,1012.7,1027.8,1084.5,111.5
85.0,1125.0,987.7,956.1,1022.9,89.8
85.5,1025.7,908.8,867.6,934.0,82.0
86.0,948.6,840.4,782.5,857.2,84.3
86.5,860.2,788.5,713.0,787.2,73.6
87.0,795.3,730.3,,762.8,46.0
87.5,729.7,660.8,,695.2,48.7
88.0,649.4,603.4,,626.4,32.5
88.5,579.1,552.1,,565.6,19.1
88.75,553.5,512.1,,532.8,29.3