Folder: fsri_materials_database/01_Data/ABS/Cone (part 2)

File: ABS_Cone_HF25Scan_220217_R3.csv
Names,Time,Stack TC,Smoke TC,Exh Press,Smoke Comp,Smoke Meas,CO Meter,CO2 Meter,O2 Meter,Sample Mass,Ext Coeff,Start Test,Flame Verif
Chan Gain,,500,500,1,1,1,1,1,1,1,1,1.0,1.0
Offset,,0,0,0.140898,0,0,0,0,0,0,0,0.0,0.0
Gain,,1,1,25.011,12.9668,12.6588,1,1,1,1.00088,1.01977,1.0,1.0
Units,sec,C,C,Pa,%,%,%,%,%,g,/m,,
Baseline,,24.8273,23.9501,156.402,96.0764,99.5525,-0.00462198,0.0379709,21.0452,-871.198,-0.317924,,
17,4,22.8512,21.5386,157.254,97.4471,101.142,-0.00454424,0.0411275,21.0402,33.4994,-0.332875,0.0,0.0
34,8.25,22.2987,21.852,153.89,97.4709,101.128,-0.00469266,0.0417854,21.0391,33.4394,-0.329501,0.0,0.0
51,12.5,22.3697,21.5353,159.418,97.4911,100.819,-0.00482239,0.040825,21.0412,33.4294,-0.300235,0.0,0.0
68,16.75,22.4252,22.4116,158.997,97.5049,101.248,-0.00448789,0.0394509,21.0431,33.4193,-0.33693,0.0,0.0
85,21,22.3388,21.8558,159.472,97.5013,101.061,-0.00437601,0.0384848,21.0434,33.4193,-0.320722,0.0,0.0
102,25.25,22.6164,22.188,157.13,97.5144,101.251,-0.00449678,0.0379405,21.0434,33.4294,-0.336332,0.0,0.0
119,29.5,22.6547,21.9795,159.505,97.4895,101.243,-0.00447399,0.0377187,21.0442,33.4193,-0.337936,0.0,0.0
136,33.75,22.1289,22.0077,158.583,97.4641,101.103,-0.0046073,0.0378436,21.0455,33.4093,-0.32793,0.0,0.0
153,38,22.3642,21.8357,155.214,97.4598,101.112,-0.00478662,0.0377244,21.0469,33.3893,-0.329116,0.0,0.0
170,42.25,22.3649,21.6593,157.182,97.4325,101.011,-0.00490958,0.037688,21.0464,33.3893,-0.322698,0.0,0.0
187,46.5,22.0187,21.846,156.052,97.4004,100.697,-0.00471088,0.0374686,21.0459,33.3793,-0.297783,0.0,0.0
204,50.75,22.4945,21.7587,162.619,97.3712,100.57,-0.00438899,0.0374721,21.0475,33.3893,-0.289141,0.0,0.0
221,55,22.3185,22.1898,153.475,97.3553,100.116,-0.00449683,0.0373035,21.0466,33.3793,-0.250164,0.0,0.0
238,59.25,22.2659,22.3476,157.587,97.3241,100.205,-0.00484566,0.0370921,21.0459,33.3693,-0.260973,0.0,0.0
255,63.5,22.021,21.8726,156.883,97.2932,100.158,-0.00472138,0.0369805,21.0466,33.3493,-0.259601,0.0,0.0
272,67.75,22.2289,22.5044,150.305,97.2623,99.7911,-0.00478035,0.0368264,21.0478,33.3593,-0.229602,0.0,0.0
289,72,22.2362,21.8864,158.18,97.2362,99.7076,-0.00476755,0.0369964,21.0464,33.3393,-0.224521,0.0,0.0
306,76.25,21.8986,22.3983,161.43,97.199,99.5137,-0.00445023,0.037156,21.0459,33.3193,-0.210528,0.0,0.0
323,80.5,21.9345,22.5461,159.836,97.1856,99.5381,-0.0045821,0.0370087,21.0477,33.2992,-0.213954,0.0,0.0
340,84.75,22.0721,22.3824,156.776,97.1737,99.331,-0.00466704,0.0369336,21.048,33.2992,-0.196418,0.0,0.0
357,89,21.6938,22.036,151.531,97.1579,99.358,-0.00445014,0.036869,21.0475,33.2792,-0.200311,0.0,0.0
374,93.25,22.4422,22.4679,157.522,97.2651,98.8388,-0.00432174,0.0370964,21.0456,33.2492,-0.143575,0.0,0.0
391,97.5,21.9739,22.1087,156.49,97.3581,99.003,-0.00429227,0.0373182,21.045,33.2492,-0.149874,0.0,0.0
408,101.75,22.3321,22.6454,157.487,97.4151,98.9327,-0.00430143,0.0374423,21.0445,33.2292,-0.138285,0.0,0.0
425,106,22.1432,22.5625,152.97,97.4784,98.0708,-0.00409711,0.0381647,21.0412,33.1992,-0.054201,0.0,0.0
442,110.25,22.4096,22.962,149.636,97.5148,77.3638,-0.000928251,0.0611967,20.9368,32.989,2.07071,0.0,1.0
459,114.5,26.1916,28.2855,129.075,97.5892,54.8547,0.00885624,0.25597,20.4531,32.5786,5.15322,0.0,1.0
476,118.75,32.0218,37.6398,121.082,97.6244,50.2965,0.0186559,0.517395,19.9991,31.9681,5.93247,0.0,0.0
493,123,39.0907,46.8773,122.637,97.6735,49.1194,0.0234715,0.693573,19.7922,31.3375,6.1488,0.0,0.0
510,127.25,45.191,54.6193,119.131,97.7198,47.9674,0.0265512,0.802572,19.6748,30.6369,6.36534,0.0,0.0
527,131.5,50.676,62.4556,116.196,97.7673,46.0656,0.0288933,0.867875,19.5965,29.9663,6.73157,0.0,0.0
544,135.75,55.5845,68.5895,114.107,97.7926,49.3157,0.0298816,0.910481,19.5637,29.2657,6.12404,0.0,0.0
561,140,60.0981,74.6469,115.283,97.8286,50.1586,0.0297341,0.932112,19.5529,28.5651,5.97572,0.0,0.0
578,144.25,63.5837,80.1314,113.348,97.8377,46.4454,0.0296309,0.942991,19.551,27.9546,6.66458,0.0,0.0
595,148.5,68.4231,83.9304,108.178,97.8547,47.8183,0.0302323,0.954922,19.5432,27.2339,6.40553,0.0,0.0
612,152.75,70.4099,88.5882,115.086,97.869,47.663,0.0314199,0.973133,19.5031,26.5233,6.43593,0.0,0.0
629,157,74.1889,92.8709,119.466,97.8745,47.0217,0.0324277,1.00347,19.4622,25.8027,6.55761,0.0,0.0
646,161.25,77.5445,96.188,119.097,97.8848,43.8501,0.0338608,1.02223,19.4297,25.072,7.18324,0.0,0.0
663,165.5,80.3824,100.259,110.803,97.8773,41.5067,0.0356377,1.05483,19.3715,24.3614,7.67385,0.0,0.0
680,169.75,83.5752,103.869,108.415,97.8769,41.3657,0.0371429,1.08774,19.328,23.5106,7.70425,0.0,0.0
697,174,86.8702,106.949,113.927,97.8638,43.0519,0.038629,1.10774,19.2995,22.76,7.34564,0.0,0.0
714,178.25,89.0544,110.943,114.821,97.861,39.4059,0.0395631,1.12919,19.2612,21.9693,8.13698,0.0,0.0
731,182.5,91.933,114.494,111.573,97.846,41.1068,0.0419568,1.17183,19.1766,21.1386,7.75758,0.0,0.0
748,186.75,94.6956,118.157,111.245,97.8029,40.6421,0.0436025,1.21196,19.1144,20.2578,7.85534,0.0,0.0
765,191,97.9003,121.454,106.195,97.7744,39.4132,0.0452364,1.26283,19.0356,19.367,8.12739,0.0,0.0
782,195.25,101.01,125.824,104.859,97.7071,39.2486,0.0487154,1.31636,18.9391,18.4862,8.15866,0.0,0.0
799,199.5,103.896,129.966,110.003,97.6054,35.6783,0.0519432,1.37003,18.8618,17.5554,9.0025,0.0,0.0
816,203.75,107.555,133.48,103.144,97.4756,35.3438,0.0553895,1.4229,18.7584,16.4745,9.07487,0.0,0.0
833,208,110.88,137.842,101.038,97.3142,34.9064,0.0581132,1.48239,18.6657,15.5937,9.17141,0.0,0.0
850,212.25,113.86,142.139,101.896,97.2259,33.7108,0.0603591,1.53309,18.5965,14.5528,9.47507,0.0,0.0
867,216.5,117.253,146.443,104.954,97.2857,33.3442,0.0625472,1.57669,18.5388,13.5019,9.57839,0.0,0.0
884,220.75,119.91,150.279,99.9303,97.3597,30.4283,0.0635106,1.61442,18.4912,12.4209,10.4038,0.0,0.0
901,225,122.849,153.593,108.548,97.4329,33.4214,0.0634691,1.62721,18.4764,11.4,9.57121,0.0,0.0
918,229.25,125.082,156.799,103.199,97.5081,36.0306,0.0626523,1.64775,18.4571,10.3491,8.90567,0.0,0.0
935,233.5,127.235,158.703,104.347,97.6062,33.3867,0.0630029,1.65457,18.4424,9.35822,9.59642,0.0,0.0
952,237.75,129.569,161.003,98.9487,97.6972,31.9291,0.0622779,1.65798,18.4543,8.31731,10.0041,0.0,0.0
969,242,131.085,162.472,105.4,97.7736,33.9449,0.0606511,1.62782,18.5359,7.25637,9.46341,0.0,0.0
986,246.25,131.238,162.79,102.472,97.8444,36.4173,0.0579109,1.57096,18.6351,6.34557,8.84098,0.0,0.0
1003,250.5,131.544,161.893,105.256,97.8848,35.8309,0.052964,1.49228,18.7858,5.44478,8.98989,0.0,0.0
1020,254.75,130.004,159.434,114.365,97.9188,39.635,0.0477102,1.3927,18.9627,4.63407,8.0904,0.0,0.0
1037,259,128.597,156.168,112.929,97.9331,41.9981,0.0409571,1.26124,19.1995,3.95347,7.57367,0.0,0.0
1054,263.25,125.95,152.175,115.976,97.9358,47.9029,0.0341689,1.12857,19.4233,3.33293,6.39713,0.0,0.0
1071,267.5,122.727,147.144,115.107,97.8935,48.1154,0.029458,0.995871,19.637,2.78244,6.35367,0.0,0.0
1088,271.75,119.552,141.318,125.602,97.8278,51.2871,0.0255385,0.876108,19.8243,2.23196,5.77663,0.0,0.0
1105,276,114.507,133.527,133.618,97.7491,60.476,0.018978,0.731872,20.0785,1.94171,4.29517,0.0,0.0
1122,280.25,108.188,124.562,143.013,97.6161,89.0113,0.0103178,0.52927,20.4838,1.80158,0.825467,0.0,0.0
1139,284.5,100.779,113.727,148.81,97.4645,96.3846,0.00319787,0.344689,20.7676,1.81159,0.0996747,0.0,0.0
1156,288.75,93.9473,104.588,150.803,97.3245,97.5972,-0.000612413,0.214036,20.9345,1.81159,-0.0250344,0.0,0.0
1173,293,87.8175,96.6088,148.191,97.1424,97.3106,-0.00249375,0.147808,20.9967,1.8216,-0.0154688,0.0,0.0
1190,297.25,82.4928,89.5802,150.557,96.9553,97.6563,-0.00347715,0.113453,21.0174,1.81159,-0.0644488,0.0,0.0
1207,301.5,78.3085,83.3476,144.427,96.7629,96.8354,-0.0037965,0.0928614,21.0277,1.81159,-0.00669503,0.0,0.0
1224,305.75,74.2387,77.5808,154.465,96.5603,97.8529,-0.00404324,0.0790225,21.0327,1.8216,-0.118953,0.0,0.0
1241,310,70.4426,72.8358,144.907,96.3633,95.8905,-0.00411348,0.0696646,21.0339,1.83161,0.0439987,0.0,0.0
1258,314.25,67.3522,68.2441,153.446,96.201,96.6608,-0.00415232,0.0627786,21.0346,1.83161,-0.0426474,0.0,0.0
1275,318.5,64.4568,64.5449,146.627,96.0653,96.2296,-0.00409771,0.0577606,21.0357,1.8216,-0.0152904,0.0,0.0
1292,322.75,61.5223,61.6266,149.956,95.947,96.5955,-0.00457497,0.054044,21.0369,1.8216,-0.0602582,0.0,0.0
1309,327,59.3151,57.871,153.34,95.8655,96.4734,-0.0045452,0.0513152,21.037,1.8216,-0.0565492,0.0,0.0
1326,331.25,57.2909,55.9824,150.207,95.8152,95.8538,-0.00435972,0.0493126,21.0377,1.8216,-0.00359865,0.0,0.0
1343,335.5,55.0299,53.3558,153.921,95.82,96.6198,-0.0044897,0.0477776,21.0394,1.8216,-0.0743621,0.0,0.0
1360,339.75,53.2047,50.878,151.028,95.818,96.6739,-0.0045377,0.0461293,21.0401,1.81159,-0.0795534,0.0,0.0
1377,344,51.4489,49.5217,149.456,95.8726,96.7353,-0.00463569,0.0449019,21.0403,1.81159,-0.0801382,0.0,0.0
1394,348.25,50.3192,47.324,151.791,95.9418,96.8439,-0.00464582,0.044093,21.0403,1.83161,-0.0837122,0.0,0.0
1411,352.5,48.8532,46.3246,153.253,96.0249,95.9693,-0.00470483,0.0434466,21.0402,1.83161,0.00518744,0.0,0.0
1428,356.75,47.4428,44.4505,152.372,96.1496,96.9212,-0.00467432,0.0427958,21.0395,1.81159,-0.071497,0.0,0.0
1445,361,46.7242,42.9793,153.518,96.2766,97.3322,-0.00467587,0.0420393,21.04,1.81159,-0.0975437,0.0,0.0
1462,365.25,44.5492,41.3128,154.988,96.4159,97.3021,-0.00482417,0.0411538,21.0394,1.8216,-0.0818416,0.0,0.0
1479,369.5,44.2578,41.3475,152.121,96.5702,98.1674,-0.00456504,0.0407712,21.0393,1.81159,-0.146737,0.0,0.0
1496,373.75,43.231,40.5266,151.959,96.7265,97.4357,-0.0046047,0.0405011,21.0393,1.81159,-0.0653473,0.0,0.0
1513,378,42.762,39.3703,153.021,96.8484,98.3192,-0.00451037,0.0400827,21.0393,1.8216,-0.13483,0.0,0.0
1530,382.25,41.6939,38.5004,155.003,96.9774,97.4608,-0.004116,0.0397139,21.0393,1.81159,-0.0444798,0.0,0.0
1547,386.5,41.1005,37.7264,148.669,97.0938,98.2049,-0.00423986,0.0395504,21.0393,1.8216,-0.101787,0.0,0.0
1564,390.75,40.4479,36.9705,152.671,97.1903,98.6766,-0.00431819,0.0392097,21.0393,1.8216,-0.13576,0.0,0.0
1581,395,39.9241,36.2257,151.113,97.2505,98.5016,,,,1.81159,-0.114347,0.0,0.0
1598,399.25,39.3822,35.9836,153.471,97.3165,98.4823,,,,1.84162,-0.106516,0.0,0.0
1610,402.25,38.3682,35.1703,148.532,97.3387,97.9422,,,,1.83161,-0.0552878,0.0,0.0

File: ABS_Cone_HF50Scalar_220217_R1.csv
LABORATORY,FSRI
TEST IDENT,PlasticA_HF50_1
OPERATOR,Dow
MATERIAL,Plastic A
ORIENTATION,Horizontal
HEAT FLUX,50
SURF AREA,0.01
C FACTOR,0.0393671
SPEC HOLDER DIFF,305.35
SPECIMEN MASS,32.6
SCAN TIME,0.25
O2 DELAY TIME,11
CO DELAY TIME,11
CO2 DELAY TIME,8
FLOW FACTOR,1
SCAN COUNT,1043
TIME TO IGN,25.25
END OF TEST SCAN,563
END OF TEST TIME,140.75
TEST STATUS,1
PRE TEST CMT,Dimensions: 100.09 x 100.16 x 3.09 mm

File: ABS_Cone_HF50Scalar_220217_R2.csv
LABORATORY,FSRI
TEST IDENT,PlasticA_HF50_2
OPERATOR,Dow
MATERIAL,Plastic A
ORIENTATION,Horizontal
HEAT FLUX,50
SURF AREA,0.01
C FACTOR,0.0393671
SPEC HOLDER DIFF,304.92
SPECIMEN MASS,32.5
SCAN TIME,0.25
O2 DELAY TIME,11
CO DELAY TIME,11
CO2 DELAY TIME,8
FLOW FACTOR,1
SCAN COUNT,1053
TIME TO IGN,25
END OF TEST SCAN,573
END OF TEST TIME,143.25
TEST STATUS,1
PRE TEST CMT,Dimensions: 100.08 x 99.81 x 3.07 mm

File: ABS_Cone_HF50Scalar_220217_R3.csv
LABORATORY,FSRI
TEST IDENT,PlasticA_HF50_3
OPERATOR,Dow
MATERIAL,Plastic A
ORIENTATION,Horizontal
HEAT FLUX,50
SURF AREA,0.01
C FACTOR,0.0393671
SPEC HOLDER DIFF,298.8
SPECIMEN MASS,32.3
SCAN TIME,0.25
O2 DELAY TIME,11
CO DELAY TIME,11
CO2 DELAY TIME,8
FLOW FACTOR,1
SCAN COUNT,1047
TIME TO IGN,25.75
END OF TEST SCAN,567
END OF TEST TIME,141.75
TEST STATUS,1
PRE TEST CMT,Dimensions: 99.96 x 100.24 x 3.03 mm

File: ABS_Cone_HF50Scan_220217_R1.csv
Names,Time,Stack TC,Smoke TC,Exh Press,Smoke Comp,Smoke Meas,CO Meter,CO2 Meter,O2 Meter,Sample Mass,Ext Coeff,Start Test,Flame Verif
Chan Gain,,500,500,1,1,1,1,1,1,1,1,1.0,1.0
Offset,,0,0,0.140898,0,0,0,0,0,0,0,0.0,0.0
Gain,,1,1,25.011,12.9668,12.6588,1,1,1,1.00088,1.01977,1.0,1.0
Units,sec,C,C,Pa,%,%,%,%,%,g,/m,,
Baseline,,30.7959,32.5488,151.2,97.6636,99.7548,-0.00431944,0.0370403,21.0403,-871.991,-0.189495,,
11,2.5,28.7605,29.9533,151.035,97.7855,99.9781,-0.00430057,0.0408621,21.0364,32.6186,-0.198362,0.0,0.0
22,5.25,28.843,30.2492,150.939,97.8076,100.053,-0.00414277,0.0408123,21.0372,32.6687,-0.203039,0.0,0.0
33,8,29.4816,30.7518,154.468,97.8076,100,-0.00418395,0.0406521,21.038,32.6086,-0.19834,0.0,0.0
44,10.75,28.8627,30.8939,154.329,97.8029,99.8174,-0.00431389,0.0402859,21.0396,32.6186,-0.182379,0.0,0.0
55,13.5,29.3659,30.6963,157.005,97.8053,100.233,-0.00441847,0.0395279,21.0401,32.5986,-0.219336,0.0,0.0
66,16.25,29.5491,30.9514,152.507,97.8235,99.8718,-0.00434786,0.0389368,21.0419,32.5686,-0.185377,0.0,0.0
77,19,29.4945,30.6324,153.119,97.8262,99.4392,-0.00419925,0.0384916,21.0424,32.5786,-0.146286,0.0,0.0
88,21.75,29.2268,31.0286,151.764,97.8219,98.6619,-0.00416068,0.0381146,21.0415,32.5586,-0.0764887,0.0,0.0
99,24.5,29.3537,30.986,151.709,97.8302,97.931,-0.00397372,0.0378446,21.0433,32.5286,-0.00921122,0.0,0.0
110,27.25,30.0658,31.4014,141.14,97.8353,79.9363,-0.00195135,0.0520294,20.9903,32.3884,1.80745,0.0,1.0
121,30,31.6173,33.9016,133.359,97.8298,57.8533,0.00403452,0.135333,20.7711,32.1683,4.69915,0.0,0.0
132,32.75,34.2542,38.3879,120.052,97.8314,50.73,0.0112884,0.286757,20.43,31.7879,5.87465,0.0,0.0
143,35.5,38.205,44.2417,126.184,97.8282,50.3603,0.0181788,0.452091,20.1508,31.3675,5.93979,0.0,0.0
154,38.25,42.4445,50.7818,114.99,97.8349,43.6287,0.024538,0.602855,19.8662,30.8871,7.22395,0.0,0.0
165,41,47.5205,57.601,107.136,97.8599,38.6846,0.030752,0.746533,19.6239,30.4167,8.30212,0.0,0.0
176,43.75,52.4943,64.6402,112.671,97.8421,37.4337,0.0370491,0.885598,19.3901,29.8462,8.59452,0.0,0.0
187,46.5,58.2892,72.3424,109.791,97.8365,37.1104,0.0424038,1.01552,19.2108,29.2657,8.67162,0.0,0.0
198,49.25,62.7878,80.4677,106.47,97.8361,34.5638,0.0471923,1.12596,19.0786,28.6051,9.30751,0.0,0.0
209,52,68.4321,86.5766,105.919,97.8428,34.4548,0.0499522,1.22499,18.9439,27.9846,9.33636,0.0,0.0
220,54.75,73.1518,93.2433,107.717,97.8496,33.3222,0.0529715,1.29069,18.8678,27.3941,9.63599,0.0,0.0
231,57.5,77.0897,99.1336,102.312,97.863,32.5793,0.0557353,1.34007,18.8096,26.7935,9.83891,0.0,0.0
242,60.25,82.1414,104.991,104.57,97.8531,29.8291,0.0582765,1.38427,18.7324,26.0729,10.6269,0.0,0.0
253,63,86.0039,110.972,103.488,97.8547,30.7663,0.060722,1.43927,18.6589,25.4724,10.3503,0.0,0.0
264,65.75,89.767,116.559,107.026,97.8658,30.6508,0.063281,1.49693,18.559,24.6617,10.385,0.0,0.0
275,68.5,94.2949,122.559,92.8219,97.8872,26.5651,0.0663686,1.55767,18.4759,23.9711,11.6667,0.0,0.0
286,71.25,98.2207,128.03,94.2622,97.8911,29.6854,0.0693932,1.61102,18.4153,23.1603,10.6736,0.0,0.0
297,74,102.745,133.076,87.5576,97.8971,28.5801,0.0731426,1.66314,18.3148,22.4497,11.0135,0.0,0.0
308,76.75,106.943,138.878,92.3899,97.8911,26.3932,0.0773395,1.72621,18.22,21.6991,11.7251,0.0,0.0
319,79.5,110.683,144.088,103.076,97.9109,26.9271,0.0831791,1.79471,18.0917,20.9784,11.5478,0.0,0.0
330,82.25,114.884,150.302,91.6014,97.9101,25.8423,0.088678,1.88842,17.9391,20.0776,11.9155,0.0,0.0
341,85,118.918,156.463,94.1149,97.9054,22.7425,0.0950395,1.98248,17.785,19.1768,13.0581,0.0,0.0
352,87.75,124.773,163.116,90.8695,97.9026,22.0282,0.102568,2.11212,17.5366,18.2961,13.3433,0.0,0.0
363,90.5,128.786,169.808,86.6844,97.9129,21.1667,0.110366,2.22565,17.376,17.2852,13.7011,0.0,0.0
374,93.25,133.217,176.626,86.6524,97.9192,20.9334,0.118509,2.32713,17.2468,16.4144,13.8009,0.0,0.0
385,96,137.222,182.14,88.7186,97.9129,21.0728,0.126625,2.42961,17.0906,15.4235,13.7409,0.0,0.0
396,98.75,142.641,189.514,87.021,97.9145,17.499,0.134278,2.54765,16.8944,14.3626,15.4034,0.0,0.0
407,101.5,146.946,196.726,88.7773,97.8986,18.7356,0.142801,2.67412,16.684,13.2416,14.7912,0.0,0.0
418,104.25,152.199,204.147,66.9271,97.9176,17.7377,0.153975,2.80544,16.4688,12.1907,15.2825,0.0,0.0
429,107,157.03,211.906,73.0852,97.9176,17.3572,0.164226,2.94331,16.269,10.9897,15.4765,0.0,0.0
440,109.75,161.72,217.981,85.0342,97.9141,14.2014,0.171751,3.04733,16.1061,9.91871,17.2712,0.0,0.0
451,112.5,165.771,224.334,76.0741,97.9184,15.5126,0.177908,3.12838,16.0013,8.73767,16.4816,0.0,0.0
462,115.25,169.929,230.618,76.7557,97.9311,17.4693,0.184108,3.21084,15.8808,7.6267,15.4202,0.0,0.0
473,118,174.572,236.992,89.1887,97.9172,18.3369,0.188973,3.29513,15.7802,6.47569,14.9853,0.0,0.0
484,120.75,178.336,241.442,89.9345,97.907,18.488,0.188168,3.34188,15.7492,5.38473,14.911,0.0,0.0
495,123.5,181.153,245.176,79.9432,97.8986,18.5853,0.17999,3.30947,15.8545,4.34382,14.8632,0.0,0.0
506,126.25,182.578,245.955,83.9336,97.9073,18.5641,0.1618,3.1786,16.0821,3.22283,14.8742,0.0,0.0
517,129,182.991,244.64,86.6447,97.8591,18.6348,0.13728,2.99259,16.5201,2.43214,14.8358,0.0,0.0
528,131.75,181.625,241.406,90.2329,97.8504,26.4685,0.11247,2.70291,16.9986,1.7115,11.6959,0.0,0.0
539,134.5,178.009,234.261,118.302,97.8239,37.5357,0.0830535,2.31378,17.7705,1.30114,8.56852,0.0,0.0
550,137.25,171.719,223.131,122.96,97.7831,52.6743,0.0572232,1.81586,18.6319,1.0209,5.5338,0.0,0.0
561,140,164.763,210.055,135.216,97.7336,85.9045,0.0363724,1.33664,19.3032,0.950835,1.15403,0.0,0.0
572,142.75,156.223,196.84,138.528,97.7051,93.7391,0.0241595,0.950706,19.9796,0.940826,0.370688,0.0,0.0
583,145.5,148.302,184.473,138.245,97.6596,93.7228,0.0180632,0.668313,20.4528,0.930818,0.368069,0.0,0.0
594,148.25,141.571,173.744,137.453,97.5963,93.4972,0.0152001,0.474491,20.6844,0.920809,0.383826,0.0,0.0
605,151,135.485,163.87,140.859,97.5239,93.9863,0.0132443,0.350844,20.8133,0.890782,0.330516,0.0,0.0
616,153.75,129.816,155.379,142.67,97.4507,93.0352,0.0115186,0.278958,20.8778,0.890782,0.414784,0.0,0.0
627,156.5,124.741,147.149,137.956,97.3664,93.2469,0.00994003,0.229223,20.9163,0.860756,0.386712,0.0,0.0
638,159.25,119.654,139.67,138.451,97.2801,94.0898,0.00824232,0.195521,20.9395,0.860756,0.298281,0.0,0.0
649,162,113.839,132.247,138.031,97.1646,93.5834,0.00693125,0.169456,20.9544,0.820721,0.33593,0.0,0.0
660,164.75,109.997,126.04,143.209,97.0613,93.8353,0.00545181,0.151157,20.9668,0.810712,0.302373,0.0,0.0
671,167.5,106.458,120.759,142.023,96.9529,93.972,0.00411909,0.133368,20.9764,0.83073,0.279347,0.0,0.0
682,170.25,102.702,115.133,140.593,96.8536,93.3697,0.0026688,0.11889,20.9868,0.780686,0.327693,0.0,0.0
693,173,99.4143,111.284,143.815,96.7238,93.6629,0.00146421,0.107494,20.9944,0.780686,0.287651,0.0,0.0
704,175.75,96.3509,106.315,138.309,96.6122,93.3423,0.000494079,0.0976512,21.0011,0.800703,0.308,0.0,0.0
715,178.5,93.2355,102.342,142.058,96.4911,93.52,-0.000445796,0.0889114,21.0083,0.790694,0.279767,0.0,0.0
726,181.25,90.3711,98.1637,139.889,96.389,92.9931,-0.00126435,0.082185,21.0122,0.800703,0.320841,0.0,0.0
737,184,87.3815,94.8686,139.958,96.296,92.9174,-0.00176377,0.0764044,21.0167,0.790694,0.319495,0.0,0.0
748,186.75,85.2894,91.7199,141.852,96.1931,92.7509,-0.00212406,0.0718719,21.0188,0.780686,0.325976,0.0,0.0
759,189.5,83.1437,88.9877,140.978,96.1017,93.2693,-0.00231429,0.0678698,21.0206,0.790694,0.26761,0.0,0.0
770,192.25,80.69,85.4667,141.515,96.0261,93.1549,-0.00231727,0.0642977,21.0225,0.780686,0.271545,0.0,0.0
781,195,78.9683,82.7129,138.442,95.9858,93.024,-0.00247477,0.0611815,21.0242,0.780686,0.28037,0.0,0.0
792,197.75,77.2328,80.8546,140.796,95.9106,92.8799,-0.00263627,0.0588032,21.0263,0.770677,0.287227,0.0,0.0
803,200.5,75.4931,78.6653,138.217,95.8595,93.3968,-0.00276471,0.0564561,21.027,0.770677,0.23282,0.0,0.0
814,203.25,74.0967,76.2714,143.419,95.8235,93.3114,-0.00311595,0.0545794,21.0273,0.770677,0.237639,0.0,0.0
825,206,72.513,74.5117,145.188,95.8018,93.0897,-0.00325377,0.0531953,21.0288,0.750659,0.256892,0.0,0.0
836,208.75,70.9652,72.5255,142.54,95.8188,92.3224,-0.00316952,0.0517484,21.0294,0.760668,0.332512,0.0,0.0
847,211.5,69.8277,70.9921,144.873,95.8251,92.9571,-0.00341985,0.0505028,21.0276,0.750659,0.271814,0.0,0.0
858,214.25,68.4487,69.1733,140.642,95.837,92.8644,-0.00369206,0.0494098,21.0271,0.760668,0.281847,0.0,0.0
869,217,67.2789,67.5826,142.077,95.8698,93.7097,-0.00372351,0.0483548,21.0269,0.750659,0.20386,0.0,0.0
880,219.75,66.2712,66.9271,139.922,95.9288,94.4418,-0.00371832,0.0476227,21.0277,0.740651,0.13975,0.0,0.0
891,222.5,65.4437,65.3263,139.31,96,94.13,-0.00369881,0.0468844,21.0285,0.750659,0.175967,0.0,0.0
902,225.25,64.2443,63.9785,142.119,96.0696,94.8872,-0.00365277,0.0461393,21.0273,0.750659,0.110785,0.0,0.0
913,228,63.0805,62.9939,141.072,96.1353,94.361,-0.00362559,0.0454597,21.0282,0.760668,0.166642,0.0,0.0
924,230.75,62.2734,61.8856,141.636,96.218,94.5665,-0.003679,0.0449869,21.0289,0.770677,0.154871,0.0,0.0
935,233.5,61.255,59.8869,141.333,96.3213,94.9617,-0.00372956,0.0445841,21.0287,0.740651,0.127163,0.0,0.0
946,236.25,60.8138,60.0657,138.834,96.4143,94.6411,-0.00369232,0.0441216,21.0286,0.730642,0.16605,0.0,0.0
957,239,59.692,59.4185,141.539,96.5235,95.7981,-0.00374968,0.0437343,21.0285,0.760668,0.0674805,0.0,0.0
968,241.75,59.688,58.1115,141.901,96.6145,95.1495,-0.00372804,0.0434214,21.0285,0.730642,0.136685,0.0,0.0
979,244.5,58.4903,57.3265,150.161,96.725,93.9975,-0.00356626,0.0429711,21.0301,0.740651,0.255866,0.0,0.0
990,247.25,58.2155,56.685,144.546,96.8243,94.888,-0.00339052,0.0425849,21.0306,0.740651,0.180703,0.0,0.0
1001,250,57.6569,55.9052,143.235,96.9117,95.7151,,0.0422121,,0.740651,0.111144,0.0,0.0
1012,252.75,56.9898,55.3171,142.343,96.9826,95.0564,,,,0.740651,0.17945,0.0,0.0
1023,255.5,56.4698,54.8998,144.088,97.0277,95.4416,,,,0.740651,0.147438,0.0,0.0
1034,258.25,56.013,54.2482,144.006,97.1242,94.3726,,,,0.730642,0.257089,0.0,0.0
1043,260.5,55.6474,53.4605,141.803,97.1519,95.7583,,,,0.750659,0.129245,0.0,0.0