Folder: fsri_materials_database/01_Data/ABS/Cone (part 4)

File: ABS_Cone_HF75Scan_220218_R1.csv
Names,Time,Stack TC,Smoke TC,Exh Press,Smoke Comp,Smoke Meas,CO Meter,CO2 Meter,O2 Meter,Sample Mass,Ext Coeff,Start Test,Flame Verif
Chan Gain,,500,500,1,1,1,1,1,1,1,1,1.0,1.0
Offset,,0,0,0.134285,0,0,0,0,0,0,0,0.0,0.0
Gain,,1,1,25.011,13.3843,12.7012,1,1,1,1.00088,1.02252,1.0,1.0
Units,sec,C,C,Pa,%,%,%,%,%,g,/m,,
Baseline,,31.3759,33.3453,151.753,99.7772,95.9427,0.000908753,0.0490518,21.0124,-866.351,0.351576,,
9,2,29.1792,30.8998,150.409,98.8011,95.1291,0.000798208,0.052374,21.0114,31.8879,0.339709,0.0,0.0
18,4.25,29.5283,31.0159,152.453,98.8133,95.0496,0.000755749,0.0518069,21.0118,31.9179,0.348317,0.0,0.0
27,6.5,29.8841,31.2931,151.821,98.8403,95.2775,0.000616825,0.0509666,21.0119,31.948,0.329281,0.0,0.0
36,8.75,29.9773,31.5678,153.178,98.8366,93.929,0.000677183,0.0502788,21.0111,31.928,0.456802,0.0,0.0
45,11,30.0259,31.6433,154.276,98.8415,93.9942,0.00168968,0.0529624,20.9991,31.928,0.451032,0.0,0.0
54,13.25,30.3776,32.131,146.975,98.8672,73.3202,0.00583507,0.101051,20.8425,31.7178,2.68135,0.0,1.0
63,15.5,31.4227,33.859,131.404,98.8738,49.4648,0.0141844,0.243853,20.5244,31.5476,6.21211,0.0,1.0
72,17.75,34.0085,38.8353,121.846,98.9052,41.6424,0.0245864,0.46579,20.1598,31.0972,7.75898,0.0,0.0
81,20,38.0168,43.9625,109.512,98.9142,38.9249,0.0355614,0.70372,19.7686,30.5768,8.36511,0.0,0.0
90,22.25,42.9438,50.6,108.925,98.9351,32.8794,0.0447202,0.934588,19.427,30.1864,9.88095,0.0,0.0
99,24.5,48.0805,58.0252,100.716,98.9498,31.7367,0.0560101,1.13976,19.1642,29.5759,10.1995,0.0,0.0
108,26.75,53.4749,66.3031,103.318,98.9526,31.8972,0.0660635,1.33204,18.8555,29.0054,10.1546,0.0,0.0
117,29,59.5296,74.8909,104.084,98.973,26.0978,0.0751433,1.53109,18.5811,28.4049,11.9563,0.0,0.0
126,31.25,64.8247,82.9802,96.4266,99.0229,25.9303,0.082775,1.68685,18.3647,27.7443,12.0186,0.0,0.0
135,33.5,70.9945,92.2831,98.4982,99.018,22.6236,0.0889484,1.80739,18.1995,27.0637,13.2417,0.0,0.0
144,35.75,76.3815,100.094,93.1369,99.0515,23.4248,0.0949399,1.90041,18.0779,26.4231,12.9326,0.0,0.0
153,38,82.0081,107.917,103.307,99.0674,23.024,0.100495,1.97006,18.002,25.6925,13.0888,0.0,0.0
162,40.25,87.4332,115.918,104.233,99.0433,23.9748,0.106548,2.02899,17.8927,24.9719,12.7237,0.0,0.0
171,42.5,92.5755,123.22,87.1315,99.0531,21.755,0.111979,2.1149,17.7472,24.2412,13.5961,0.0,0.0
180,44.75,98.0701,130.386,89.9121,99.0735,21.6709,0.118678,2.21788,17.6115,23.4405,13.6327,0.0,0.0
189,47,103.414,138.191,82.8098,99.0768,20.4107,0.127203,2.33191,17.4626,22.7199,14.1703,0.0,0.0
198,49.25,108.955,145.531,86.814,99.0747,17.8777,0.136705,2.45063,17.2836,21.8792,15.3586,0.0,0.0
207,51.5,114.043,153.757,89.7877,99.1172,20.0526,0.147369,2.57067,17.1003,21.1085,14.3327,0.0,0.0
216,53.75,119.25,161.445,83.5387,99.1258,18.2766,0.15735,2.70706,16.8661,20.1176,15.1653,0.0,0.0
225,56,124.889,168.714,76.5197,99.118,16.4695,0.166211,2.82815,16.6609,19.3469,16.0984,0.0,0.0
234,58.25,130.027,176.708,72.7621,99.1274,17.0982,0.178016,2.98729,16.4163,18.3461,15.7633,0.0,0.0
243,60.5,135.152,185.305,84.731,99.1519,17.4405,0.19316,3.20192,16.1126,17.3652,15.5877,0.0,0.0
252,62.75,141.04,194.211,78.695,99.1446,14.8854,0.210227,3.43604,15.7352,16.2442,17.0079,0.0,0.0
261,65,147.646,204.046,74.6061,99.1446,14.3795,0.231176,3.69751,15.3603,15.2934,17.318,0.0,0.0
270,67.25,154.131,213.572,78.2973,99.1564,13.9865,0.248922,3.91763,15.0417,14.1324,17.5677,0.0,0.0
279,69.5,159.038,223.202,81.2291,99.145,13.3977,0.263765,4.11855,14.7925,13.0614,17.9524,0.0,0.0
288,71.75,165.502,232.497,77.5844,99.1315,13.3113,0.27694,4.29405,14.599,12.0305,18.0092,0.0,0.0
297,74,170.919,241.418,72.7987,99.1246,12.2539,0.289691,4.45059,14.2862,10.8595,18.751,0.0,0.0
306,76.25,176.479,251.16,77.4394,99.1331,13.8974,0.305633,4.72696,13.8824,9.65846,17.6229,0.0,0.0
315,78.5,182.246,259.659,55.6105,99.1295,16.7292,0.320746,4.97517,13.5375,8.37733,15.9591,0.0,0.0
324,80.75,187.891,270.41,77.8455,99.1107,28.056,0.327368,5.26907,13.1539,7.14626,11.3198,0.0,0.0
333,83,194.563,280.734,59.852,99.1058,15.7955,0.333404,5.56568,12.7954,5.77506,16.4721,0.0,0.0
342,85.25,200.464,290.878,59.6307,99.1005,11.5794,0.340428,5.71578,12.6536,4.76417,19.2566,0.0,0.0
351,87.5,205.191,298.665,92.3111,99.0796,14.4683,0.335914,5.66579,12.8416,3.64319,17.257,0.0,0.0
360,89.75,209.105,303.226,93.9193,99.0739,12.4996,0.311571,5.37158,13.4767,2.35206,18.5683,0.0,0.0
369,92,210.65,305.598,82.4465,99.085,14.0675,0.274503,4.80883,14.1354,1.57138,17.5094,0.0,0.0
378,94.25,211.385,302.842,85.3973,99.0772,21.6705,0.202489,4.14118,15.2926,0.930815,13.6332,0.0,0.0
387,96.5,208.598,295.374,109.984,99.0641,33.4806,0.136119,3.15448,17.0418,0.580508,9.73012,0.0,0.0
396,98.75,202.357,282.66,122.075,99.0449,63.14,0.0848577,2.13695,18.4838,0.480421,4.03823,0.0,0.0
405,101,194.881,269.113,134.717,99.0437,88.2963,0.0509198,1.36333,19.5043,0.450394,1.03026,0.0,0.0
414,103.25,185.895,254.485,134.515,99.0404,89.1417,0.0319034,0.837876,20.1643,0.420368,0.944498,0.0,0.0
423,105.5,178.338,240.78,135.021,99.0131,88.7568,0.0224724,0.531047,20.4967,0.370324,0.980831,0.0,0.0
432,107.75,171.423,227.869,138.172,98.9955,89.6285,0.0164808,0.370154,20.6967,0.380333,0.891575,0.0,0.0
441,110,164.381,217.512,140.705,98.9869,88.9556,0.0134978,0.269294,20.7977,0.340298,0.958391,0.0,0.0
450,112.25,158.501,207.261,136.253,98.962,88.9983,0.0119291,0.211627,20.8488,0.350307,0.951835,0.0,0.0
459,114.5,152.487,196.987,136.84,98.9477,88.9955,0.0111978,0.178513,20.8758,0.310272,0.950812,0.0,0.0
468,116.75,147.576,188.064,133.155,98.9375,88.9812,0.0106393,0.157132,20.8956,0.290254,0.951332,0.0,0.0
477,119,142.781,179.54,137.944,98.9391,89.2006,0.0103039,0.140455,20.9151,0.290254,0.929393,0.0,0.0
486,121.25,137.719,171.876,134.34,98.9093,89.2804,0.00994126,0.126602,20.9308,0.270237,0.918664,0.0,0.0
495,123.5,133.476,164.783,138.724,98.9028,88.8986,0.00950391,0.11473,20.9424,0.290254,0.95651,0.0,0.0
504,125.75,128.711,158.03,137.7,98.895,89.0769,0.00881021,0.105387,20.9559,0.270237,0.937835,0.0,0.0
513,128,125.303,152.338,136.712,98.8934,89.5025,0.0078393,0.0959546,20.9667,0.260228,0.894934,0.0,0.0
522,130.25,121.944,146.434,138.623,98.8762,89.5723,0.00672827,0.0881788,20.9762,0.290254,0.886388,0.0,0.0
531,132.5,118.508,140.99,138.829,98.8693,89.2506,0.00567414,0.0817419,20.9843,0.260228,0.918033,0.0,0.0
540,134.75,115.306,136.326,137.98,98.8766,89.2293,0.00468604,0.0770757,20.9894,0.250219,0.920842,0.0,0.0
549,137,112.259,131.419,136.322,98.8628,89.3506,0.00399358,0.0732535,20.9935,0.210184,0.907396,0.0,0.0
558,139.25,109.239,127.054,140.641,98.8403,89.1862,0.00350311,0.0700466,20.9917,0.210184,0.92187,0.0,0.0
567,141.5,106.57,122.58,137.408,98.8452,89.1766,0.00309753,0.067606,20.9925,0.230202,0.923289,0.0,0.0
576,143.75,104.343,119.085,138.648,98.8374,89.0568,0.00282772,0.0654181,20.9952,0.230202,0.93464,0.0,0.0
585,146,101.051,115.036,137.573,98.8097,90.2064,0.00266836,0.0635201,20.997,0.220193,0.817071,0.0,0.0
594,148.25,98.9849,111.928,140.459,98.8146,89.4184,0.00246874,0.0619397,20.9989,0.180158,0.896214,0.0,0.0
603,150.5,97.0447,108.982,140.845,98.8199,90.1758,0.00216639,0.0608312,21.0015,0.210184,0.821043,0.0,0.0
612,152.75,95.1918,106.294,140.368,98.7986,89.1769,0.00203898,0.0594521,21.0038,0.190167,0.919024,0.0,0.0
621,155,92.7209,103.249,140.041,98.7843,89.4409,0.00194593,0.0585321,21.0057,0.190167,0.891216,0.0,0.0
630,157.25,90.8659,100.756,139.233,98.7782,89.825,0.00184099,0.0577374,21.0063,0.220193,0.852221,0.0,0.0
639,159.5,89.7586,97.5518,136.701,98.7762,89.5762,0.00170804,0.056748,21.0068,0.200175,0.876919,0.0,0.0
648,161.75,87.8129,95.5824,137.68,98.7672,89.2591,0.00159046,0.0558401,21.0072,0.190167,0.907907,0.0,0.0
657,164,85.5429,92.4844,137.792,98.7525,88.6591,0.00147053,0.0553716,21.0068,0.200175,0.96707,0.0,0.0
666,166.25,84.538,91.5652,141.306,98.7545,89.4921,0.00135764,0.0546332,21.0068,0.210184,0.883378,0.0,0.0
675,168.5,82.9121,88.7102,143.615,98.7476,89.4382,0.00128554,0.0542658,21.0075,0.210184,0.888149,0.0,0.0
684,170.75,82.2426,87.6565,138.218,98.741,88.6366,0.00130555,0.053996,21.0078,0.220193,0.968305,0.0,0.0
693,173,80.8101,85.7812,141.1,98.7312,89.4308,0.00128726,0.053791,21.0091,0.200175,0.887405,0.0,0.0
702,175.25,80.0535,84.5553,137.938,98.7476,89.6987,0.00123845,0.0534566,21.0098,0.210184,0.862065,0.0,0.0
711,177.5,78.8102,82.4874,141.559,98.7222,90.3778,0.00103476,0.0530974,21.0106,0.190167,0.792115,0.0,0.0
720,179.75,77.3679,81.2159,138.585,98.7267,88.9773,0.000661768,0.0525535,21.0109,0.16014,0.932596,0.0,0.0
729,182,76.848,79.8844,138.468,98.7504,90.2064,0.000422464,0.0521454,21.0125,0.16014,0.811693,0.0,0.0
738,184.25,75.3623,78.2588,142.044,98.7553,90.1696,0.000411543,0.0517508,21.0128,0.170149,0.8158,0.0,0.0
747,186.5,74.3953,77.4133,139.828,98.7733,90.156,0.000475896,0.051381,21.0111,0.190167,0.818782,0.0,0.0
756,188.75,73.4249,76.0263,139.782,98.8043,90.6235,0.000560804,0.0512311,21.0114,0.180158,0.775214,0.0,0.0
765,191,73.1578,75.1344,139.023,98.8358,90.4394,0.000673406,0.0510154,21.0108,0.190167,0.796311,0.0,0.0
774,193.25,72.0261,74.2901,139.939,98.8799,90.0607,0.000842694,0.0508371,21.0099,0.210184,0.837949,0.0,0.0
783,195.5,70.5853,72.7453,138.251,98.9355,90.1243,0.000894203,0.0505871,21.0106,0.190167,0.836659,0.0,0.0
792,197.75,70.4436,72.3016,140.681,99.0376,90.8499,0.000849739,0.0505621,21.0113,0.230202,0.773986,0.0,0.0
801,200,69.778,70.8573,139.414,99.0943,90.5452,0.00075899,0.050463,21.0115,0.180158,0.809256,0.0,0.0
810,202.25,69.3202,70.2691,139.24,99.1981,91.0196,0.000715733,0.0508747,21.0116,0.16014,0.771766,0.0,0.0
819,204.5,68.4177,69.1305,140.634,99.3288,91.3293,0.000668019,0.0513532,21.0105,0.150131,0.75311,0.0,0.0
828,206.75,68.3592,68.8433,138.076,99.4689,91.739,0.000570101,0.0517268,21.0098,0.150131,0.725604,0.0,0.0
837,209,67.4128,68.0158,139.553,99.6017,91.4793,0.000653848,0.0519616,21.0108,0.170149,0.762994,0.0,0.0
846,211.25,66.9726,67.9232,140.912,99.7826,90.9975,,0.0519117,,0.170149,0.826639,0.0,0.0
855,213.5,66.3489,67.0781,137.376,99.9439,92.1716,,,,0.190167,0.726144,0.0,0.0
864,215.75,66.0014,66.4299,139.164,100.111,93.2112,,,,0.220193,0.640491,0.0,0.0
873,218,65.5354,65.4253,138.23,100.226,91.846,,,,0.180158,0.783179,0.0,0.0
882,220.25,64.5961,65.0585,136.329,100.308,92.5084,,,,0.190167,0.726065,0.0,0.0
884,220.75,64.9898,65.2335,142.458,100.35,92.522,,,,0.16014,0.728511,0.0,0.0

File: ABS_Cone_HF75Scan_220218_R2.csv
Names,Time,Stack TC,Smoke TC,Exh Press,Smoke Comp,Smoke Meas,CO Meter,CO2 Meter,O2 Meter,Sample Mass,Ext Coeff,Start Test,Flame Verif
Chan Gain,,500,500,1,1,1,1,1,1,1,1,1.0,1.0
Offset,,0,0,0.134285,0,0,0,0,0,0,0,0.0,0.0
Gain,,1,1,25.011,13.3843,12.7012,1,1,1,1.00088,1.02252,1.0,1.0
Units,sec,C,C,Pa,%,%,%,%,%,g,/m,,
Baseline,,43.463,44.2031,145.493,100.159,93.5002,0.00058303,0.0529158,21.0035,-866.754,0.617189,,
10,2.25,40.5313,41.3556,142.739,99.2724,92.991,0.000826362,0.0657043,20.9829,32.3483,0.586291,0.0,0.0
20,4.75,40.8302,41.1679,143.725,99.0988,92.2995,0.000890599,0.0640395,20.9837,32.2983,0.63754,0.0,0.0
30,7.25,40.6108,41.838,143.697,99.0274,92.4088,0.000750616,0.0650785,20.9796,32.3083,0.620452,0.0,0.0
40,9.75,40.9404,41.525,147.661,99.0376,92.2573,0.000693348,0.0667845,20.975,32.3183,0.636099,0.0,0.0
50,12.25,41.3863,41.6599,150.65,99.1287,89.8518,0.00284459,0.0761927,20.9359,32.1381,0.881317,0.0,0.0
60,14.75,41.0553,42.5823,130.296,99.2692,54.4301,0.00960665,0.173342,20.7187,31.998,5.38993,0.0,1.0
70,17.25,43.7437,45.3934,118.49,99.4534,47.4798,0.0195969,0.406901,20.3886,31.6577,6.63189,0.0,1.0
80,19.75,47.8518,51.5181,107.016,99.6392,39.2404,0.032446,0.663992,20.0031,31.0972,8.3582,0.0,0.0
90,22.25,52.3326,59.3043,103.185,99.8655,33.7984,0.0451055,0.951278,19.4326,30.4567,9.71764,0.0,0.0
100,24.75,57.6003,67.6004,105.7,100.036,31.0917,0.0561614,1.20966,19.0656,29.9462,10.4817,0.0,0.0
110,27.25,64.1046,75.5724,93.9559,100.219,27.4358,0.0676494,1.43958,18.7242,29.2756,11.62,0.0,0.0
120,29.75,70.1656,85.6781,93.4384,100.343,24.833,0.0783606,1.65996,18.4161,28.585,12.5252,0.0,0.0
130,32.25,76.1467,94.9956,88.0894,100.433,23.281,0.0899361,1.81359,18.1758,27.7743,13.1121,0.0,0.0
140,34.75,83.0068,104.562,89.835,100.458,24.0198,0.098918,1.93759,17.9984,27.0937,12.8341,0.0,0.0
150,37.25,89.2011,112.986,89.5388,100.436,22.0651,0.105296,2.02651,17.88,26.3331,13.5935,0.0,0.0
160,39.75,94.9303,121.402,85.0203,100.435,23.9019,0.112065,2.08998,17.8104,25.5424,12.8762,0.0,0.0
170,42.25,100.2,129.254,92.1928,100.406,21.9635,0.118917,2.16453,17.6874,24.6716,13.6322,0.0,0.0
180,44.75,105.603,136.719,83.6647,100.342,19.8313,0.126038,2.26927,17.528,23.9209,14.5424,0.0,0.0
190,47.25,111.616,144.405,90.1846,100.274,19.9258,0.134461,2.39362,17.3488,23.0202,14.4937,0.0,0.0
200,49.75,116.894,152.532,87.6207,100.226,17.4482,0.144831,2.51717,17.1559,22.0093,15.6804,0.0,0.0
210,52.25,121.936,160.014,79.9063,100.161,17.7595,0.159313,2.66388,16.9243,21.0284,15.516,0.0,0.0
220,54.75,127.888,169.212,90.9448,100.321,16.0932,0.175796,2.83729,16.6348,20.0876,16.4139,0.0,0.0
230,57.25,133.565,177.312,71.7232,100.595,15.1958,0.192041,3.02217,16.3538,19.1167,16.953,0.0,0.0
240,59.75,139.781,186.428,78.9492,100.829,13.7834,0.210853,3.23476,16.041,17.9557,17.8489,0.0,0.0
250,62.25,145.52,195.79,86.601,100.946,14.1648,0.231144,3.44298,15.7801,16.6946,17.6145,0.0,0.0
260,64.75,152.425,206.641,70.9424,101.014,14.347,0.256813,3.76077,15.2482,15.4135,17.5059,0.0,0.0
270,67.25,159.632,218.582,66.3277,100.989,13.1578,0.277852,4.14171,14.7432,14.3025,18.2798,0.0,0.0
280,69.75,166.443,230.446,57.682,100.908,13.9505,0.293822,4.40717,14.3447,13.0314,17.7479,0.0,0.0
290,72.25,173.15,241.178,71.3668,100.763,15.0617,0.304204,4.62216,14.0644,11.7903,17.0476,0.0,0.0
300,74.75,180.249,252.717,62.9601,100.555,11.5744,0.313382,4.77473,13.8708,10.3791,19.3912,0.0,0.0
310,77.25,185.867,261.201,58.9323,100.448,17.4099,0.322462,4.8726,13.6884,9.138,15.72,0.0,0.0
320,79.75,191.213,269.52,65.6712,100.535,16.9308,0.332547,5.0055,13.4685,7.67672,15.978,0.0,0.0
330,82.25,197.344,279.238,65.0209,100.635,12.4744,0.346441,5.21995,13.159,6.17541,18.7266,0.0,0.0
340,84.75,203.534,289.806,71.3325,100.738,11.6388,0.353206,5.49584,12.9005,4.88428,19.3578,0.0,0.0
350,87.25,208.491,297.321,78.2416,100.87,11.6077,0.342937,5.42534,12.9952,3.64319,19.3935,0.0,0.0
360,89.75,212.229,300.618,72.9475,100.968,12.783,0.30676,4.98576,13.751,2.60228,18.5371,0.0,0.0
370,92.25,214.036,301.2,86.704,101.073,14.6392,0.25091,4.32673,14.8232,1.73152,17.3303,0.0,0.0
380,94.75,212.473,297.214,99.3195,101.147,27.3241,0.174637,3.51473,16.2409,1.08095,11.7393,0.0,0.0
390,97.25,208.639,287.5,117.066,101.211,50.2187,0.105527,2.55395,17.9121,0.820719,6.28596,0.0,0.0
400,99.75,200.757,273.481,130.756,101.212,78.7956,0.0651689,1.56047,18.9504,0.760666,2.24558,0.0,0.0
410,102.25,191.899,258.418,133.993,101.215,83.9857,0.0366684,0.992028,19.7967,0.710622,1.67375,0.0,0.0
420,104.75,183.98,244.1,134.34,101.149,87.9412,0.0221808,0.598293,20.3308,0.700613,1.25509,0.0,0.0
430,107.25,176.313,231.252,133.866,101.094,89.6056,0.0156232,0.387764,20.593,0.660578,1.08199,0.0,0.0
440,109.75,169.186,219.445,137.33,100.976,89.7979,0.0125845,0.27802,20.7246,0.640561,1.05232,0.0,0.0
450,112.25,162.221,207.681,133.007,100.84,89.2471,0.011456,0.213385,20.81,0.610535,1.09538,0.0,0.0
460,114.75,155.829,197.221,133.624,100.676,89.5727,0.0109723,0.177501,20.8531,0.660578,1.04817,0.0,0.0
470,117.25,150.893,188.863,132.96,100.51,89.3312,0.0105832,0.155232,20.8789,0.590517,1.0576,0.0,0.0
480,119.75,146,180.072,137.304,100.319,89.3397,0.0101807,0.138925,20.8972,0.580508,1.03963,0.0,0.0
490,122.25,140.836,172.565,133.872,100.138,88.8777,0.00957818,0.125947,20.9117,0.540473,1.06995,0.0,0.0
500,124.75,136.496,164.691,132.81,99.9464,88.6358,0.00887349,0.114615,20.9252,0.540473,1.07721,0.0,0.0
510,127.25,132.211,158.487,132.612,99.7458,88.8033,0.00806408,0.105341,20.937,0.560491,1.04227,0.0,0.0
520,129.75,127.965,152.078,133.624,99.5857,88.2951,0.00728966,0.0976549,20.945,0.550482,1.07933,0.0,0.0
530,132.25,124.712,146.484,132.456,99.4436,88.1719,0.00658202,0.0910968,20.9514,0.540473,1.07905,0.0,0.0
540,134.75,120.77,140.715,132.73,99.3472,88.3374,0.00565248,0.0856916,20.9565,0.530464,1.05353,0.0,0.0
550,137.25,117.721,135.387,133.202,99.2459,88.2742,0.00471148,0.0813115,20.9631,0.540473,1.0508,0.0,0.0
560,139.75,113.949,130.901,135.577,99.1997,88.625,0.00410649,0.0775969,20.9678,0.520456,1.01105,0.0,0.0
570,142.25,111.487,127.062,136.634,99.1499,88.0866,0.00377903,0.0747637,20.9709,0.530464,1.0612,0.0,0.0
580,144.75,109.221,122.885,135.726,99.1732,87.9482,0.00352278,0.072451,20.9734,0.510447,1.07741,0.0,0.0
590,147.25,106.206,119.168,136.275,99.1944,87.9079,0.0031286,0.0704447,20.9756,0.520456,1.08344,0.0,0.0
600,149.75,103.741,115.433,138.183,99.2532,87.9168,0.00283025,0.0687708,20.9785,0.510447,1.08785,0.0,0.0
610,152.25,101.552,112.36,132.536,99.3349,88.361,0.00262094,0.0672207,20.9807,0.520456,1.05003,0.0,0.0
620,154.75,99.4782,108.986,136,99.4358,88.2676,0.0022359,0.0659567,20.981,0.520456,1.06862,0.0,0.0
630,157.25,97.3046,106.324,137.302,99.5379,88.2017,0.00187936,0.0646805,20.9817,0.490429,1.08452,0.0,0.0
640,159.75,95.1891,103.28,133.993,99.6584,88.692,0.00170854,0.0635466,20.9827,0.480421,1.04565,0.0,0.0
650,162.25,93.5508,100.708,136.694,99.7944,88.5657,0.00178929,0.0625895,20.9843,0.500438,1.07067,0.0,0.0
660,164.75,91.8732,98.9675,134.298,99.9182,89.1308,0.00180165,0.0617713,20.9862,0.520456,1.02473,0.0,0.0
670,167.25,90.4826,96.4574,135.941,100.069,89.206,0.0017366,0.0611631,20.9874,0.480421,1.03065,0.0,0.0
680,169.75,89.1397,93.9604,136.704,100.163,88.9963,0.00164271,0.0608295,20.9878,0.500438,1.06025,0.0,0.0
690,172.25,87.2624,92.5743,139.196,100.277,89.2227,0.00151088,0.0603771,20.9879,0.470412,1.04767,0.0,0.0
700,174.75,85.8868,90.3135,136.231,100.357,89.2816,0.00140646,0.0600561,20.9892,0.490429,1.04887,0.0,0.0
710,177.25,85.0062,89.0094,136.939,100.459,89.8153,0.00135949,0.0595734,20.9883,0.490429,1.00453,0.0,0.0
720,179.75,83.92,87.3943,134.199,100.506,89.0324,0.00130193,0.0591792,20.9875,0.500438,1.08726,0.0,0.0
730,182.25,82.7359,85.6347,139.634,100.557,89.6084,0.00124153,0.0589755,20.9883,0.470412,1.03397,0.0,0.0
740,184.75,81.6694,84.2267,137.467,100.585,89.1351,0.00128467,0.0586393,20.9885,0.470412,1.08395,0.0,0.0
750,187.25,80.4573,82.7086,135.974,100.598,89.9797,0.00137323,0.0584285,20.9886,0.480421,1.00056,0.0,0.0
760,189.75,79.6617,81.4327,135.239,100.557,89.7386,0.00137894,0.0581798,20.9887,0.440386,1.02098,0.0,0.0
770,192.25,78.7232,80.3384,138.67,100.54,89.5022,0.00123777,0.0579069,20.9887,0.430377,1.04308,0.0,0.0
780,194.75,77.6152,79.0673,134.025,100.511,89.113,0.00106628,0.0576463,20.99,0.440386,1.07961,0.0,0.0
790,197.25,76.8722,77.5469,137.59,100.505,89.6208,0.000940396,0.0573767,20.9907,0.460403,1.0281,0.0,0.0
800,199.75,76.5,76.8168,136.404,100.477,89.2467,0.000836114,0.0570441,20.9905,0.450394,1.0631,0.0,0.0
810,202.25,75.3513,76.3279,136.467,100.453,89.2851,0.000899287,0.0567198,20.99,0.460403,1.05713,0.0,0.0
820,204.75,74.3475,74.5866,140.598,100.43,89.6161,0.000919891,0.0563677,20.9898,0.440386,1.02189,0.0,0.0
830,207.25,74.1002,74.3715,138.56,100.397,89.9591,0.000884673,0.0561952,20.9913,0.430377,0.984598,0.0,0.0
840,209.75,73.3688,73.5169,134.279,100.376,89.6425,0.000776946,0.0560539,20.993,0.430377,1.0144,0.0,0.0
850,212.25,72.1257,71.9996,137.286,100.344,88.9804,0.000754313,0.0558545,20.9939,0.430377,1.07801,0.0,0.0
860,214.75,71.8248,71.7602,134.829,100.304,89.32,0.000786842,0.055682,20.9942,0.420368,1.04027,0.0,0.0
870,217.25,71.2089,71.8307,138.053,100.281,89.5006,,0.0555138,,0.410359,1.0201,0.0,0.0
880,219.75,70.8133,71.026,137.556,100.252,88.9409,,,,0.420368,1.07374,0.0,0.0
890,222.25,70.6646,70.3757,138.783,100.22,88.7591,,,,0.410359,1.08924,0.0,0.0
900,224.75,69.9048,69.742,138.228,100.221,90.034,,,,0.450394,0.961473,0.0,0.0
910,227.25,69.3448,69.1849,136.863,100.35,89.9312,,,,0.400351,0.983184,0.0,0.0