Folder: fsri_materials_database/01_Data/ABS/Cone (part 3)

File: ABS_Cone_HF50Scan_220217_R2.csv
Names,Time,Stack TC,Smoke TC,Exh Press,Smoke Comp,Smoke Meas,CO Meter,CO2 Meter,O2 Meter,Sample Mass,Ext Coeff,Start Test,Flame Verif
Chan Gain,,500,500,1,1,1,1,1,1,1,1,1.0,1.0
Offset,,0,0,0.140898,0,0,0,0,0,0,0,0.0,0.0
Gain,,1,1,25.011,12.9668,12.6588,1,1,1,1.00088,1.01977,1.0,1.0
Units,sec,C,C,Pa,%,%,%,%,%,g,/m,,
Baseline,,34.1316,35.133,147.322,95.8549,97.3714,-0.00433253,0.0380251,21.0453,-872.193,-0.140357,,
11,2.5,32.1271,32.5637,149.814,95.9406,97.5072,-0.0043166,0.0432494,21.037,32.1883,-0.144882,0.0,0.0
22,5.25,31.681,32.1536,146.037,95.941,97.7197,-0.00435171,0.0441184,21.0358,32.1082,-0.164317,0.0,0.0
33,8,31.8179,32.79,148.517,95.9395,97.8634,-0.00441464,0.0445314,21.0363,32.0882,-0.17761,0.0,0.0
44,10.75,32.227,32.9244,144.329,95.9418,97.7664,-0.00438118,0.043913,21.0384,32.1182,-0.168521,0.0,0.0
55,13.5,31.7884,32.6569,148.062,95.9438,97.4114,-0.00426514,0.0424918,21.0408,32.0882,-0.135794,0.0,0.0
66,16.25,31.9663,32.8048,142.76,95.9493,97.2742,-0.00445226,0.0408477,21.0434,32.0882,-0.122674,0.0,0.0
77,19,32.1101,33.0954,145.375,95.9462,97.1356,-0.00460597,0.0396282,21.0448,32.0481,-0.110206,0.0,0.0
88,21.75,32.1182,32.9522,148.735,95.9406,95.7305,-0.00450814,0.0387375,21.0448,32.0481,0.0196124,0.0,0.0
99,24.5,32.1775,32.8705,147.736,95.9513,95.7935,-0.00395112,0.0388321,21.0409,32.0481,0.0147272,0.0,0.0
110,27.25,32.3141,33.6544,144.274,95.9573,77.1259,-0.000690806,0.0600734,20.976,31.878,1.95423,0.0,1.0
121,30,33.6567,35.4614,128.855,95.9565,59.5654,0.00472687,0.172198,20.7226,31.6578,4.26531,0.0,1.0
132,32.75,36.6718,40.0455,121.348,95.9466,52.186,0.0123646,0.32887,20.4084,31.2875,5.4475,0.0,0.0
143,35.5,40.8002,45.7048,119.53,95.9454,49.4289,0.019479,0.496692,20.0853,30.8771,5.93294,0.0,0.0
154,38.25,45.0109,52.0623,116.037,95.9505,43.9895,0.0255065,0.669683,19.833,30.5068,6.9763,0.0,0.0
165,41,49.6138,58.5674,116.346,95.9509,37.6068,0.0316509,0.796726,19.6254,29.9063,8.37867,0.0,0.0
176,43.75,54.6913,65.7489,100.64,95.9406,38.4185,0.0381872,0.945474,19.3521,29.3658,8.1867,0.0,0.0
187,46.5,59.6152,73.1356,107.73,95.926,34.779,0.0442183,1.08554,19.1486,28.8053,9.07562,0.0,0.0
198,49.25,64.7338,80.4624,105.489,95.9165,32.5654,0.0488718,1.19977,19.0156,28.1547,9.66301,0.0,0.0
209,52,70.3053,87.5933,100.518,95.9236,33.9905,0.0525502,1.28765,18.902,27.5342,9.28053,0.0,0.0
220,54.75,75.1156,93.5257,99.9708,95.9288,33.0332,0.0554258,1.36211,18.8006,26.9136,9.53656,0.0,0.0
231,57.5,79.4285,101.129,106.786,95.9122,33.4218,0.057107,1.4284,18.7155,26.213,9.43038,0.0,0.0
242,60.25,84.4224,106.7,103.731,95.892,32.5298,0.0590287,1.47435,18.6583,25.6525,9.67049,0.0,0.0
253,63,88.4785,112.759,97.1711,95.8904,32.057,0.0618253,1.5234,18.5824,24.9219,9.80133,0.0,0.0
264,65.75,91.8947,117.908,93.302,95.9038,31.2631,0.0649502,1.58488,18.4774,24.2513,10.0269,0.0,0.0
275,68.5,97.4534,124.456,103.919,95.892,30.2166,0.0693475,1.64851,18.3803,23.5307,10.3304,0.0,0.0
286,71.25,101.204,130.075,95.9285,95.8908,28.6744,0.073438,1.7038,18.3095,22.79,10.7989,0.0,0.0
297,74,105.405,136.01,100.297,95.8686,28.8069,0.0781177,1.75208,18.2556,22.0193,10.7556,0.0,0.0
308,76.75,108.986,140.866,94.5912,95.8627,26.8722,0.0836199,1.82584,18.0997,21.2487,11.3769,0.0,0.0
319,79.5,113.983,147.56,93.1784,95.8754,25.6808,0.0892248,1.91817,17.936,20.3779,11.7837,0.0,0.0
330,82.25,118.329,153.045,89.4208,95.8702,22.2766,0.0955516,2.01412,17.7952,19.5672,13.0554,0.0,0.0
341,85,122.666,159.59,88.5919,95.8674,23.9965,0.101781,2.12867,17.5859,18.6564,12.3898,0.0,0.0
352,87.75,126.839,165.861,92.7372,95.8607,22.5331,0.108062,2.25141,17.3965,17.7756,12.9521,0.0,0.0
363,90.5,132.341,172.891,93.4272,95.8746,23.0025,0.11468,2.35397,17.2676,16.8148,12.7689,0.0,0.0
374,93.25,136.566,179.165,75.001,95.8722,21.75,0.119946,2.43734,17.1464,15.8439,13.2695,0.0,0.0
385,96,140.748,184.628,100.567,95.8754,18.7217,0.129697,2.51511,17.0423,14.9631,14.611,0.0,0.0
396,98.75,145.302,191.42,76.3917,95.8718,17.6794,0.138014,2.60489,16.8823,13.8722,15.1231,0.0,0.0
407,101.5,149.908,197.894,99.2021,95.875,20.0564,0.145553,2.72184,16.6919,12.8913,13.9949,0.0,0.0
418,104.25,154.4,204.599,83.0344,95.8837,18.9593,0.153689,2.84145,16.5238,11.8404,14.499,0.0,0.0
429,107,158.781,210.121,77.3771,95.8932,17.8111,0.15947,2.92401,16.409,10.7094,15.0587,0.0,0.0
440,109.75,162.282,216.505,86.1074,95.8967,16.5066,0.165348,2.98495,16.3136,9.62846,15.7394,0.0,0.0
451,112.5,166.55,221.802,76.7458,95.9007,17.1285,0.170895,3.06595,16.1523,8.45743,15.4089,0.0,0.0
462,115.25,170.706,228.926,68.1361,95.9046,15.3538,0.17437,3.17667,16.021,7.42652,16.3878,0.0,0.0
473,118,174.907,234.115,78.8761,95.9169,17.1567,0.175199,3.22465,15.9884,6.40563,15.3957,0.0,0.0
484,120.75,178.035,237.142,82.0269,95.9335,17.1061,0.171866,3.20351,16.0852,5.28464,15.4237,0.0,0.0
495,123.5,180.257,239.952,77.1381,95.9553,16.2412,0.165426,3.12627,16.2369,4.18367,15.8899,0.0,0.0
506,126.25,181.84,241.798,85.6548,95.9596,21.4023,0.150821,2.98373,16.527,3.1928,13.4218,0.0,0.0
517,129,181.791,241.344,90.426,95.9723,20.1128,0.131177,2.7703,16.925,2.42213,13.9789,0.0,0.0
528,131.75,181.469,238.959,91.9266,96.0174,26.6335,0.108145,2.5027,17.4398,1.76155,11.4712,0.0,0.0
539,134.5,178.893,233.062,98.4122,96.0154,37.8332,0.0836701,2.13791,18.1028,1.17103,8.33099,0.0,0.0
550,137.25,174.844,225.225,107.22,96.0364,37.3414,0.0586346,1.74019,18.755,0.840738,8.44999,0.0,0.0
561,140,169.052,214.826,126.107,96.0487,58.5537,0.0376361,1.30248,19.4427,0.58051,4.42715,0.0,0.0
572,142.75,161.388,202.97,135.831,96.0926,88.9657,0.0235192,0.909086,20.0831,0.550483,0.689338,0.0,0.0
583,145.5,153.58,190.213,137.299,96.1068,92.2722,0.0164294,0.605181,20.5197,0.550483,0.364231,0.0,0.0
594,148.25,146.36,178.786,134.41,96.1361,91.5896,0.0135483,0.40343,20.7586,0.540475,0.43338,0.0,0.0
605,151,140.058,168.756,135.558,96.1567,92.4503,0.0122184,0.294608,20.8624,0.510448,0.351622,0.0,0.0
616,153.75,133.865,159.631,136.901,96.2109,92.3437,0.0111477,0.230657,20.9103,0.50044,0.366988,0.0,0.0
627,156.5,128.44,151.5,136.648,96.2529,92.2189,0.00993907,0.194714,20.9389,0.490431,0.382983,0.0,0.0
638,159.25,123.212,144.076,141.893,96.2782,92.5851,0.00860584,0.166959,20.9562,0.450396,0.349881,0.0,0.0
649,162,118.697,137.75,140.291,96.3162,92.5759,0.00734467,0.147254,20.9709,0.430378,0.354306,0.0,0.0
660,164.75,114.291,130.534,138.525,96.3609,93.0271,0.00608949,0.131374,20.9782,0.450396,0.314965,0.0,0.0
671,167.5,109.986,124.909,133.827,96.4123,92.6848,0.00473826,0.118079,20.9869,0.430378,0.352712,0.0,0.0
682,170.25,106.358,119.438,139.32,96.4709,93.9496,0.00356743,0.105513,20.9976,0.420369,0.236899,0.0,0.0
693,173,103.175,114.742,138.426,96.5311,92.8525,0.00246103,0.0958533,21.006,0.380334,0.347553,0.0,0.0
704,175.75,99.7407,109.974,137.78,96.5698,93.5648,0.00146297,0.0871827,21.0129,0.380334,0.282778,0.0,0.0
715,178.5,96.7481,105.414,137.245,96.6339,93.2484,0.00055369,0.0803502,21.0179,0.400352,0.319015,0.0,0.0
726,181.25,93.5511,101.935,140.505,96.7028,93.379,-0.000290493,0.0739466,21.0243,0.380334,0.31287,0.0,0.0
737,184,90.7302,98.1469,139.411,96.7523,93.2233,-0.00106207,0.0689419,21.0284,0.390343,0.33237,0.0,0.0
748,186.75,88.6522,94.6877,138.429,96.8084,94.3178,-0.00180115,0.0646725,21.03,0.380334,0.233159,0.0,0.0
759,189.5,86.325,91.1707,147.181,96.8662,94.4908,-0.00239285,0.0611882,21.0319,0.380334,0.222095,0.0,0.0
770,192.25,84.4305,88.6705,141.913,96.937,94.706,-0.00265139,0.0582091,21.0331,0.400352,0.208286,0.0,0.0
781,195,82.1535,85.5523,138.861,96.9873,93.4528,-0.00280208,0.0556363,21.0349,0.390343,0.332084,0.0,0.0
792,197.75,80.3809,83.269,134.054,97.0431,95.5613,-0.00290373,0.0537064,21.0358,0.390343,0.137644,0.0,0.0
803,200.5,78.7381,80.5865,142.175,97.0799,94.2173,-0.00294927,0.0521752,21.0365,0.370325,0.267737,0.0,0.0
814,203.25,76.9742,78.4834,136.62,97.1199,94.589,-0.00282606,0.0506399,21.0383,0.360316,0.236204,0.0,0.0
825,206,75.1096,77.1509,141.656,97.1705,93.9523,-0.00272185,0.049519,21.0389,0.370325,0.301281,0.0,0.0
836,208.75,73.563,74.6085,137.922,97.2006,94.57,-0.00282203,0.0483995,21.0391,0.360316,0.245427,0.0,0.0
847,211.5,71.9628,72.9629,138.536,97.2311,94.7879,-0.00324053,0.047647,21.0386,0.370325,0.227645,0.0,0.0
858,214.25,71.116,71.5324,139.908,97.2287,95.7363,-0.00349105,0.0469222,21.0395,0.380334,0.138369,0.0,0.0
869,217,69.0805,69.5718,143.125,97.2362,95.1163,-0.00361594,0.0460957,21.0403,0.360316,0.197183,0.0,0.0
880,219.75,69.1544,68.5237,142.38,97.2513,95.1016,-0.00368211,0.0454694,21.0405,0.380334,0.199947,0.0,0.0
891,222.5,67.4416,66.6742,140.243,97.2564,94.9011,-0.00368294,0.0449462,21.0412,0.390343,0.2193,0.0,0.0
902,225.25,66.3119,65.7954,141.534,97.2726,95.1537,-0.00378069,0.0444759,21.0424,0.350308,0.197009,0.0,0.0
913,228,65.5126,65.219,144.73,97.2544,93.9627,-0.00380999,0.044074,21.0428,0.360316,0.308007,0.0,0.0
924,230.75,64.6048,63.7518,137.516,97.2742,95.0827,-0.00381878,0.0437599,21.0429,0.360316,0.203839,0.0,0.0
935,233.5,63.5375,62.5859,140.747,97.2786,95.0703,-0.00393274,0.0432784,21.0421,0.350308,0.205402,0.0,0.0
946,236.25,63.1084,61.5013,144.912,97.2497,95.4029,-0.00401714,0.0429695,21.0427,0.360316,0.171503,0.0,0.0
957,239,62.1371,60.747,136.575,97.2437,95.2801,-0.0039986,0.0425454,21.0431,0.360316,0.182483,0.0,0.0
968,241.75,61.4281,59.9774,141.833,97.2148,96.0817,-0.00402862,0.0423251,21.0432,0.340299,0.104882,0.0,0.0
979,244.5,61.1344,59.3072,140.034,97.2046,95.0707,-0.00412373,0.0420974,21.0438,0.340299,0.198559,0.0,0.0
990,247.25,60.0103,57.9851,143.709,97.197,95.9612,-0.0040675,0.0417734,21.0437,0.340299,0.114472,0.0,0.0
1001,250,59.1969,57.6111,141.96,97.1646,96.0411,-0.00391638,0.0413162,21.0437,0.340299,0.104034,0.0,0.0
1012,252.75,58.4206,56.3312,143.432,97.1345,95.4346,,0.0410059,,0.340299,0.157935,0.0,0.0
1023,255.5,58.4748,56.3393,147.531,97.1116,96.0697,,,,0.33029,0.0964884,0.0,0.0
1034,258.25,57.6777,55.7344,138.509,97.1127,96.1651,,,,0.320281,0.0877166,0.0,0.0
1045,261,57.4826,55.4876,140.698,97.0815,95.1194,,,,0.360316,0.182648,0.0,0.0
1053,263,56.8885,54.5024,141.065,97.0811,95.9917,,,,0.350308,0.100951,0.0,0.0

File: ABS_Cone_HF50Scan_220217_R3.csv
Names,Time,Stack TC,Smoke TC,Exh Press,Smoke Comp,Smoke Meas,CO Meter,CO2 Meter,O2 Meter,Sample Mass,Ext Coeff,Start Test,Flame Verif
Chan Gain,,500,500,1,1,1,1,1,1,1,1,1.0,1.0
Offset,,0,0,0.140898,0,0,0,0,0,0,0,0.0,0.0
Gain,,1,1,25.011,12.9668,12.6588,1,1,1,1.00088,1.01977,1.0,1.0
Units,sec,C,C,Pa,%,%,%,%,%,g,/m,,
Baseline,,40.3826,39.6739,146.18,97.882,98.7505,-0.00471264,0.0386317,21.0453,-872.209,-0.078965,,
11,2.5,37.5722,36.7822,145.47,97.5211,99.0046,-0.00470046,0.0407873,21.0436,26.8536,-0.135046,0.0,0.0
22,5.25,37.7457,37.1275,147.676,97.4978,98.3474,-0.00466939,0.0418821,21.0418,26.8936,-0.0776165,0.0,0.0
33,8,37.2362,36.7821,147.888,97.4677,98.6982,-0.00466052,0.0424505,21.0406,26.8836,-0.112225,0.0,0.0
44,10.75,37.4615,37.3047,147.127,97.4167,98.3548,-0.00476743,0.0422001,21.04,26.8736,-0.0857306,0.0,0.0
55,13.5,37.4036,37.3797,145.728,97.3795,98.6329,-0.00485267,0.0411416,21.0401,26.8836,-0.114409,0.0,0.0
66,16.25,37.6273,36.8045,147.015,97.3284,97.2229,-0.00475262,0.0402278,21.041,26.8536,0.00970614,0.0,0.0
77,19,37.3961,36.6838,148.494,97.2829,97.5628,-0.00464616,0.0394136,21.0426,26.8436,-0.0257017,0.0,0.0
88,21.75,37.2915,37.193,146.792,97.2607,96.9463,-0.00455366,0.0385935,21.0429,26.8035,0.028971,0.0,0.0
99,24.5,36.8958,36.9555,145.344,97.2109,96.8821,-0.00408856,0.0383015,21.0391,26.7735,0.0303038,0.0,0.0
110,27.25,37.1624,36.9907,135.262,97.1792,79.3484,-0.0018725,0.0586189,20.9676,26.7535,1.8133,0.0,1.0
121,30,37.5801,38.2395,127.67,97.1365,55.9897,0.0039419,0.14793,20.7233,26.4132,4.92843,0.0,0.0
132,32.75,41.0237,42.7573,124.252,97.0862,49.906,0.0113101,0.311137,20.4075,26.1029,5.95275,0.0,0.0
143,35.5,44.7932,48.1385,119.086,97.0661,49.3018,0.0186674,0.498818,20.1551,25.6625,6.05985,0.0,0.0
154,38.25,49.1013,54.254,120.283,97.055,45.6874,0.0253903,0.65048,19.8738,25.2622,6.73991,0.0,0.0
165,41,53.7844,61.2646,109.826,97.0221,40.6769,0.0315881,0.814407,19.5895,24.7017,7.776,0.0,0.0
176,43.75,58.939,68.6875,102.358,96.9893,37.8343,0.0377206,0.964027,19.3618,24.1712,8.42099,0.0,0.0
187,46.5,63.6535,76.1329,92.6525,96.958,35.3009,0.043018,1.10667,19.1311,23.5207,9.0381,0.0,0.0
198,49.25,69.8955,84.2778,109.852,96.9335,33.3925,0.0477173,1.2228,18.9883,22.9301,9.533,0.0,0.0
209,52,74.6132,90.6671,98.1244,96.9279,35.0196,0.0520119,1.29574,18.8909,22.2896,9.10688,0.0,0.0
220,54.75,78.4048,96.2636,101.736,96.9216,33.3944,0.0539683,1.34551,18.8369,21.7991,9.53139,0.0,0.0
231,57.5,82.8142,102.234,99.164,96.903,31.9565,0.0550443,1.39223,18.7947,20.9884,9.92337,0.0,0.0
242,60.25,87.5469,109.081,96.6597,96.9018,30.9919,0.0581096,1.44857,18.69,20.3779,10.1974,0.0,0.0
253,63,91.7104,115.025,93.9157,96.8912,29.7522,0.0619788,1.52208,18.5746,19.6773,10.5616,0.0,0.0
264,65.75,96.5266,120.991,88.9193,96.8959,28.8339,0.0656381,1.58523,18.4782,18.9867,10.8425,0.0,0.0
275,68.5,100.154,126.54,94.7286,96.8892,29.238,0.0695346,1.66097,18.3333,18.266,10.7174,0.0,0.0
286,71.25,104.737,132.225,104.778,96.8809,26.8985,0.0753698,1.74482,18.21,17.5454,11.4627,0.0,0.0
297,74,109.543,138.732,98.9724,96.8682,26.5887,0.0811291,1.82057,18.0989,16.6446,11.5651,0.0,0.0
308,76.75,113.609,144.615,88.1034,96.8832,24.4658,0.0871008,1.89444,17.9718,15.894,12.3108,0.0,0.0
319,79.5,117.949,150.739,92.7624,96.8785,24.4751,0.0947555,1.99778,17.8239,15.0332,12.307,0.0,0.0
330,82.25,123.137,158.172,82.9535,96.8674,22.9237,0.103701,2.11125,17.6157,14.0624,12.8918,0.0,0.0
341,85,127.606,164.613,83.0909,96.8179,24.9306,0.11074,2.23894,17.4177,13.0915,12.1365,0.0,0.0
352,87.75,132.776,171.732,74.1209,96.7974,20.2581,0.11776,2.37147,17.1836,12.2207,13.9911,0.0,0.0
363,90.5,137.868,179.721,92.2121,96.7918,19.9382,0.126199,2.52269,16.9587,11.2299,14.133,0.0,0.0
374,93.25,142.894,186.886,78.7219,96.7562,18.0708,0.139257,2.64086,16.7724,10.1389,15.0094,0.0,0.0
385,96,148.418,195.314,83.9336,96.7151,17.8332,0.153441,2.80576,16.4907,9.19808,15.124,0.0,0.0
396,98.75,153.466,203.639,85.0052,96.6652,16.614,0.163732,2.97057,16.2504,7.92696,15.7528,0.0,0.0
407,101.5,158.456,211.011,81.9926,96.6387,16.6441,0.17177,3.12902,16.0391,6.7159,15.7342,0.0,0.0
418,104.25,164.048,219.405,88.0797,96.5872,15.5535,0.180377,3.29273,15.8086,5.63495,16.3356,0.0,0.0
429,107,168.38,225.62,67.9101,96.5417,18.2469,0.190696,3.39838,15.6663,4.36383,14.9027,0.0,0.0
440,109.75,173.743,234.092,69.6802,96.4875,15.3998,0.201622,3.52143,15.4918,3.21282,16.4152,0.0,0.0
451,112.5,178.244,239.996,80.2951,96.4539,14.7531,0.208958,3.5725,15.4292,2.11185,16.7959,0.0,0.0
462,115.25,182.61,246.281,69.597,96.406,15.5342,0.210536,3.58192,15.4444,0.860756,16.3299,0.0,0.0
473,118,185.706,250.599,78.4273,96.3621,15.9321,0.201651,3.51595,15.5817,-0.360316,16.0996,0.0,0.0
484,120.75,187.713,252.277,74.4942,96.3031,18.1125,0.184606,3.37789,15.8055,-1.3712,14.9468,0.0,0.0
495,123.5,188.942,252.248,81.6445,96.2465,19.8706,0.16011,3.14151,16.2765,-2.26199,14.1128,0.0,0.0
506,126.25,188.743,250.512,89.2017,96.1793,23.546,0.134469,2.87708,16.6643,-3.01265,12.5884,0.0,0.0
517,129,186.819,245.627,99.3525,96.1488,31.8978,0.102525,2.52426,17.3032,-3.60316,9.86992,0.0,0.0
528,131.75,182.368,236.792,112.772,96.106,36.8183,0.0745458,2.01505,18.1839,-4.04355,8.58266,0.0,0.0
539,134.5,176.748,226.91,113.843,96.0649,46.0594,0.0500359,1.57377,18.9777,-4.33381,6.57564,0.0,0.0
550,137.25,170.49,215.81,126.195,96.0257,62.0746,0.0321618,1.14549,19.6472,-4.53398,3.90267,0.0,0.0
561,140,163.194,203.764,133.25,95.9964,83.254,0.0216705,0.810761,20.1271,-4.56401,1.27395,0.0,0.0
572,142.75,155.034,191.776,134.652,95.9763,91.1407,0.0170785,0.562911,20.5053,-4.59404,0.462443,0.0,0.0
583,145.5,148.878,180.654,135.613,95.9478,91.2848,0.0151454,0.391897,20.7297,-4.59404,0.445656,0.0,0.0
594,148.25,142.331,171.348,135.935,95.9189,90.8861,0.0138052,0.288357,20.8335,-4.59404,0.482115,0.0,0.0
605,151,136.613,162.072,136.827,95.9058,91.0437,0.0124746,0.227779,20.8844,-4.67411,0.465398,0.0,0.0
616,153.75,131.062,153.794,136.112,95.9074,91.2203,0.0110325,0.187706,20.9185,-4.67411,0.448215,0.0,0.0
627,156.5,125.596,145.968,133.708,95.9169,91.3586,0.00951962,0.16121,20.9409,-4.67411,0.435549,0.0,0.0
638,159.25,121.578,139.945,139.131,95.9181,92.6833,0.0079928,0.140668,20.957,-4.72415,0.306886,0.0,0.0
649,162,117.32,133.734,139.448,95.9042,90.6439,0.00627831,0.125285,20.9695,-4.73416,0.504622,0.0,0.0
660,164.75,112.56,126.995,136.991,95.9256,92.1409,0.00459837,0.111765,20.9812,-4.73416,0.360089,0.0,0.0
671,167.5,109.897,122.027,136.368,95.9367,92.6748,0.00330472,0.10056,20.9891,-4.73416,0.30944,0.0,0.0
682,170.25,106.141,117.36,139.526,95.96,91.7924,0.00213482,0.091539,20.9971,-4.73416,0.397193,0.0,0.0
693,173,103.224,112.835,137.221,95.9747,91.9794,0.00118498,0.0833794,21.0035,-4.74417,0.380355,0.0,0.0
704,175.75,99.7694,109.235,135.377,96.0083,90.5917,0.000322413,0.0768398,21.0092,-4.72415,0.519472,0.0,0.0
715,178.5,97.0283,104.791,136.375,96.0419,91.3593,-0.000468694,0.0711297,21.0151,-4.74417,0.447128,0.0,0.0
726,181.25,94.3319,101.829,133.229,96.1009,92.0659,-0.00117356,0.0663787,21.0184,-4.76418,0.383701,0.0,0.0
737,184,92.265,97.8048,136.152,96.1476,92.4719,-0.00166964,0.0625226,21.0225,-4.74417,0.348684,0.0,0.0
748,186.75,89.1381,94.5266,137.883,96.1983,92.6624,-0.00203127,0.0592637,21.0243,-4.7842,0.33499,0.0,0.0
759,189.5,87.5229,92.3369,134.789,96.2628,93.1546,-0.0025009,0.056572,21.0262,-4.76418,0.2936,0.0,0.0
770,192.25,85.8106,89.4304,138.14,96.3221,93.2276,-0.00288229,0.054346,21.0286,-4.7842,0.292105,0.0,0.0
781,195,82.9087,86.3969,136.151,96.4036,92.6736,-0.00314303,0.0523574,21.0294,-4.7842,0.352986,0.0,0.0
792,197.75,81.5937,84.4033,139.486,96.4705,93.7595,-0.00333795,0.0508188,21.031,-4.75418,0.254978,0.0,0.0
803,200.5,80.3434,82.0235,139.243,96.5453,93.8646,-0.00319848,0.0492742,21.0315,-4.79421,0.251891,0.0,0.0
814,203.25,77.6055,79.6973,136.617,96.6324,93.0715,-0.00317764,0.0481309,21.0316,-4.75418,0.335858,0.0,0.0
825,206,76.6362,78.5678,139.06,96.7079,92.3684,-0.00334613,0.0472258,21.0317,-4.76418,0.410685,0.0,0.0
836,208.75,75.4517,76.4459,133.235,96.7815,93.1646,-0.0034778,0.046259,21.0317,-4.76418,0.340713,0.0,0.0
847,211.5,74.3811,74.7139,136.081,96.8472,93.1785,-0.0034957,0.0453394,21.0325,-4.77419,0.345448,0.0,0.0
858,214.25,73.4219,73.6404,137.539,96.8927,93.6884,-0.00355561,0.0446076,21.0336,-4.77419,0.300828,0.0,0.0
869,217,71.9356,71.8813,137.909,96.9446,93.8453,-0.00362404,0.0440993,21.0355,-4.80422,0.29065,0.0,0.0
880,219.75,71.2848,70.8669,139.513,97.0198,94.5283,-0.00362372,0.0436393,21.0344,-4.77419,0.232717,0.0,0.0
891,222.5,69.7314,69.2958,138.353,97.0704,93.2025,-0.00359976,0.0433366,21.0335,-4.76418,0.36374,0.0,0.0
902,225.25,68.6538,67.8866,138.872,97.1139,94.1362,-0.00376372,0.0427838,21.0343,-4.7842,0.27858,0.0,0.0
913,228,67.6736,66.7552,138.214,97.161,93.2878,-0.00399795,0.0423488,21.0351,-4.7842,0.363896,0.0,0.0
924,230.75,67.1282,66.0174,140.893,97.2034,93.6123,-0.00400268,0.0419737,21.0353,-4.7842,0.33673,0.0,0.0
935,233.5,66.3718,64.7941,141.546,97.2473,94.288,-0.00396656,0.041739,21.0354,-4.77419,0.276439,0.0,0.0
946,236.25,65.442,63.9183,140.954,97.2754,95.4064,-0.00396636,0.0413606,21.0348,-4.80422,0.173543,0.0,0.0
957,239,65.2295,63.1506,137.219,97.2904,94.5878,-0.00408932,0.0409697,21.0346,-4.80422,0.25201,0.0,0.0
968,241.75,64.2495,62.8399,138.779,97.2896,94.8246,-0.0040958,0.0406587,21.0351,-4.81423,0.229568,0.0,0.0
979,244.5,63.5052,61.4709,139.998,97.3047,94.1895,-0.00394115,0.0405523,21.036,-4.7842,0.291066,0.0,0.0
990,247.25,62.4001,61.1176,137.967,97.3039,94.2672,-0.0039876,0.0403177,21.0363,-4.80422,0.283621,0.0,0.0
1001,250,62.4112,60.2527,141.527,97.2999,94.983,-0.00417073,0.040102,21.0364,-4.79421,0.215586,0.0,0.0
1012,252.75,61.9532,59.3929,139.012,97.2667,95.0124,,0.0399478,,-4.80422,0.209765,0.0,0.0
1023,255.5,61.3086,59.0493,138.23,97.271,95.2175,,,,-4.82424,0.190872,0.0,0.0
1034,258.25,60.3967,58.5558,137.21,97.2837,95.3763,,,,-4.80422,0.177133,0.0,0.0
1045,261,59.5466,57.5289,139.734,97.2738,94.8238,,,,-4.7842,0.228186,0.0,0.0
1047,261.5,59.3967,57.3054,142.946,97.258,94.6307,,,,-4.79421,0.244971,0.0,0.0

File: ABS_Cone_HF75Scalar_220218_R1.csv
LABORATORY,FSRI
TEST IDENT,PlasticA_HF75_1
OPERATOR,Dow
MATERIAL,Plastic A
ORIENTATION,Horizontal
HEAT FLUX,75
SURF AREA,0.01
C FACTOR,0.0385692
SPEC HOLDER DIFF,300.81
SPECIMEN MASS,32.3
SCAN TIME,0.25
O2 DELAY TIME,11
CO DELAY TIME,11
CO2 DELAY TIME,8
FLOW FACTOR,1
SCAN COUNT,884
TIME TO IGN,12.25
END OF TEST SCAN,404
END OF TEST TIME,101
TEST STATUS,1
PRE TEST CMT,Dimensions: 100.19 x 100.15 x 3.00 mm
POST TEST CMT,Sample slightly expanded prior to ignition and touched the spark ignitor causing a spike in mass data. Did not appear to affect time to ignition.

File: ABS_Cone_HF75Scalar_220218_R2.csv
LABORATORY,FSRI
TEST IDENT,PlasticA_HF75_2
OPERATOR,Dow
MATERIAL,Plastic A
ORIENTATION,Horizontal
HEAT FLUX,75
SURF AREA,0.01
C FACTOR,0.0385692
SPEC HOLDER DIFF,300.82
SPECIMEN MASS,32.4
SCAN TIME,0.25
O2 DELAY TIME,11
CO DELAY TIME,11
CO2 DELAY TIME,8
FLOW FACTOR,1
SCAN COUNT,910
TIME TO IGN,12.75
END OF TEST SCAN,430
END OF TEST TIME,107.5
TEST STATUS,1
PRE TEST CMT,Dimensions: 99.83 x 100.09 x 3.06 mm

File: ABS_Cone_HF75Scalar_220218_R3.csv
LABORATORY,FSRI
TEST IDENT,PlasticA_HF75_3
OPERATOR,Dow
MATERIAL,Plastic A
ORIENTATION,Horizontal
HEAT FLUX,75
SURF AREA,0.01
C FACTOR,0.0385692
SPEC HOLDER DIFF,300
SPECIMEN MASS,32.1
SCAN TIME,0.25
O2 DELAY TIME,11
CO DELAY TIME,11
CO2 DELAY TIME,8
FLOW FACTOR,1
SCAN COUNT,879
TIME TO IGN,13
END OF TEST SCAN,399
END OF TEST TIME,99.75
TEST STATUS,1
PRE TEST CMT,Dimensions: 99.93 x 100.04 x 3.03 mm