Folder: fsri_materials_database/01_Data/ABS/Cone (part 5)

File: ABS_Cone_HF75Scan_220218_R3.csv
Names,Time,Stack TC,Smoke TC,Exh Press,Smoke Comp,Smoke Meas,CO Meter,CO2 Meter,O2 Meter,Sample Mass,Ext Coeff,Start Test,Flame Verif
Chan Gain,,500,500,1,1,1,1,1,1,1,1,1.0,1.0
Offset,,0,0,0.134285,0,0,0,0,0,0,0,0.0,0.0
Gain,,1,1,25.011,13.3843,12.7012,1,1,1,1.00088,1.02252,1.0,1.0
Units,sec,C,C,Pa,%,%,%,%,%,g,/m,,
Baseline,,49.7044,49.0704,142.465,100.966,92.9976,0.000335959,0.0526484,21.0011,-867.086,0.737534,,
9,2,45.2126,44.6208,141.559,100.811,93.3922,0.000664714,0.0652655,20.9796,31.0372,0.685597,0.0,0.0
18,4.25,45.1549,44.7723,146.134,100.809,93.262,0.000736194,0.0645191,20.9804,30.9971,0.698005,0.0,0.0
27,6.5,45.785,45.4959,143.02,100.793,92.7976,0.000700316,0.0631213,20.9832,31.0071,0.741285,0.0,0.0
36,8.75,45.4427,44.771,142.611,100.791,91.591,0.0006854,0.0620924,20.9871,30.9771,0.858534,0.0,0.0
45,11,45.8081,44.9214,146.716,100.777,91.301,0.00120049,0.0620074,20.9878,30.9471,0.8857,0.0,0.0
54,13.25,45.5003,45.4321,136.948,100.745,74.3776,0.00455804,0.0840609,20.9241,30.877,2.72163,0.0,1.0
63,15.5,46.4713,46.6891,126.069,100.759,48.0318,0.0123747,0.206999,20.6405,30.7269,6.64519,0.0,1.0
72,17.75,48.4802,49.9393,105.51,100.734,38.1373,0.0231782,0.439654,20.2855,30.2265,8.71197,0.0,1.0
81,20,52.5002,55.8963,105.57,100.713,37.5396,0.0345069,0.701004,19.8399,29.7761,8.8518,0.0,0.0
90,22.25,57.2438,62.538,111.561,100.708,32.2038,0.0447224,0.939619,19.4791,29.3057,10.2265,0.0,0.0
99,24.5,61.5717,69.0386,99.4355,100.705,31.3735,0.0545652,1.14272,19.1963,28.7952,10.4605,0.0,0.0
108,26.75,66.6766,76.9868,103.244,100.691,30.565,0.0646125,1.33842,18.8803,28.1346,10.6934,0.0,0.0
117,29,72.3626,84.7588,102.827,100.669,26.4563,0.0737407,1.52637,18.5661,27.5141,11.9863,0.0,0.0
126,31.25,77.9081,92.6768,97.7189,100.683,23.088,0.0817429,1.69074,18.3675,26.9336,13.209,0.0,0.0
135,33.5,83.1263,100.711,90.3563,100.658,23.5857,0.0906757,1.80961,18.2174,26.283,13.0155,0.0,0.0
144,35.75,88.7232,108.933,91.1952,100.633,21.4786,0.0979141,1.92514,18.0352,25.5123,13.8527,0.0,0.0
153,38,93.6945,116.193,88.8496,100.628,22.3786,0.103861,2.04089,17.8782,24.7917,13.484,0.0,0.0
162,40.25,99.165,124.131,92.4935,100.625,20.7049,0.110869,2.14073,17.7253,24.0611,14.181,0.0,0.0
171,42.5,104.508,131.841,81.903,100.587,20.1448,0.117994,2.22947,17.5734,23.4005,14.4236,0.0,0.0
180,44.75,109.305,138.972,98.5943,100.589,21.8682,0.126152,2.33666,17.4107,22.4697,13.6875,0.0,0.0
189,47,113.959,145.231,86.5216,100.601,19.2758,0.137047,2.46952,17.2197,21.709,14.8204,0.0,0.0
198,49.25,119.99,153.597,90.1235,100.58,17.5669,0.149096,2.61312,16.9868,20.8683,15.6512,0.0,0.0
207,51.5,125.361,161.663,81.0909,100.575,19.4778,0.15951,2.72915,16.8127,19.9475,14.7245,0.0,0.0
216,53.75,130.359,168.903,80.3421,100.57,15.2303,0.173599,2.85726,16.6438,19.0066,16.9305,0.0,0.0
225,56,135.629,177.399,89.764,100.571,14.7861,0.191976,3.04478,16.3737,18.0058,17.1961,0.0,0.0
234,58.25,141.443,186.527,80.7375,100.541,16.8176,0.209251,3.26331,16.0787,17.185,16.0387,0.0,0.0
243,60.5,147.895,196.705,104.582,100.536,15.0687,0.228053,3.51048,15.6508,16.1742,17.0231,0.0,0.0
252,62.75,154.399,206.759,69.9303,100.533,15.1834,0.243284,3.75969,15.2891,14.873,16.9548,0.0,0.0
261,65,160.231,216.569,73.8337,100.522,17.499,0.256189,3.99116,14.9707,13.8721,15.6807,0.0,0.0
270,67.25,166.078,226.116,75.3641,100.515,12.4837,0.273567,4.19568,14.6769,12.7512,18.7092,0.0,0.0
279,69.5,171.954,234.991,69.8181,100.512,14.0008,0.293331,4.46407,14.2649,11.4901,17.6803,0.0,0.0
288,71.75,178.19,246.187,59.6391,100.514,13.8392,0.307162,4.79025,13.7852,10.1789,17.7846,0.0,0.0
297,74,185.224,257.792,56.5318,100.507,16.406,0.319342,5.15915,13.3194,9.00789,16.258,0.0,0.0
306,76.25,191.668,269.773,85.0554,100.507,19.6417,0.333314,5.5699,12.7759,7.90692,14.6433,0.0,0.0
315,78.5,199.373,283.198,66.4689,100.508,13.3694,0.342439,5.85936,12.5016,6.56575,18.0938,0.0,0.0
324,80.75,204.913,291.479,59.5231,100.516,21.6569,0.344861,5.90886,12.3097,5.09446,13.7681,0.0,0.0
333,83,210.611,301.911,54.3755,100.499,16.7773,0.339638,6.0577,12.1144,4.02352,16.0564,0.0,0.0
342,85.25,216.977,311.902,51.7369,100.517,14.7609,0.328006,6.14014,12.0672,2.98261,17.2066,0.0,0.0
351,87.5,220.687,317.875,71.7652,100.511,13.219,0.305396,5.90602,12.3817,1.81159,18.1956,0.0,0.0
360,89.75,222.7,318.741,71.4095,100.506,15.1753,0.267387,5.31188,13.1667,0.980859,16.9573,0.0,0.0
369,92,223.485,316.875,86.5041,100.517,21.5526,0.215562,4.49617,14.511,0.380333,13.8115,0.0,0.0
378,94.25,221.217,310.493,105.055,100.532,35.0205,0.159261,3.55946,15.8542,-0.0600526,9.45867,0.0,0.0
387,96.5,215.95,299.484,118.719,100.545,53.425,0.105303,2.59867,17.2247,-0.200175,5.67163,0.0,0.0
396,98.75,208.05,285.389,129.334,100.545,89.3397,0.0659012,1.71473,18.6475,-0.24021,1.05981,0.0,0.0
405,101,199.502,270.505,125.622,100.54,89.5587,0.04182,1.0632,19.4611,-0.270237,1.03741,0.0,0.0
414,103.25,191.751,256.896,128.387,100.555,89.6312,0.0275017,0.685248,20.0492,-0.280245,1.03154,0.0,0.0
423,105.5,184.745,245.085,130.671,100.558,89.5529,0.0195561,0.452978,20.4209,-0.300263,1.03959,0.0,0.0
432,107.75,177.903,233.443,132.326,100.57,89.6991,0.0153728,0.32328,20.6165,-0.330289,1.02606,0.0,0.0
441,110,172.006,223.018,133.474,100.576,89.5529,0.0131375,0.252741,20.7246,-0.360315,1.0412,0.0,0.0
450,112.25,166.186,213.46,128.728,100.6,89.6242,0.0119731,0.20981,20.7908,-0.360315,1.03624,0.0,0.0
459,114.5,160.781,204.239,131.664,100.604,89.6456,0.0113855,0.181385,20.8302,-0.32028,1.03444,0.0,0.0
468,116.75,155.815,195.878,129.073,100.6,89.8029,0.0110143,0.162006,20.8585,-0.380333,1.01834,0.0,0.0
477,119,150.893,188.427,132.247,100.618,89.3766,0.0105279,0.146157,20.8801,-0.420368,1.06267,0.0,0.0
486,121.25,146.447,180.994,130.78,100.637,89.5254,0.00988415,0.131523,20.8963,-0.400351,1.04938,0.0,0.0
495,123.5,142.613,173.702,135.615,100.622,89.4165,0.00913194,0.119654,20.9083,-0.440386,1.05895,0.0,0.0
504,125.75,138.141,167.695,133.829,100.633,89.6646,0.00806981,0.10943,20.9186,-0.440386,1.03508,0.0,0.0
513,128,134.734,162.068,133.371,100.662,89.5142,0.00695707,0.0997082,20.9296,-0.440386,1.05276,0.0,0.0
522,130.25,131.492,156.07,134.611,100.666,89.7932,0.00584926,0.09215,20.9403,-0.410359,1.02521,0.0,0.0
531,132.5,127.629,150.836,132.847,100.681,90.1731,0.0049066,0.0861336,20.9486,-0.420368,0.988652,0.0,0.0
540,134.75,125.208,146.072,130.82,100.69,89.4576,0.00428259,0.0812136,20.9544,-0.430377,1.06095,0.0,0.0
549,137,121.215,141.348,130.957,100.705,89.3936,0.00388879,0.0776904,20.9591,-0.430377,1.06867,0.0,0.0
558,139.25,119.004,137.221,133.557,100.731,89.8909,0.0035055,0.0746185,20.9638,-0.430377,1.0212,0.0,0.0
567,141.5,116.16,132.998,133.616,100.723,89.0847,0.00314812,0.0721491,20.9672,-0.460403,1.10132,0.0,0.0
576,143.75,114.288,130.083,133.678,100.749,89.3611,0.00275369,0.0701549,20.9698,-0.430377,1.07583,0.0,0.0
585,146,112.002,126.399,132.609,100.77,89.2952,0.00237214,0.0684358,20.9731,-0.460403,1.08437,0.0,0.0
594,148.25,109.432,123.045,133.875,100.783,89.6649,0.00219785,0.0671012,20.9719,-0.470412,1.0484,0.0,0.0
603,150.5,107.559,119.59,132.743,100.814,89.3812,0.00224703,0.0661212,20.9709,-0.460403,1.07962,0.0,0.0
612,152.75,105.346,117.071,130.531,100.849,89.901,0.00221307,0.065067,20.9717,-0.470412,1.0307,0.0,0.0
621,155,103.861,114.049,135.556,100.859,89.9173,0.00196562,0.0640293,20.9729,-0.470412,1.02999,0.0,0.0
630,157.25,101.607,111.238,134.622,100.889,89.6828,0.0017058,0.0632841,20.974,-0.460403,1.0561,0.0,0.0
639,159.5,100.098,109.029,130.294,100.929,89.6351,0.00142894,0.0626651,20.9746,-0.490429,1.06442,0.0,0.0
648,161.75,98.3202,106.85,132.189,100.891,90.0859,0.00127252,0.0619015,20.9754,-0.480421,1.01602,0.0,0.0
657,164,96.8932,104.474,133.523,100.972,89.8541,0.00123623,0.0612021,20.9766,-0.460403,1.04631,0.0,0.0
666,166.25,95.1088,102.233,130.601,100.985,89.3731,0.00121056,0.0607614,20.976,-0.480421,1.09565,0.0,0.0
675,168.5,94.3021,99.8818,140.031,101.011,89.4231,0.00116044,0.0603089,20.976,-0.480421,1.09292,0.0,0.0
684,170.75,92.6723,98.6981,136.673,101.023,89.387,0.00115396,0.0599086,20.9777,-0.500438,1.09759,0.0,0.0
693,173,90.5804,95.7779,137.063,101.044,90.439,0.00112665,0.0596417,20.9785,-0.490429,0.99457,0.0,0.0
702,175.25,90.4281,94.8029,133.632,101.057,90.1909,0.000974968,0.0591712,20.98,-0.500438,1.02033,0.0,0.0
711,177.5,89.2066,93.3481,132.265,101.089,90.0987,0.000739213,0.0588857,20.9808,-0.480421,1.03237,0.0,0.0
720,179.75,87.9248,91.9729,134.933,101.11,90.1064,0.000610739,0.058551,20.9811,-0.480421,1.03345,0.0,0.0
729,182,86.8261,90.7991,134.074,101.135,90.3902,0.000609178,0.0582499,20.9826,-0.440386,1.00746,0.0,0.0
738,184.25,85.1181,88.5103,141.89,101.166,89.5208,0.000636913,0.0580701,20.9833,-0.430377,1.0969,0.0,0.0
747,186.5,84.7626,87.6481,132.785,101.179,90.0781,0.000765944,0.0579982,20.9835,-0.510447,1.04235,0.0,0.0
756,188.75,84.3681,86.8727,131.782,101.205,90.0235,0.000855804,0.0578696,20.9836,-0.410359,1.05015,0.0,0.0
765,191,83.2614,85.1233,132.193,101.217,90.1328,0.0008675,0.05783,20.9837,-0.490429,1.04028,0.0,0.0
774,193.25,82.2013,84.3212,136.94,101.258,89.9006,0.000916906,0.0578513,20.9826,-0.480421,1.06707,0.0,0.0
783,195.5,81.7485,83.4292,132.846,101.239,90.2041,0.00104225,0.0579649,20.9816,-0.450394,1.03514,0.0,0.0
792,197.75,80.8024,82.4284,138.576,101.246,90.1615,0.00103915,0.0580379,20.9813,-0.490429,1.04003,0.0,0.0
801,200,79.9521,81.8098,135.087,101.264,89.6498,0.000877466,0.0581642,20.9811,-0.500438,1.09267,0.0,0.0
810,202.25,79.3617,80.4327,135.548,101.264,91.0216,0.000827616,0.0582083,20.9811,-0.480421,0.956426,0.0,0.0
819,204.5,78.2325,79.8197,132.488,101.26,90.558,0.000910354,0.0580803,20.981,-0.490429,1.00194,0.0,0.0
828,206.75,78.2384,78.6476,134.546,101.261,90.5157,0.000951996,0.0578964,20.9825,-0.480421,1.00619,0.0,0.0
837,209,77.0031,78.1823,134.397,101.274,90.7057,,0.0577434,,-0.470412,0.988515,0.0,0.0
846,211.25,76.9814,77.2762,135.296,101.273,90.2882,,0.0575417,,-0.500438,1.02985,0.0,0.0
855,213.5,76.7161,76.3817,135.003,101.27,90.1653,,,,-0.480421,1.04174,0.0,0.0
864,215.75,75.5201,76.2665,136.613,101.299,90.4301,,,,-0.490429,1.01805,0.0,0.0
873,218,75.2091,75.3821,134.627,101.278,90.5274,,,,-0.470412,1.00652,0.0,0.0
879,219.5,75.1338,74.8302,136.759,101.278,90.6425,,,,-0.500438,0.995126,0.0,0.0

File: ABS_HRRPUA_25.csv
Time after Ignition,ABS_R1,ABS_R2,ABS_R3,Mean,Std. Dev.
0.0,4.5,10.8,5.7,7.0,3.3
0.75,15.0,31.9,12.9,19.9,10.4
1.5,45.0,59.5,33.7,46.1,12.9
2.25,82.9,91.9,67.0,80.6,12.6
3.0,119.4,126.1,101.9,115.8,12.5
3.75,157.1,158.8,142.4,152.8,9.0
4.5,187.5,201.3,187.3,192.0,8.0
5.25,234.5,234.4,230.0,233.0,2.6
6.0,280.8,283.6,259.6,274.7,13.1
6.75,317.2,323.1,309.1,316.5,7.0
7.5,371.7,361.3,332.6,355.2,20.2
8.25,397.4,390.5,371.9,386.6,13.2
9.0,442.5,436.7,397.8,425.7,24.3
9.75,471.6,447.4,441.0,453.3,16.1
10.5,500.3,483.1,464.3,482.6,18.0
11.25,513.4,493.6,478.6,495.2,17.5
12.0,540.5,516.4,487.9,515.0,26.4
12.75,560.7,531.6,516.2,536.2,22.6
13.5,540.8,532.9,551.5,541.7,9.3
14.25,572.7,546.0,543.8,554.2,16.1
15.0,567.1,550.8,539.9,552.6,13.7
15.75,591.7,550.4,544.3,562.2,25.7
16.5,587.8,584.9,569.6,580.8,9.8
17.25,584.2,569.1,566.9,573.4,9.4
18.0,604.2,578.7,586.6,589.8,13.0
18.75,617.8,579.8,588.7,595.5,19.9
19.5,620.0,580.6,584.9,595.2,21.6
20.25,591.2,580.5,606.1,592.6,12.9
21.0,599.0,604.6,588.6,597.4,8.1
21.75,633.8,594.0,609.0,612.3,20.1
22.5,612.7,590.8,603.9,602.5,11.0
23.25,599.9,613.6,607.0,606.8,6.8
24.0,628.1,611.6,599.5,613.1,14.4
24.75,636.4,593.1,624.3,617.9,22.4
25.5,637.8,594.4,617.1,616.4,21.7
26.25,613.5,608.9,602.2,608.2,5.7
27.0,615.0,616.8,625.8,619.2,5.7
27.75,630.0,606.7,649.7,628.8,21.5
28.5,621.2,607.2,630.2,619.5,11.6
29.25,626.1,598.2,630.8,618.3,17.6
30.0,613.8,591.9,609.0,604.9,11.5
30.75,628.0,608.0,607.6,614.5,11.7
31.5,616.0,609.5,635.7,620.4,13.7
32.25,620.0,607.1,622.0,616.3,8.1
33.0,630.2,636.8,614.5,627.2,11.5
33.75,627.2,609.1,621.1,619.2,9.2
34.5,621.8,619.3,618.5,619.9,1.7
35.25,614.3,614.3,623.9,617.5,5.6
36.0,633.1,601.8,605.8,613.6,17.0
36.75,610.4,626.9,623.4,620.2,8.7
37.5,592.8,607.6,619.8,606.7,13.5
38.25,612.8,607.5,614.5,611.6,3.7
39.0,617.2,599.5,621.4,612.7,11.6
39.75,625.3,603.5,631.2,620.0,14.6
40.5,613.4,602.1,611.5,609.0,6.0
41.25,607.1,601.6,611.7,606.8,5.1
42.0,618.8,617.9,618.9,618.6,0.5
42.75,605.4,601.6,612.9,606.6,5.8
43.5,623.8,628.7,610.1,620.9,9.7
44.25,618.8,594.6,614.1,609.1,12.8
45.0,607.9,621.1,644.4,624.4,18.5
45.75,607.2,607.0,617.1,610.4,5.8
46.5,625.7,611.1,645.8,627.5,17.4
47.25,641.9,626.7,623.2,630.6,10.0
48.0,622.4,641.1,661.0,641.5,19.3
48.75,625.7,635.5,647.7,636.3,11.0
49.5,612.4,625.9,625.6,621.3,7.7
50.25,624.3,625.4,683.0,644.2,33.6
51.0,659.0,646.4,616.2,640.6,22.0
51.75,635.8,632.9,645.3,638.0,6.5
52.5,644.9,641.4,629.0,638.4,8.4
53.25,641.0,648.2,639.3,642.8,4.7
54.0,647.5,615.6,653.7,638.9,20.5
54.75,654.4,643.2,657.4,651.6,7.5
55.5,650.6,639.2,667.8,652.5,14.4
56.25,671.3,644.3,656.9,657.5,13.5
57.0,660.3,656.4,671.9,662.8,8.1
57.75,646.1,673.2,656.5,658.6,13.7
58.5,677.5,651.8,662.8,664.0,12.9
59.25,653.4,641.2,672.8,655.8,16.0
60.0,639.4,655.2,685.3,660.0,23.3
60.75,642.2,663.8,685.6,663.8,21.7
61.5,657.8,670.3,658.9,662.3,7.0
62.25,647.1,680.4,662.3,663.3,16.7
63.0,667.4,692.4,671.0,676.9,13.5
63.75,657.8,672.5,687.6,672.6,14.9
64.5,664.0,673.7,688.1,675.3,12.1
65.25,663.0,691.5,710.3,688.3,23.8
66.0,672.6,676.7,684.2,677.8,5.9
66.75,662.9,680.5,680.1,674.5,10.0
67.5,651.0,685.5,712.0,682.8,30.6
68.25,657.5,693.2,700.3,683.7,23.0
69.0,646.9,679.4,689.5,671.9,22.2
69.75,676.2,705.8,692.2,691.4,14.8
70.5,666.3,708.2,674.8,683.1,22.1
71.25,689.0,692.3,716.6,699.3,15.1
72.0,695.2,695.3,681.7,690.7,7.8
72.75,688.2,690.4,704.4,694.3,8.8
73.5,683.2,687.2,724.9,698.4,23.0
74.25,696.4,707.0,717.0,706.8,10.3
75.0,701.2,677.7,709.5,696.2,16.5
75.75,718.2,708.0,742.1,722.8,17.5
76.5,693.3,703.1,720.7,705.7,13.9
77.25,707.4,697.5,712.2,705.7,7.5
78.0,723.2,716.6,733.3,724.4,8.4
78.75,706.2,722.4,741.9,723.5,17.9
79.5,720.5,719.1,737.1,725.5,10.0
80.25,721.9,729.7,745.0,732.2,11.7
81.0,707.9,700.5,717.7,708.7,8.7
81.75,715.5,733.3,754.1,734.3,19.3
82.5,705.7,732.8,734.9,724.5,16.3
83.25,744.5,698.4,745.3,729.4,26.9
84.0,725.0,750.3,773.5,749.6,24.2
84.75,751.5,727.0,780.3,752.9,26.7
85.5,732.4,768.2,753.9,751.5,18.0
86.25,728.0,773.9,780.1,760.7,28.5
87.0,704.6,752.6,770.5,742.5,34.1
87.75,719.9,769.3,800.3,763.2,40.6
88.5,771.4,742.1,795.9,769.8,27.0
89.25,762.2,769.2,791.7,774.3,15.4
90.0,750.6,793.5,781.0,775.0,22.1
90.75,776.5,790.8,796.2,787.9,10.2
91.5,754.6,769.2,812.7,778.8,30.2
92.25,769.6,767.7,785.1,774.1,9.5
93.0,759.5,800.6,805.7,788.6,25.3
93.75,769.5,792.8,771.7,778.0,12.9
94.5,799.6,808.6,829.9,812.7,15.6
95.25,768.7,808.0,838.7,805.1,35.1
96.0,814.6,825.0,801.8,813.8,11.6
96.75,784.0,847.0,837.1,822.7,33.9
97.5,791.9,866.7,830.1,829.6,37.4
98.25,832.9,830.9,825.3,829.7,3.9
99.0,813.9,831.1,833.1,826.0,10.5
99.75,818.0,847.3,839.2,834.9,15.1
100.5,813.7,837.0,843.1,831.3,15.5
101.25,816.5,826.3,876.3,839.7,32.1
102.0,814.5,821.9,871.3,835.9,30.8
102.75,829.7,809.1,885.1,841.3,39.3
103.5,794.3,868.3,852.2,838.2,38.9
104.25,844.6,873.4,855.4,857.8,14.6
105.0,824.2,856.0,869.6,849.9,23.3
105.75,806.4,817.6,853.8,825.9,24.8
106.5,885.8,833.2,843.6,854.2,27.8
107.25,833.9,829.4,869.9,844.4,22.2
108.0,845.7,846.2,901.4,864.4,32.0
108.75,828.0,869.6,868.2,855.3,23.6
109.5,902.0,884.7,939.1,908.6,27.8
110.25,888.6,863.7,886.6,879.6,13.8
111.0,887.2,864.3,865.1,872.2,13.0
111.75,850.8,874.5,910.5,878.6,30.1
112.5,851.8,834.8,882.7,856.4,24.3
113.25,852.7,854.5,876.3,861.1,13.1
114.0,864.2,873.3,901.1,879.6,19.2
114.75,876.1,864.0,879.1,873.1,8.0
115.5,880.9,887.9,888.3,885.7,4.2
116.25,892.0,892.4,910.8,898.4,10.7
117.0,864.4,873.2,852.2,863.2,10.6
117.75,904.9,849.8,897.1,884.0,29.8
118.5,846.9,873.5,895.8,872.1,24.5
119.25,844.2,899.8,875.8,873.3,27.9
120.0,881.7,880.2,868.5,876.8,7.2
120.75,934.4,895.6,889.6,906.6,24.3
121.5,914.7,901.8,914.5,910.3,7.4
122.25,863.3,889.6,896.0,883.0,17.3
123.0,918.2,882.1,918.4,906.2,20.9
123.75,879.4,848.1,895.6,874.3,24.1
124.5,896.3,934.4,897.2,909.3,21.8
125.25,892.3,892.3,910.0,898.2,10.2
126.0,860.7,841.2,894.6,865.5,27.0
126.75,885.0,883.4,935.3,901.3,29.5
127.5,893.1,880.2,907.2,893.5,13.5
128.25,898.4,887.6,900.1,895.3,6.8
129.0,857.5,856.4,890.1,868.0,19.2
129.75,880.7,861.4,891.9,878.0,15.4
130.5,899.3,912.2,861.2,890.9,26.5
131.25,867.0,905.6,866.4,879.7,22.5
132.0,856.2,878.4,847.5,860.7,15.9
132.75,877.6,871.9,877.3,875.6,3.2
133.5,872.0,863.8,884.9,873.6,10.7
134.25,831.8,882.1,866.6,860.2,25.7
135.0,862.7,868.8,905.9,879.2,23.4
135.75,871.8,848.7,852.4,857.6,12.4
136.5,873.8,856.9,844.5,858.4,14.7
137.25,818.0,816.9,841.7,825.6,14.0
138.0,852.0,854.9,833.8,846.9,11.5
138.75,837.1,850.0,874.4,853.8,18.9
139.5,834.7,847.5,830.5,837.6,8.8
140.25,803.0,821.7,832.0,818.9,14.7
141.0,821.1,797.9,839.7,819.5,20.9
141.75,807.5,773.0,798.5,793.0,17.9
142.5,813.7,829.6,786.6,809.9,21.7
143.25,796.6,792.4,786.8,792.0,4.9
144.0,797.1,784.9,792.1,791.4,6.2
144.75,806.0,795.1,771.8,790.9,17.5
145.5,772.1,791.1,782.9,782.0,9.5
146.25,765.6,774.3,742.7,760.9,16.3
147.0,757.8,737.8,716.0,737.2,20.9
147.75,756.3,761.3,742.6,753.4,9.7
148.5,728.2,774.5,742.4,748.4,23.7
149.25,731.8,717.1,714.0,721.0,9.5
150.0,727.4,723.2,693.2,714.6,18.7
150.75,733.6,702.3,679.4,705.1,27.2
151.5,721.8,683.4,673.4,692.9,25.5
152.25,723.0,676.9,651.3,683.7,36.3
153.0,706.4,656.9,646.3,669.9,32.1
153.75,666.4,664.4,635.9,655.6,17.1
154.5,650.8,665.7,621.7,646.1,22.4
155.25,671.9,647.8,612.9,644.2,29.7
156.0,640.2,626.3,586.1,617.6,28.1
156.75,638.5,627.0,582.6,616.0,29.5
157.5,607.9,585.1,583.1,592.0,13.8
158.25,606.6,560.6,562.6,576.6,26.0
159.0,585.5,573.9,546.3,568.6,20.2
159.75,579.9,564.2,530.4,558.2,25.3
160.5,558.4,548.6,511.0,539.3,25.0
161.25,554.4,520.6,522.6,532.5,19.0
162.0,542.0,514.0,514.1,523.4,16.2
162.75,515.2,504.9,496.1,505.4,9.5
163.5,489.7,487.0,485.0,487.2,2.3
164.25,470.7,470.8,459.6,467.0,6.4
165.0,443.6,446.2,460.7,450.2,9.2
165.75,416.3,423.6,439.8,426.6,12.1
166.5,379.8,403.0,430.7,404.5,25.5
167.25,343.4,373.7,407.3,374.8,32.0
168.0,302.2,330.7,389.7,340.9,44.6
168.75,264.6,293.9,364.7,307.7,51.5
169.5,235.2,258.3,339.4,277.6,54.7
170.25,201.7,229.6,306.6,246.0,54.4
171.0,173.0,204.4,281.7,219.7,56.0
171.75,149.3,177.3,254.4,193.7,54.5
172.5,128.8,151.9,233.7,171.5,55.1
173.25,115.3,131.3,214.5,153.7,53.3
174.0,99.3,111.7,191.7,134.2,50.1
174.75,83.6,96.6,,90.1,9.2
175.0,79.8,91.8,,85.8,8.5