Folder: fsri_materials_database/01_Data/ABS/MCC

Note: README.md
# Materials and Products Database
### Repository of materials and products properties and fire test data to improve fire modeling and fire investigation.

This project was supported in part by Award No. 2019-DU-BX-0018, awarded by the National Institute of Justice, Office of Justice Programs, U.S. Department of Justice. The opinions, findings, and conclusions or recommendations expressed in this publication / program / exhibition are those of the author(s) and do not necessarily reflect those of the Department of Justice.

***
***

__Cite this database:__ "McKinnon, M., Weinschenk, C., Dow, N., DiDomizio, M., and Madrzykowski, D. Materials and Products Database (Version 1.0.0), Fire Safety Research Institute, UL Research Institutes. Columbia, MD 21045, 2023."

__Cite the Technical Reference Guide:__ "McKinnon, M., Weinschenk, C., and Madrzykowski, D. Materials and Products Database - Technical Reference Guide, Fire Safety Research Institute, UL Research Institutes. Columbia, MD 21045, 2023."

__Cite the User Guide:__ "McKinnon, M., and Weinschenk, C. Materials and Products Database - User Guide, Fire Safety Research Institute, UL Research Institutes. Columbia, MD 21045, 2023."

***
***

## Database Structure

## 01_Data/
Raw data generated from each apparatus are included here in plain-text format. The data is organized first by material, next by the short name of test apparatus used, and where applicable additional filtering by test settings.

### Test Apparatus and Data File Structure
- __Cone Calorimeter__ (Cone)
    + Data file structure includes the material, the short name for the apparatus, heat flux setting and scan/scalar, date of test, and replicate number. Scan is for the raw output data and scalar is for the initial conditions and high-level test parameters. 
        * Example: __MDF_Cone_HF25scalar_210323_R1__ stands for the first replicate of scalar data generated from a medium density fiber board test in cone calorimeter exposed to 25 kW/m<sup>2</sup> on March 23, 2021.
    + A _Cone_Notes.csv_ is generated for each material from the __plot_Cone_data.py__ script. For materials whose experiments deviated from typical behavior relevant pictures are included in the respective material directory.
- __Fourier Transform Infrared Spectrometer__ (FTIR)
    + The FTIR directory contains subdirectories for the Attenuated Total Reflectance method (ATR) and the Integrating Sphere (IS)
    + Data file structure for the ATR experiment files includes the material, the abbreviated name for the apparatus, date of test, and replicate number. 
        * Example: __MDF_ATR_210323_R5__ stands for the fifth replicate of data collected with the ATR accessory conducted on June 8, 2021.
    + Data file structure for the IS experiment files includes the material, the abbreviated name for the apparatus, the measurand, whether the test is a sample measurement or standard reference, date of test, and replicate number.
        * Example: __OSB_IS_REFLECT_MEAS_2

File: ABS_MCC_30K_min_211018_R1.txt
Sample ID:	C:\MCC\MCC Cal\Test\PlasticA_MCC_30K_min_211018_R1.txt
Sample Weight (mg):	4.78
Heating Rate (C/s):	0.5
Combustor Temp (C):	900
N2 Flow Rate (cc/min):	80
O2 Flow Rate (cc/min):	20
Calibration File:	C:\MCC\MCC Cal\Coeff1 JN10440_30_210304.txt.txt
T Correction Coefficients:	0	1.024463	0
Time Shift (s):	14
*
Time (s)	Temperature (C)	N2 flow rate (cc/min)	O2 flow rate (cc/min)	Flow Rate (cc/min)	Oxygen (%)	HRR (W/g)	Heating rate (C/s)
0.000	106.377	80.000	19.995	102.962	20.135	-0.225	-0.026
8.000	106.427	80.000	19.995	102.962	20.129	0.147	0.019
16.001	106.419	80.001	19.994	102.975	20.122	0.643	0.052
24.000	106.656	80.001	19.995	103.081	20.109	1.474	0.041
32.000	107.224	80.000	19.993	103.108	20.097	2.278	0.093
40.000	108.255	80.001	19.995	103.148	20.095	2.452	0.188
48.000	109.728	79.999	19.994	103.180	20.091	2.697	0.210
56.001	111.549	80.000	19.995	103.187	20.090	2.809	0.249
64.001	113.715	80.002	19.996	103.197	20.094	2.489	0.272
72.000	116.123	80.000	19.995	103.177	20.091	2.697	0.342
80.000	118.757	80.000	19.997	103.240	20.088	2.899	0.344
88.000	121.628	80.001	19.993	103.213	20.086	3.038	0.358
96.000	124.727	80.005	19.995	103.236	20.088	2.900	0.394
104.000	128.028	80.000	19.994	103.208	20.079	3.535	0.412
112.001	131.469	80.002	19.994	103.235	20.083	3.266	0.430
120.001	135.056	80.002	19.996	103.232	20.087	2.968	0.440
128.000	138.771	80.001	19.994	103.232	20.076	3.718	0.459
136.000	142.580	80.000	19.995	103.234	20.079	3.496	0.459
144.000	146.529	80.001	19.995	103.235	20.084	3.170	0.464
152.000	150.507	80.003	19.994	103.209	20.079	3.537	0.485
160.000	154.459	80.000	19.997	103.189	20.085	3.117	0.490
168.000	158.430	80.001	19.996	103.194	20.082	3.304	0.497
176.000	162.467	80.004	19.995	103.194	20.078	3.590	0.486
184.000	166.501	80.002	19.995	103.193	20.083	3.247	0.479
192.000	170.535	80.000	19.994	103.179	20.082	3.341	0.506
200.000	174.564	80.002	19.994	103.159	20.075	3.790	0.506
208.000	178.579	80.002	19.995	103.184	20.081	3.418	0.476
216.000	182.542	80.001	19.994	103.185	20.082	3.331	0.522
224.000	186.575	80.001	19.995	103.157	20.082	3.337	0.502
232.000	190.527	80.002	19.995	103.166	20.084	3.206	0.498
240.000	194.535	80.002	19.995	103.150	20.079	3.527	0.504
248.000	198.500	80.002	19.995	103.156	20.082	3.328	0.514
256.000	202.449	80.002	19.995	103.155	20.078	3.606	0.489
264.000	206.319	80.002	19.995	103.157	20.081	3.396	0.451
272.001	210.339	80.000	19.995	103.146	20.080	3.488	0.506
280.000	214.281	80.001	19.994	103.160	20.077	3.628	0.523
288.000	218.299	80.001	19.995	103.153	20.073	3.926	0.545
296.001	222.194	80.001	19.996	103.130	20.074	3.882	0.505
304.000	226.166	80.001	19.995	103.131	20.072	3.984	0.495
312.000	230.279	80.002	19.994	103.149	20.071	4.053	0.541
320.000	234.254	80.004	19.993	103.130	20.072	3.983	0.477
328.000	238.263	80.000	19.994	103.121	20.059	4.869	0.525
336.000	242.215	80.002	19.994	103.120	20.066	4.395	0.501
344.000	246.209	80.004	19.995	103.120	20.058	4.938	0.508
352.000	250.304	80.001	19.994	103.152	20.057	5.000	0.539
360.000	254.307	80.000	19.995	103.148	20.057	5.008	0.463
368.000	258.275	80.002	19.994	103.120	20.056	5.048	0.495
376.000	262.273	80.002	19.995	103.118	20.058	4.938	0.523
384.000	266.285	80.001	19.994	103.121	20.054	5.215	0.502
392.000	270.347	80.002	19.994	103.136	20.059	4.896	0.502
400.000	274.354	80.002	19.995	103.115	20.063	4.592	0.542
408.000	278.340	80.003	19.993	103.118	20.060	4.809	0.478
416.000	282.393	80.001	19.995	103.124	20.068	4.277	0.494
424.000	286.443	80.004	19.995	103.108	20.068	4.235	0.531
432.000	290.446	80.003	19.995	103.111	20.071	4.034	0.534
440.000	294.485	80.001	19.995	103.110	20.073	3.922	0.500
448.000	298.452	80.000	19.995	103.111	20.070	4.104	0.498
456.000	302.464	79.999	19.996	103.099	20.070	4.157	0.487
464.000	306.457	80.000	19.996	103.093	20.073	3.929	0.503
472.000	310.475	80.001	19.995	103.112	20.066	4.386	0.476
480.000	314.578	80.000	19.993	103.102	20.064	4.512	0.498
488.000	318.580	80.002	19.997	103.111	20.057	5.003	0.518
496.000	322.553	80.001	19.994	103.084	20.054	5.189	0.493
504.000	326.620	80.004	19.994	103.091	20.046	5.774	0.477
512.000	330.625	80.002	19.994	103.099	20.037	6.360	0.500
520.000	334.699	80.001	19.996	103.089	20.023	7.307	0.511
528.000	338.710	80.000	19.994	103.096	20.011	8.082	0.501
536.000	342.745	80.001	19.994	103.086	20.000	8.816	0.488
544.000	346.750	80.001	19.995	103.085	19.979	10.265	0.508
552.000	350.846	79.999	19.997	103.084	19.953	11.979	0.476
560.000	354.965	80.002	19.995	103.079	19.924	13.931	0.532
568.000	359.008	80.001	19.995	103.080	19.890	16.209	0.508
576.000	363.084	80.001	19.994	103.087	19.847	19.113	0.504
584.000	367.168	80.004	19.995	103.095	19.802	22.170	0.549
592.000	371.206	80.004	19.993	103.092	19.741	26.280	0.512
600.000	375.325	80.002	19.995	103.096	19.669	31.108	0.524
608.000	379.360	80.001	19.995	103.089	19.580	37.125	0.507
616.000	383.405	80.002	19.996	103.090	19.488	43.306	0.505
624.000	387.410	80.001	19.994	103.099	19.377	50.794	0.492
632.000	391.440	80.000	19.994	103.120	19.240	59.999	0.519
640.000	395.515	80.001	19.994	103.128	19.073	71.230	0.499
648.000	399.532	80.003	19.996	103.149	18.871	84.919	0.544
656.000	403.471	80.003	19.996	103.159	18.612	102.349	0.497
664.000	407.434	80.002	19.995	103.187	18.295	123.691	0.499
672.000	411.378	80.003	19.994	103.198	17.928	148.489	0.481
680.000	415.270	80.001	19.994	103.209	17.507	176.914	0.497
688.000	419.231	80.002	19.995	103.273	17.023	209.572	0.478
696.000	423.194	80.001	19.994	103.257	16.533	242.673	0.456
704.000	427.218	80.000	19.994	103.310	16.108	271.301	0.489
712.000	431.283	80.001	19.995	103.322	15.808	291.601	0.516
720.000	435.369	80.001	19.996	103.327	15.657	301.854	0.509
728.000	439.466	80.005	19.995	103.329	15.694	299.326	0.500
736.000	443.640	80.002	19.994	103.334	15.917	284.356	0.509
744.000	447.865	80.002	19.996	103.372	16.193	265.275	0.555
752.000	452.045	80.004	19.995	103.250	16.380	252.841	0.517
760.000	456.465	80.003	19.994	103.160	16.987	211.861	0.570
768.000	460.762	80.001	19.995	103.269	17.543	174.321	0.536
776.000	465.063	80.001	19.995	103.180	17.971	145.396	0.530
784.000	469.392	80.003	19.994	103.116	18.364	118.943	0.537
792.000	473.610	80.001	19.995	103.114	18.713	95.460	0.531
800.000	477.873	80.000	19.996	103.087	18.995	76.444	0.549
808.000	481.981	80.003	19.995	103.080	19.233	60.440	0.531
816.000	486.053	80.001	19.995	103.078	19.427	47.374	0.507
824.000	490.171	80.002	19.995	103.073	19.593	36.223	0.531
832.000	494.260	80.003	19.996	103.066	19.747	25.865	0.500
840.000	498.379	80.006	19.995	103.038	19.880	16.922	0.514
848.000	502.424	80.001	19.995	103.067	19.975	10.532	0.529
856.000	506.485	80.002	19.994	103.072	20.034	6.547	0.522
864.000	510.543	80.002	19.994	103.052	20.069	4.208	0.502
872.000	514.625	80.002	19.995	103.062	20.084	3.213	0.527
880.000	518.800	80.002	19.994	103.075	20.095	2.440	0.528
888.000	522.829	80.003	19.993	103.061	20.097	2.298	0.499
896.000	526.976	80.004	19.996	103.076	20.101	2.044	0.508
904.000	531.067	80.003	19.995	103.080	20.102	1.992	0.514
912.000	535.183	80.003	19.994	103.051	20.101	2.011	0.511
920.000	539.295	80.003	19.995	103.085	20.104	1.821	0.513
928.000	543.359	80.002	19.995	103.089	20.108	1.594	0.507
936.000	547.464	80.003	19.994	103.080	20.105	1.774	0.503
944.000	551.586	80.001	19.994	103.055	20.105	1.788	0.499
952.000	555.670	80.002	19.994	103.077	20.104	1.843	0.495
960.000	559.795	80.000	19.996	103.075	20.102	1.996	0.478
968.000	563.875	80.001	19.995	103.067	20.104	1.815	0.513
976.000	567.908	80.004	19.995	103.067	20.102	1.944	0.482
984.000	572.064	80.002	19.995	103.080	20.106	1.732	0.530
992.000	576.204	80.001	19.994	103.074	20.105	1.751	0.509
1000.000	580.325	80.003	19.994	103.072	20.108	1.585	0.541
1008.000	584.447	80.003	19.995	103.041	20.107	1.664	0.550
1016.000	588.575	79.999	19.996	103.051	20.107	1.668	0.520
1024.000	592.684	80.002	19.995	103.047	20.108	1.566	0.524
1032.000	596.846	80.002	19.994	103.072	20.110	1.421	0.522
1040.000	600.980	80.000	19.994	103.081	20.110	1.452	0.516
1048.000	605.078	80.001	19.995	103.055	20.110	1.465	0.505
1056.000	609.106	80.003	19.994	103.062	20.108	1.555	0.504
1064.000	613.209	80.002	19.994	103.060	20.109	1.502	0.515
1072.000	617.275	80.003	19.996	103.061	20.106	1.694	0.528
1080.001	621.343	80.004	19.995	103.056	20.110	1.443	0.502
1088.000	625.406	80.004	19.995	103.054	20.108	1.572	0.485
1096.001	629.419	80.002	19.995	103.043	20.107	1.651	0.475
1104.001	633.530	80.000	19.995	103.057	20.110	1.441	0.550
1112.000	637.656	80.000	19.995	103.078	20.110	1.401	0.554
1120.000	641.781	80.000	19.995	103.068	20.109	1.502	0.528
1128.001	645.893	80.001	19.994	103.082	20.107	1.627	0.523
1136.001	650.040	80.003	19.996	103.045	20.105	1.799	0.533
1144.000	654.167	80.002	19.995	103.073	20.108	1.559	0.526
1152.000	658.328	80.002	19.994	103.072	20.108	1.594	0.501
1160.001	662.444	80.004	19.994	103.045	20.111	1.360	0.512
1168.001	666.506	80.005	19.994	103.077	20.111	1.398	0.522
1176.000	670.586	80.001	19.996	103.075	20.109	1.489	0.503
1184.000	674.606	80.002	19.994	103.058	20.111	1.347	0.532
1192.000	678.659	80.001	19.994	103.045	20.107	1.620	0.534
1200.001	682.640	80.001	19.995	103.049	20.112	1.306	0.490
1208.001	686.668	79.999	19.997	103.052	20.109	1.484	0.480
1216.000	690.759	80.004	19.994	103.057	20.112	1.299	0.511
1224.001	694.823	80.004	19.994	103.055	20.110	1.428	0.508
1232.000	698.863	80.003	19.996	103.041	20.108	1.546	0.499
1240.000	702.883	80.003	19.995	103.073	20.111	1.380	0.494
1248.000	706.969	80.004	19.995	103.045	20.109	1.524	0.510
1256.000	711.037	80.002	19.994	103.047	20.108	1.537	0.506
1264.001	715.065	80.001	19.995	103.065	20.109	1.500	0.530
1272.000	719.168	80.002	19.995	103.042	20.106	1.701	0.505
1280.001	723.226	80.003	19.996	103.060	20.108	1.559	0.502
1288.000	727.277	80.000	19.996	103.047	20.107	1.666	0.527
1296.000	731.318	80.000	19.997	103.042	20.107	1.618	0.505
1304.000	735.359	80.002	19.996	103.044	20.106	1.697	0.512
1312.000	739.402	80.002	19.996	103.056	20.103	1.883	0.495
1320.000	743.446	80.003	19.995	103.040	20.108	1.555	0.525
1320.500	743.692	80.005	19.993	103.043	20.105	1.745	0.501

File: ABS_MCC_30K_min_211019_R2.txt
Sample ID:	C:\MCC\MCC Cal\Test\PlasticA_MCC_30K_min_211019_R2.txt
Sample Weight (mg):	4.95
Heating Rate (C/s):	0.5
Combustor Temp (C):	900
N2 Flow Rate (cc/min):	80
O2 Flow Rate (cc/min):	20
Calibration File:	C:\MCC\MCC Cal\Coeff1 JN10440_30_210304.txt.txt
T Correction Coefficients:	0	1.024463	0
Time Shift (s):	14
*
Time (s)	Temperature (C)	N2 flow rate (cc/min)	O2 flow rate (cc/min)	Flow Rate (cc/min)	Oxygen (%)	HRR (W/g)	Heating rate (C/s)
-0.001	107.682	80.001	19.995	102.963	19.948	0.411	-0.010
8.000	107.626	79.982	19.998	102.996	19.948	0.459	0.001
16.000	107.618	80.018	19.993	103.002	19.948	0.438	-0.010
24.000	107.773	80.004	19.995	103.056	19.933	1.424	0.040
32.000	108.271	80.009	19.993	103.148	19.923	2.083	0.088
40.000	109.282	80.004	19.995	103.170	19.914	2.651	0.186
47.999	110.503	80.000	19.995	103.179	19.913	2.725	0.155
55.999	112.129	79.999	19.995	103.190	19.908	3.051	0.231
63.999	114.072	80.006	19.995	103.194	19.909	2.966	0.228
71.999	116.287	80.002	19.995	103.189	19.909	2.970	0.275
79.999	118.718	80.004	19.994	103.217	19.908	3.051	0.307
88.000	121.363	80.002	19.996	103.265	19.908	3.061	0.352
96.000	124.243	80.004	19.994	103.233	19.904	3.330	0.321
103.999	127.339	79.992	19.996	103.225	19.903	3.400	0.422
112.000	130.633	80.005	19.994	103.225	19.905	3.244	0.431
120.000	133.942	80.007	19.996	103.228	19.903	3.390	0.414
128.000	137.516	80.003	19.996	103.225	19.898	3.663	0.472
136.000	141.126	80.005	19.993	103.238	19.898	3.708	0.468
144.000	144.879	80.008	19.990	103.230	19.897	3.778	0.447
152.000	148.687	80.004	19.994	103.230	19.896	3.813	0.462
160.000	152.577	80.006	19.994	103.219	19.897	3.762	0.490
168.000	156.457	80.002	19.994	103.238	19.895	3.902	0.476
176.000	160.390	80.004	19.994	103.221	19.896	3.851	0.477
184.000	164.415	80.004	19.995	103.204	19.898	3.709	0.506
192.000	168.470	80.002	19.996	103.230	19.896	3.795	0.519
200.000	172.494	80.007	19.994	103.196	19.897	3.782	0.492
208.000	176.491	80.000	19.998	103.212	19.897	3.767	0.490
216.000	180.563	80.003	19.997	103.208	19.897	3.757	0.515
224.000	184.531	80.006	19.991	103.209	19.896	3.831	0.505
232.000	188.561	80.004	19.994	103.208	19.901	3.496	0.463
240.000	192.564	80.002	20.004	103.191	19.894	3.972	0.502
248.000	196.564	80.008	19.995	103.187	19.894	3.966	0.520
256.000	200.479	80.005	19.991	103.202	19.894	3.963	0.476
264.000	204.448	80.005	19.993	103.194	19.892	4.097	0.478
272.000	208.376	80.004	19.991	103.192	19.887	4.387	0.457
280.000	212.320	80.002	19.994	103.181	19.888	4.377	0.473
288.000	216.249	80.005	19.994	103.186	19.885	4.541	0.487
296.000	220.170	80.005	19.995	103.189	19.885	4.512	0.495
304.000	224.178	80.004	19.995	103.183	19.883	4.660	0.466
312.000	228.074	80.005	19.996	103.179	19.881	4.776	0.504
320.000	232.095	80.004	19.995	103.184	19.877	5.062	0.499
328.000	236.059	80.002	19.996	103.188	19.880	4.850	0.517
336.000	240.003	80.003	19.995	103.187	19.877	5.077	0.499
344.000	244.021	80.002	19.994	103.173	19.874	5.272	0.475
352.000	247.976	80.002	19.995	103.192	19.874	5.261	0.486
360.000	252.074	80.002	19.994	103.191	19.866	5.748	0.486
368.000	256.108	80.004	19.995	103.180	19.871	5.474	0.526
376.000	260.086	80.004	19.995	103.185	19.871	5.422	0.500
384.000	264.104	80.004	19.995	103.175	19.874	5.285	0.517
392.000	268.109	80.006	19.995	103.183	19.876	5.120	0.502
400.000	272.191	80.003	19.996	103.167	19.878	4.990	0.493
408.000	276.212	80.002	19.995	103.167	19.880	4.880	0.554
416.000	280.185	80.004	19.995	103.129	19.889	4.288	0.493
424.000	284.162	80.003	19.994	103.113	19.887	4.384	0.518
432.000	288.151	80.003	19.994	103.140	19.889	4.270	0.514
440.000	292.136	80.003	19.994	103.132	19.891	4.126	0.465
448.000	296.198	80.005	19.994	103.131	19.892	4.064	0.497
456.000	300.216	80.005	19.995	103.111	19.890	4.232	0.498
464.000	304.239	80.004	19.995	103.121	19.888	4.346	0.501
472.000	308.264	80.004	19.995	103.123	19.888	4.325	0.470
480.000	312.308	80.005	19.995	103.125	19.883	4.682	0.484
488.000	316.390	80.002	19.995	103.133	19.881	4.778	0.533
496.000	320.409	80.003	19.995	103.110	19.874	5.241	0.472
504.000	324.433	80.003	19.996	103.109	19.869	5.563	0.504
512.000	328.493	80.004	19.994	103.109	19.857	6.352	0.519
520.000	332.550	80.004	19.995	103.111	19.848	6.950	0.492
528.000	336.649	80.003	19.994	103.116	19.836	7.734	0.541
536.000	340.731	80.004	19.995	103.114	19.818	8.896	0.543
544.000	344.784	80.005	19.994	103.115	19.798	10.212	0.530
552.000	348.863	80.005	19.995	103.116	19.776	11.595	0.525
560.000	352.967	80.007	19.994	103.119	19.747	13.522	0.555
568.000	357.018	80.005	19.995	103.112	19.708	16.054	0.514
576.000	361.058	80.003	19.994	103.111	19.668	18.613	0.474
584.000	365.124	80.004	19.995	103.128	19.619	21.838	0.481
592.000	369.170	80.003	19.995	103.109	19.559	25.710	0.507
600.000	373.154	80.003	19.995	103.120	19.487	30.430	0.460
608.000	377.234	80.003	19.995	103.129	19.411	35.348	0.531
616.000	381.221	80.004	19.994	103.118	19.317	41.457	0.473
624.000	385.193	80.003	19.995	103.150	19.207	48.591	0.487
632.000	389.215	80.005	19.994	103.147	19.070	57.530	0.485
640.000	393.194	80.006	19.994	103.184	18.912	67.822	0.539
648.000	397.202	80.005	19.995	103.182	18.714	80.721	0.488
656.000	401.177	80.002	19.994	103.200	18.471	96.549	0.458
664.000	405.178	80.004	19.995	103.230	18.165	116.495	0.500
672.000	409.180	80.004	19.994	103.265	17.808	139.800	0.499
680.000	413.161	80.002	19.995	103.312	17.388	167.190	0.466
688.000	417.212	80.002	19.996	103.317	16.898	199.178	0.496
696.000	421.242	80.005	19.996	103.361	16.402	231.537	0.483
704.000	425.251	80.006	19.994	103.378	15.950	260.979	0.509
712.000	429.341	80.005	19.994	103.396	15.601	283.790	0.513
720.000	433.405	80.006	19.995	103.399	15.417	295.675	0.484
728.000	437.522	80.007	19.995	103.397	15.433	294.622	0.513
736.000	441.620	80.004	19.994	103.356	15.628	281.956	0.530
744.000	445.749	80.004	19.994	103.377	15.938	261.487	0.483
752.000	449.892	80.003	19.994	103.334	16.167	246.516	0.525
760.000	454.116	80.003	19.995	103.192	16.717	210.685	0.523
768.000	458.361	80.003	19.995	103.298	17.323	171.145	0.498
776.000	462.577	80.003	19.995	103.197	17.756	142.926	0.519
784.000	466.687	80.005	19.996	103.146	18.144	117.717	0.501
792.000	470.854	80.004	19.996	103.140	18.487	95.371	0.515
800.000	474.995	80.005	19.995	103.116	18.775	76.675	0.504
808.000	479.107	80.006	19.995	103.109	19.012	61.305	0.514
816.000	483.177	80.004	19.993	103.098	19.205	48.757	0.498
824.000	487.197	80.003	19.995	103.111	19.376	37.634	0.478
832.000	491.306	80.004	19.994	103.080	19.534	27.354	0.528
840.000	495.443	80.005	19.995	103.087	19.671	18.470	0.510
848.000	499.509	80.004	19.995	103.087	19.769	12.074	0.499
856.000	503.599	80.003	19.995	103.102	19.841	7.362	0.510
864.000	507.645	80.006	19.996	103.093	19.878	4.971	0.508
872.000	511.727	80.004	19.995	103.085	19.899	3.644	0.501
880.000	515.817	80.006	19.995	103.106	19.906	3.146	0.495
888.000	520.000	80.004	19.995	103.088	19.915	2.599	0.520
896.000	524.130	80.006	19.994	103.077	19.914	2.637	0.487
904.000	528.219	80.004	19.993	103.078	19.917	2.453	0.513
912.000	532.276	80.004	19.995	103.082	19.920	2.278	0.466
920.000	536.405	80.005	19.994	103.083	19.921	2.187	0.517
928.000	540.492	80.005	19.994	103.078	19.921	2.217	0.528
936.000	544.515	80.005	19.994	103.102	19.921	2.192	0.481
944.000	548.557	80.004	19.994	103.094	19.919	2.323	0.482
952.000	552.608	80.005	19.994	103.076	19.919	2.335	0.469
960.000	556.766	80.004	19.995	103.097	19.922	2.138	0.514
968.000	560.858	80.005	19.996	103.069	19.922	2.110	0.519
976.000	564.932	80.007	19.995	103.086	19.925	1.947	0.505
984.000	569.060	80.005	19.996	103.096	19.927	1.791	0.511
992.000	573.154	80.004	19.995	103.094	19.922	2.147	0.519
1000.000	577.268	80.003	19.995	103.089	19.927	1.835	0.459
1008.000	581.397	80.004	19.994	103.096	19.923	2.057	0.501
1016.000	585.482	80.003	19.995	103.106	19.921	2.191	0.519
1024.000	589.526	80.002	19.995	103.105	19.924	1.985	0.501
1031.999	593.532	80.004	19.994	103.090	19.922	2.141	0.488
1039.999	597.694	80.005	19.994	103.095	19.923	2.049	0.528
1048.000	601.789	80.005	19.995	103.103	19.923	2.054	0.550
1055.999	605.790	80.004	19.995	103.092	19.928	1.770	0.494
1063.999	609.856	80.007	19.994	103.106	19.926	1.864	0.485
1071.999	613.947	80.002	19.995	103.092	19.924	2.025	0.505
1080.000	618.044	80.004	19.995	103.095	19.921	2.175	0.518
1087.999	622.002	80.004	19.995	103.105	19.918	2.412	0.533
1096.000	625.958	80.004	19.995	103.100	19.919	2.351	0.491
1103.999	630.000	80.003	19.994	103.088	19.921	2.197	0.473
1111.999	634.039	80.004	19.994	103.098	19.921	2.198	0.516
1119.999	638.161	80.006	19.994	103.100	19.923	2.054	0.500
1127.999	642.171	80.007	19.994	103.091	19.924	2.025	0.492
1135.999	646.244	80.004	19.995	103.089	19.922	2.141	0.560
1143.999	650.359	80.007	19.995	103.099	19.924	2.020	0.539
1151.999	654.443	80.004	19.995	103.108	19.924	1.980	0.536
1159.999	658.718	80.004	19.994	103.111	19.927	1.823	0.503
1167.999	662.956	80.005	19.996	103.108	19.925	1.925	0.529
1175.999	667.213	80.005	19.996	103.101	19.921	2.214	0.566
1183.999	671.388	80.002	19.996	103.104	19.921	2.189	0.529
1191.999	675.676	80.005	19.995	103.108	19.920	2.258	0.561
1199.999	679.894	80.007	19.995	103.111	19.917	2.439	0.521
1207.999	684.136	80.005	19.995	103.111	19.918	2.422	0.515
1215.999	688.320	80.005	19.995	103.094	19.918	2.383	0.526
1223.999	692.525	80.007	19.994	103.110	19.918	2.412	0.539
1231.999	696.565	80.008	19.995	103.095	19.920	2.231	0.487
1239.999	700.480	80.001	19.996	103.096	19.919	2.342	0.497
1247.999	704.357	80.007	19.996	103.098	19.917	2.455	0.469
1255.999	708.348	80.002	19.995	103.100	19.919	2.298	0.513
1263.999	712.243	80.002	19.995	103.109	19.920	2.288	0.505
1272.000	716.195	80.003	19.996	103.107	19.916	2.496	0.483
1279.999	720.115	80.004	19.995	103.096	19.917	2.455	0.461
1288.000	724.095	80.005	19.994	103.107	19.918	2.393	0.515
1296.000	728.032	80.005	19.995	103.100	19.916	2.537	0.470
1303.999	732.098	80.007	19.995	103.107	19.915	2.599	0.517
1311.999	736.021	80.007	19.995	103.092	19.917	2.450	0.456
1319.999	739.994	80.003	19.993	103.105	19.916	2.553	0.501
1327.499	743.703	80.003	19.994	103.089	19.913	2.712	0.486