Folder: fsri_materials_database/01_Data/ABS/MCC (part 2)

File: ABS_MCC_30K_min_211019_R3.txt
Sample ID:	C:\MCC\MCC Cal\Test\PlasticA_MCC_30K_min_211019_R3.txt
Sample Weight (mg):	4.61
Heating Rate (C/s):	0.5
Combustor Temp (C):	900
N2 Flow Rate (cc/min):	80
O2 Flow Rate (cc/min):	20
Calibration File:	C:\MCC\MCC Cal\Coeff1 JN10440_30_210304.txt.txt
T Correction Coefficients:	0	1.024463	0
Time Shift (s):	14
*
Time (s)	Temperature (C)	N2 flow rate (cc/min)	O2 flow rate (cc/min)	Flow Rate (cc/min)	Oxygen (%)	HRR (W/g)	Heating rate (C/s)
0.000	107.006	80.008	19.995	102.965	19.974	0.128	0.017
8.000	106.997	80.007	19.995	102.979	19.974	0.136	-0.006
16.000	107.033	80.007	19.993	102.986	19.977	-0.047	-0.002
24.000	107.082	80.009	19.995	103.065	19.960	1.157	0.003
32.000	107.588	80.005	19.995	103.150	19.949	1.908	0.100
40.000	108.530	80.006	19.995	103.176	19.940	2.506	0.124
48.001	109.939	80.007	19.995	103.187	19.941	2.432	0.200
56.000	111.659	80.005	19.996	103.182	19.942	2.394	0.213
64.001	113.752	80.005	19.996	103.191	19.939	2.580	0.293
72.000	115.996	80.006	19.995	103.189	19.937	2.707	0.298
80.001	118.553	80.008	19.995	103.220	19.932	3.084	0.368
88.000	121.325	80.008	19.995	103.230	19.931	3.195	0.358
96.000	124.352	80.007	19.994	103.260	19.924	3.669	0.408
104.000	127.723	80.009	19.994	103.260	19.925	3.566	0.416
112.000	131.292	80.007	19.993	103.260	19.926	3.537	0.471
120.000	135.012	80.006	19.995	103.259	19.920	3.895	0.509
128.000	138.945	80.007	19.996	103.258	19.922	3.817	0.495
136.000	142.883	80.006	19.996	103.251	19.922	3.784	0.528
144.000	147.039	80.006	19.995	103.250	19.923	3.746	0.518
152.000	151.157	80.006	19.998	103.233	19.924	3.668	0.516
160.000	155.294	80.009	19.995	103.225	19.923	3.710	0.503
168.000	159.465	80.007	19.995	103.225	19.922	3.787	0.505
176.000	163.614	80.006	19.995	103.219	19.922	3.787	0.508
184.000	167.796	80.008	19.994	103.210	19.925	3.554	0.474
192.000	171.833	80.009	19.994	103.203	19.921	3.852	0.502
200.000	175.897	80.007	19.995	103.197	19.925	3.555	0.507
208.000	179.885	80.006	19.994	103.189	19.924	3.642	0.480
216.000	183.841	80.006	19.995	103.184	19.925	3.582	0.479
224.000	187.786	80.005	19.995	103.181	19.928	3.340	0.481
232.000	191.740	80.006	19.994	103.183	19.925	3.608	0.495
240.000	195.572	80.007	19.996	103.183	19.922	3.809	0.517
248.000	199.363	80.006	19.996	103.184	19.922	3.784	0.482
256.000	203.216	80.006	19.996	103.183	19.925	3.576	0.480
264.000	207.197	80.009	19.995	103.178	19.919	4.015	0.510
272.000	211.121	80.009	19.994	103.179	19.920	3.931	0.469
280.000	215.105	80.006	19.994	103.176	19.918	4.038	0.538
288.000	219.059	80.006	19.995	103.180	19.915	4.245	0.515
296.000	223.111	80.007	19.995	103.185	19.917	4.168	0.537
304.000	227.078	80.006	19.994	103.180	19.912	4.508	0.480
312.000	231.159	80.005	19.995	103.184	19.912	4.459	0.520
320.001	235.120	80.006	19.995	103.174	19.909	4.659	0.487
328.000	239.092	80.007	19.995	103.171	19.904	5.034	0.453
336.000	243.073	80.007	19.996	103.167	19.904	5.054	0.523
344.000	246.967	80.006	19.996	103.169	19.910	4.621	0.468
352.000	250.957	80.009	19.994	103.155	19.906	4.875	0.494
360.000	254.823	80.007	19.994	103.168	19.903	5.109	0.490
368.000	258.738	80.006	19.994	103.174	19.904	5.009	0.499
376.000	262.613	80.006	19.994	103.163	19.903	5.079	0.478
384.000	266.596	80.006	19.994	103.167	19.902	5.187	0.481
392.000	270.542	80.005	19.995	103.174	19.902	5.162	0.471
400.000	274.550	80.007	19.994	103.176	19.914	4.331	0.534
408.000	278.644	80.007	19.994	103.165	19.910	4.613	0.545
416.000	282.679	80.008	19.995	103.155	19.916	4.207	0.484
424.000	286.659	80.006	19.995	103.151	19.915	4.244	0.487
432.000	290.716	80.007	19.995	103.149	19.919	3.985	0.515
440.000	294.789	80.007	19.995	103.150	19.917	4.163	0.507
448.000	298.815	80.006	19.995	103.150	19.918	4.070	0.512
456.000	302.837	80.007	19.995	103.148	19.915	4.246	0.505
464.000	306.858	80.007	19.995	103.150	19.912	4.457	0.485
472.000	310.820	80.005	19.995	103.145	19.911	4.565	0.499
480.000	314.846	80.006	19.995	103.142	19.902	5.200	0.457
488.000	318.887	80.006	19.995	103.143	19.902	5.172	0.477
496.000	322.915	80.008	19.994	103.142	19.892	5.877	0.487
504.000	326.965	80.007	19.995	103.136	19.889	6.123	0.496
512.000	330.974	80.007	19.995	103.141	19.881	6.659	0.533
520.000	335.011	80.009	19.994	103.142	19.869	7.489	0.506
528.000	339.019	80.004	19.995	103.132	19.858	8.257	0.476
536.000	342.978	80.005	19.996	103.134	19.838	9.641	0.486
544.000	346.910	80.005	19.996	103.134	19.816	11.196	0.520
552.000	350.907	80.007	19.994	103.123	19.794	12.732	0.466
560.000	354.911	80.004	19.995	103.137	19.764	14.846	0.510
568.000	358.890	80.009	19.994	103.142	19.732	17.039	0.492
576.000	362.908	80.005	19.995	103.133	19.689	20.054	0.523
584.000	366.908	80.007	19.994	103.139	19.638	23.627	0.484
592.000	371.040	80.007	19.995	103.128	19.580	27.680	0.519
600.001	375.110	80.008	19.995	103.141	19.513	32.307	0.526
608.001	379.151	80.007	19.995	103.138	19.431	38.057	0.482
616.000	383.214	80.008	19.995	103.144	19.337	44.591	0.499
624.000	387.229	80.005	19.995	103.142	19.225	52.439	0.511
632.000	391.258	80.004	19.996	103.145	19.085	62.198	0.510
640.000	395.276	80.005	19.995	103.179	18.922	73.606	0.511
648.000	399.123	80.005	19.995	103.180	18.719	87.783	0.460
656.000	402.977	80.007	19.995	103.183	18.481	104.451	0.456
664.001	406.813	80.006	19.995	103.216	18.188	124.994	0.489
672.000	410.744	80.008	19.995	103.255	17.836	149.654	0.484
680.000	414.631	80.008	19.994	103.283	17.427	178.237	0.501
688.000	418.643	80.007	19.994	103.311	16.975	209.890	0.497
696.000	422.631	80.005	19.997	103.339	16.515	242.104	0.513
704.000	426.660	80.005	19.995	103.361	16.130	269.055	0.502
712.000	430.707	80.006	19.995	103.369	15.858	288.076	0.509
720.000	434.762	80.005	19.996	103.351	15.752	295.472	0.498
728.000	438.959	80.005	19.996	103.354	15.837	289.419	0.537
736.000	443.064	80.009	19.995	103.321	16.056	274.050	0.542
744.000	447.205	80.006	19.995	103.322	16.280	258.129	0.528
752.000	451.399	80.006	19.995	103.229	16.594	236.343	0.563
760.000	455.664	80.009	19.994	103.215	17.207	193.324	0.509
768.000	459.916	80.009	19.995	103.186	17.676	160.540	0.516
776.000	464.116	80.006	19.994	103.143	18.054	134.125	0.492
784.000	468.343	80.006	19.995	103.108	18.395	110.312	0.526
792.000	472.494	80.006	19.996	103.098	18.701	88.917	0.504
800.000	476.653	80.006	19.995	103.076	18.965	70.517	0.496
808.000	480.857	80.006	19.996	103.065	19.176	55.846	0.534
816.000	484.964	80.007	19.995	103.064	19.354	43.403	0.483
824.000	489.093	80.008	19.996	103.062	19.523	31.636	0.505
832.000	493.277	80.007	19.995	103.063	19.668	21.485	0.539
840.000	497.448	80.009	19.995	103.059	19.792	12.820	0.536
848.000	501.567	80.009	19.996	103.059	19.875	7.053	0.549
856.000	505.686	80.007	19.995	103.054	19.932	3.058	0.519
864.000	509.706	80.007	19.995	103.059	19.955	1.451	0.518
872.000	513.666	80.008	19.995	103.053	19.968	0.603	0.498
880.000	517.722	80.005	19.995	103.065	19.977	-0.045	0.492
888.000	521.724	80.005	19.995	103.048	19.983	-0.487	0.494
896.000	525.813	80.009	19.995	103.044	19.985	-0.635	0.512
904.000	529.820	80.006	19.996	103.065	19.982	-0.436	0.492
912.000	533.882	80.006	19.996	103.054	19.987	-0.755	0.518
920.000	538.001	80.008	19.995	103.056	19.989	-0.893	0.511
928.000	542.116	80.008	19.995	103.046	19.990	-0.969	0.496
936.000	546.272	80.005	19.995	103.059	19.993	-1.171	0.513
944.000	550.398	80.005	19.995	103.051	19.997	-1.435	0.519
952.000	554.513	80.005	19.994	103.059	19.999	-1.569	0.528
960.000	558.678	80.006	19.995	103.036	19.997	-1.414	0.529
968.000	562.775	80.006	19.995	103.035	19.998	-1.518	0.555
976.000	566.818	80.005	19.995	103.030	20.005	-1.973	0.488
984.000	570.894	80.006	19.995	103.045	20.006	-2.105	0.517
992.000	575.080	80.007	19.996	103.031	20.006	-2.104	0.538
1000.000	579.137	80.007	19.995	103.033	20.005	-1.990	0.494
1008.000	583.217	80.005	19.995	103.030	20.006	-2.106	0.510
1016.000	587.229	80.006	19.995	103.030	20.010	-2.360	0.514
1024.000	591.306	80.005	19.994	103.039	20.010	-2.334	0.520
1032.000	595.407	80.006	19.995	103.042	20.012	-2.515	0.500
1040.000	599.493	80.006	19.994	103.029	20.011	-2.432	0.540
1048.000	603.568	80.007	19.996	103.027	20.015	-2.710	0.501
1056.000	607.624	80.009	19.995	103.031	20.017	-2.812	0.507
1064.000	611.774	80.007	19.996	103.027	20.013	-2.555	0.529
1072.000	615.889	80.007	19.994	103.029	20.014	-2.623	0.487
1080.000	620.061	80.008	19.995	103.040	20.017	-2.825	0.516
1088.000	624.200	80.005	19.996	103.042	20.018	-2.925	0.555
1096.000	628.405	80.006	19.995	103.053	20.021	-3.099	0.516
1104.001	632.580	80.005	19.995	103.036	20.019	-2.991	0.523
1112.000	636.817	80.005	19.995	103.027	20.024	-3.306	0.528
1120.000	640.963	80.006	19.996	103.030	20.025	-3.384	0.509
1128.000	645.024	80.007	19.995	103.031	20.024	-3.320	0.502
1136.001	649.090	80.008	19.994	103.034	20.026	-3.493	0.514
1144.001	653.133	80.006	19.995	103.032	20.035	-4.116	0.481
1152.000	657.214	80.007	19.995	103.037	20.031	-3.805	0.534
1160.000	661.169	80.008	19.994	103.016	20.031	-3.852	0.466
1168.000	665.222	80.006	19.996	103.026	20.031	-3.852	0.490
1176.000	669.218	80.004	19.997	103.025	20.034	-4.011	0.523
1184.000	673.177	80.006	19.996	103.025	20.037	-4.216	0.495
1192.000	677.265	80.005	19.994	103.027	20.029	-3.695	0.535
1200.000	681.228	80.005	19.995	103.036	20.030	-3.761	0.466
1208.000	685.211	80.007	19.994	103.021	20.036	-4.141	0.504
1216.000	689.153	80.006	19.994	103.024	20.040	-4.420	0.496
1224.000	693.150	80.005	19.996	103.031	20.039	-4.343	0.493
1232.000	697.240	80.007	19.995	103.032	20.043	-4.659	0.493
1240.000	701.305	80.007	19.995	103.039	20.046	-4.853	0.512
1248.000	705.359	80.006	19.995	103.034	20.043	-4.649	0.495
1256.000	709.474	80.005	19.996	103.028	20.046	-4.898	0.532
1264.000	713.488	80.005	19.996	103.028	20.046	-4.855	0.517
1272.000	717.526	80.004	19.996	103.023	20.046	-4.896	0.498
1280.000	721.489	80.006	19.996	103.033	20.049	-5.096	0.502
1288.000	725.527	80.007	19.995	103.026	20.056	-5.531	0.476
1296.001	729.586	80.006	19.995	103.025	20.054	-5.440	0.492
1304.000	733.714	80.007	19.995	103.015	20.057	-5.662	0.517
1312.001	737.782	80.008	19.994	103.022	20.055	-5.472	0.528
1320.000	741.807	80.005	19.995	103.009	20.060	-5.827	0.505
1326.500	745.042	80.005	19.995	103.018	20.061	-5.935	0.533