Folder: fsri_materials_database/01_Data/Composite_Deck_Board/Cone (part 3)

File: Composite_Deck_Board_Cone_HF50Scan_221209_R2.csv
Names,Time,Stack TC,Smoke TC,Exh Press,Smoke Comp,Smoke Meas,CO Meter,CO2 Meter,O2 Meter,Sample Mass,Ext Coeff,Start Test,Flame Verif
Chan Gain,,500,500,1,1,1,1,1,1,1,1,1.0,1.0
Offset,,0,0,0.136389,0,0,0,0,0,0,0,0.0,0.0
Gain,,1,1,25.011,14.2696,296.664,1,1,1,1.0009,1.04656,1.0,1.0
Units,sec,C,C,Pa,%,%,%,%,%,g,/m,,
Baseline,,34.7624,36.2979,155.14,106.89,111.956,0.00078309,0.0644066,20.9565,-444.361,-0.425004,,
72,17.75,32.9314,34.5878,150.384,107.037,111.539,0.00156287,0.0677212,20.9509,200.93,-0.378198,0.0,0.0
144,35.75,39.1438,39.2989,120.539,105.792,122.186,0.00549919,0.44107,20.2838,200.009,-1.32257,0.0,0.0
216,53.75,85.2177,87.3267,106.369,105.913,121.081,0.0189307,1.54929,18.6342,196.316,-1.22871,0.0,0.0
288,71.75,108.278,117.277,108.641,106.893,126.278,0.0127921,1.15258,19.3078,192.813,-1.52992,0.0,0.0
360,89.75,107.501,120.107,123.602,106.305,127.545,0.00887027,0.795018,19.8785,190.13,-1.67231,0.0,0.0
432,107.75,102.163,116.549,131.204,106.835,130.596,0.00738168,0.661933,20.073,187.778,-1.84364,0.0,0.0
504,125.75,97.7491,111.016,131.113,107.551,126.812,0.00734024,0.587709,20.1822,185.696,-1.51234,0.0,0.0
576,143.75,92.9845,106.232,125.402,105.704,129.265,0.00656032,0.548089,20.2436,183.725,-1.8473,0.0,0.0
648,161.75,89.564,101.99,129.628,106.869,125.753,0.00598307,0.511783,20.2964,181.923,-1.49376,0.0,0.0
720,179.75,86.8377,97.9253,127.236,106.221,123.969,0.0060763,0.488866,20.3321,180.161,-1.41846,0.0,0.0
792,197.75,85.3976,94.8262,130.437,106.73,124.974,0.00612207,0.475217,20.3512,178.43,-1.44872,0.0,0.0
864,215.75,83.0045,92.1848,133.5,107.428,125.409,0.00587234,0.466677,20.3612,176.708,-1.42071,0.0,0.0
936,233.75,81.6108,90.1318,131.459,107.303,124.521,0.00582616,0.459969,20.3728,175.017,-1.36621,0.0,0.0
1008,251.75,80.9663,88.3513,131.378,106.456,121.009,0.00565607,0.453973,20.3803,173.375,-1.17623,0.0,0.0
1080,269.75,80.1129,86.9676,133.406,105.895,120.601,0.00596698,0.448535,20.389,171.694,-1.19384,0.0,0.0
1152,287.75,79.1174,86.112,134.139,105.725,120.999,0.00604855,0.44359,20.3983,170.112,-1.23881,0.0,0.0
1224,305.75,78.9134,85.3068,136.602,105.688,120.827,0.00604623,0.44448,20.3928,168.421,-1.22896,0.0,0.0
1296,323.75,78.6325,84.7378,135.251,105.658,119.026,0.00618206,0.439287,20.3983,166.799,-1.09369,0.0,0.0
1368,341.75,78.1193,84.158,130.679,105.758,121.778,0.00587869,0.440951,20.3995,165.158,-1.29486,0.0,0.0
1440,359.75,77.4541,83.6331,127.624,106.133,120.112,0.0059149,0.438065,20.402,163.507,-1.13596,0.0,0.0
1512,377.75,77.6175,83.4518,136.106,106.644,120.221,0.00581913,0.440404,20.4021,161.865,-1.10011,0.0,0.0
1584,395.75,77.3866,83.2808,140.151,106.999,120.701,0.00613458,0.44063,20.402,160.214,-1.10617,0.0,0.0
1656,413.75,77.8282,82.8481,133.394,107.311,121.642,0.00591442,0.44229,20.3974,158.532,-1.1508,0.0,0.0
1728,431.75,77.2421,83.2786,130.466,107.512,122.231,0.00560889,0.445562,20.3929,156.921,-1.17794,0.0,0.0
1800,449.75,77.7038,83.4001,139.998,107.511,122.765,0.00575103,0.44636,20.3917,155.199,-1.21801,0.0,0.0
1872,467.75,77.7877,83.264,131.366,107.326,124.82,0.00552682,0.446746,20.3916,153.518,-1.38624,0.0,0.0
1944,485.75,77.8075,83.5597,134.126,106.985,122.412,0.00529223,0.448332,20.3938,151.816,-1.23664,0.0,0.0
2016,503.75,78.2838,83.0119,132.979,106.643,122.539,0.00562919,0.451725,20.3837,150.155,-1.27552,0.0,0.0
2088,521.75,77.8696,83.2388,134.622,107.026,125.843,0.00570715,0.451133,20.3848,148.433,-1.48691,0.0,0.0
2160,539.75,78.4877,83.671,130.987,106.811,124.467,0.0056408,0.459745,20.3734,146.681,-1.4044,0.0,0.0
2232,557.75,79.029,84.0292,136.526,106.268,125.952,0.00561434,0.469087,20.3596,145,-1.56002,0.0,0.0
2304,575.75,79.3445,85.0335,129.866,106.791,124.367,0.00584886,0.478462,20.3448,143.198,-1.39874,0.0,0.0
2376,593.75,80.4302,85.2819,132.491,106.902,125.064,0.00609207,0.486663,20.3297,141.367,-1.44055,0.0,0.0
2448,611.75,80.6627,86.406,128.426,106.527,125.055,0.00652125,0.488109,20.3274,139.585,-1.47218,0.0,0.0
2520,629.75,81.5727,86.4138,127.129,105.992,124.567,0.00598134,0.490194,20.3254,137.713,-1.48242,0.0,0.0
2592,647.75,81.5461,86.8968,129.78,105.617,120.601,0.0062863,0.489456,20.3272,135.942,-1.21792,0.0,0.0
2664,665.75,81.917,87.3827,133.098,105.722,120.71,0.00579648,0.49128,20.3206,134.09,-1.21711,0.0,0.0
2736,683.75,82.1464,87.6418,128.86,106.222,124.503,0.00643859,0.492191,20.319,132.309,-1.45782,0.0,0.0
2808,701.75,82.0904,88.1602,136.553,106.885,124.195,0.00627,0.492431,20.3184,130.487,-1.37795,0.0,0.0
2880,719.75,82.3701,88.4579,129.121,107.373,126.169,0.00634846,0.489768,20.3211,128.655,-1.48093,0.0,0.0
2952,737.75,82.5336,88.3469,130.892,107.544,124.277,0.00624436,0.487587,20.322,126.884,-1.32759,0.0,0.0
3024,755.75,82.4786,88.6798,127.701,107.478,125.707,0.00616985,0.483475,20.3303,125.122,-1.43827,0.0,0.0
3096,773.75,82.4818,88.5213,130.792,107.246,124.132,0.00604086,0.477114,20.3372,123.391,-1.34239,0.0,0.0
3168,791.75,81.7518,87.827,133.1,106.992,124.892,0.00592198,0.462167,20.3624,121.689,-1.42022,0.0,0.0
3240,809.75,80.83,86.8217,132.256,106.675,124.521,0.00495726,0.450722,20.3815,120.048,-1.42013,0.0,0.0
3312,827.75,80.3665,86.0992,133.375,106.917,124.702,0.00496308,0.449012,20.3796,118.426,-1.41266,0.0,0.0
3384,845.75,80.7239,85.3585,130.7,107.063,122.702,0.00498722,0.449421,20.3801,116.785,-1.25161,0.0,0.0
3456,863.75,79.9872,85.8325,136.351,106.652,123.697,0.00482863,0.453111,20.3705,115.213,-1.3611,0.0,0.0
3528,881.75,79.7075,85.3719,135.098,106.248,125.472,0.00548758,0.44649,20.375,113.632,-1.52675,0.0,0.0
3600,899.75,79.6378,85.1421,128.519,106.45,124.005,0.00517576,0.439471,20.3837,112.06,-1.40133,0.0,0.0
3672,917.75,79.6562,84.447,132.254,106.466,125.997,0.00532703,0.437126,20.3909,110.599,-1.54626,0.0,0.0
3744,935.75,79.4396,84.5531,133.105,106.266,125.146,0.00524859,0.43859,20.3838,109.088,-1.50133,0.0,0.0
3816,953.75,79.5557,85.0011,133.018,106.776,123.544,0.00536344,0.438437,20.3839,107.616,-1.33903,0.0,0.0
3888,971.75,79.5597,85.1109,133.053,107.05,129.084,0.00546983,0.436999,20.3825,106.145,-1.71823,0.0,0.0
3960,989.75,79.7941,84.7127,132.703,106.838,123.688,0.00544564,0.43124,20.3891,104.634,-1.34451,0.0,0.0
4032,1007.75,79.5037,84.8713,135.03,107.509,126.296,0.00534582,0.429835,20.3884,103.273,-1.47851,0.0,0.0
4104,1025.75,79.3867,84.2506,135.243,106.941,122.131,0.00538419,0.422263,20.396,101.831,-1.21934,0.0,0.0
4176,1043.75,78.5713,84.0408,132.08,105.646,123.426,0.0052295,0.418376,20.4048,100.53,-1.428,0.0,0.0
4248,1061.75,78.134,83.3361,136.186,106.416,121.135,0.00549332,0.410225,20.415,99.2089,-1.18929,0.0,0.0
4320,1079.75,77.1385,82.9121,137.038,106.753,122.837,0.00539055,0.409215,20.4118,97.9077,-1.28839,0.0,0.0
4392,1097.75,77.3545,82.2346,134.026,107.021,126.241,0.00515567,0.402803,20.4198,96.6566,-1.51634,0.0,0.0
4464,1115.75,77.0706,81.9594,134.075,107.266,125.083,0.00544568,0.400203,20.4194,95.4755,-1.41063,0.0,0.0
4536,1133.75,76.4741,81.5855,135.195,106.635,122.566,0.00453402,0.392622,20.4305,94.3245,-1.27826,0.0,0.0
4608,1151.75,76.1355,81.1177,136.074,106.093,125.037,0.00464028,0.383218,20.4434,93.1835,-1.50827,0.0,0.0
4680,1169.75,74.9029,80.2528,135.725,106.626,126.178,0.00423278,0.373536,20.4566,92.1426,-1.54567,0.0,0.0
4752,1187.75,74.3788,79.4528,137.618,106.727,119.931,0.00387557,0.360206,20.4775,91.1116,-1.0708,0.0,0.0
4824,1205.75,73.7082,78.414,137.332,107.273,127.319,0.00422657,0.348021,20.497,90.1708,-1.57275,0.0,0.0
4896,1223.75,72.4471,77.1792,135.651,105.769,121.787,0.00334217,0.335909,20.5143,89.26,-1.29459,0.0,0.0
4968,1241.75,71.5841,76.2414,143.792,106.981,121.697,0.00313564,0.323255,20.5339,88.4493,-1.18318,0.0,0.0
5040,1259.75,70.188,75.1419,136.189,106.219,120.61,0.00282804,0.313461,20.5462,87.6185,-1.16648,0.0,0.0
5112,1277.75,68.9,73.9907,144.672,107.017,121.525,0.00318366,0.303106,20.565,86.8778,-1.16705,0.0,0.0
5184,1295.75,68.0265,72.5766,139.452,106.759,122.013,0.00278146,0.293407,20.5796,86.1572,-1.22613,0.0,0.0
5256,1313.75,67.0516,71.4732,140.891,106.72,122.303,0.00257641,0.287248,20.5894,85.4666,-1.25123,0.0,0.0
5328,1331.75,66.2383,69.9418,142.645,106.939,121.769,0.0020823,0.27992,20.602,84.796,-1.19219,0.0,0.0
5400,1349.75,65.3277,69.1344,139.149,107.193,123.209,0.00238322,0.270963,20.6201,84.1954,-1.27835,0.0,0.0
5472,1367.75,64.4369,67.4858,136.921,107.331,120.891,0.00215709,0.263262,20.6323,83.5849,-1.09216,0.0,0.0
5544,1385.75,63.5127,66.2835,142.259,107.422,120.583,0.00220946,0.251005,20.6522,83.0244,-1.06097,0.0,0.0
5616,1403.75,61.8969,65.3503,143.293,107.452,121.009,0.00185948,0.239878,20.672,82.4939,-1.09078,0.0,0.0
5688,1421.75,60.6519,63.7395,146.331,107.377,118.962,0.00186265,0.228583,20.6919,82.0135,-0.940627,0.0,0.0
5760,1439.75,59.3084,62.1242,149.688,107.276,119.533,0.00222959,0.216387,20.7148,81.5531,-0.993142,0.0,0.0
5832,1457.75,57.3512,59.7398,146.568,107.067,119.823,0.00251377,0.199446,20.7453,81.1527,-1.03334,0.0,0.0
5904,1475.75,55.3309,57.5112,145.985,106.713,118.79,0.00336827,0.187243,20.7682,80.8024,-0.984335,0.0,0.0
5976,1493.75,52.6342,55.8537,152.093,107.029,118.193,0.00477622,0.173701,20.7931,80.4921,-0.910845,0.0,0.0
6048,1511.75,51.3766,53.2046,153.505,106.824,116.971,0.00695866,0.164349,20.8115,80.2119,-0.833028,0.0,0.0
6120,1529.75,48.9488,51.3175,150.426,106.316,115.567,0.00888335,0.155342,20.8294,79.9216,-0.766004,0.0,0.0
6192,1547.75,47.3715,48.9558,153.796,106.842,116.572,0.0091233,0.156882,20.8272,79.6414,-0.800139,0.0,0.0
6264,1565.75,46.1697,47.6621,152.745,107.04,115.069,0.00874023,0.151882,20.8332,79.3911,-0.66408,0.0,0.0
6336,1583.75,44.8018,46.7997,149.561,106.664,114.608,0.00866018,0.150553,20.8389,79.1609,-0.659458,0.0,0.0
6408,1601.75,44.7258,45.8446,153.672,105.983,114.952,0.00868916,0.148151,20.8403,78.9107,-0.745781,0.0,0.0
6480,1619.75,43.5797,45.0899,150.535,105.753,114.463,0.0083045,0.147217,20.8406,78.6705,-0.726592,0.0,0.0
6552,1637.75,42.7135,44.0042,154.017,106.273,114.309,0.00874404,0.1472,20.8403,78.4303,-0.669176,0.0,0.0
6624,1655.75,42.5216,43.5336,149.063,107.144,115.712,0.00869859,0.148282,20.8405,78.2001,-0.70626,0.0,0.0
6696,1673.75,41.98,43.2314,150.273,107.59,117.478,0.00861223,0.14659,20.8416,77.9398,-0.807101,0.0,0.0
6768,1691.75,41.881,42.8162,151.983,107.081,114.517,0.00876536,0.145008,20.845,77.7096,-0.616367,0.0,0.0
6840,1709.75,41.5807,43.0066,151.115,106.976,114.553,0.00961843,0.145977,20.8428,77.4694,-0.628271,0.0,0.0
6912,1727.75,41.64,42.7226,150.054,106.62,113.684,0.00960195,0.1461,20.8435,77.2692,-0.588936,0.0,0.0
6958,1739.25,41.2132,42.2352,155.404,106.376,112.571,,,,77.1391,-0.519665,0.0,0.0

File: Composite_Deck_Board_Cone_HF50Scan_221209_R3.csv
Names,Time,Stack TC,Smoke TC,Exh Press,Smoke Comp,Smoke Meas,CO Meter,CO2 Meter,O2 Meter,Sample Mass,Ext Coeff,Start Test,Flame Verif
Chan Gain,,500,500,1,1,1,1,1,1,1,1,1.0,1.0
Offset,,0,0,0.136389,0,0,0,0,0,0,0,0.0,0.0
Gain,,1,1,25.011,14.2696,296.664,1,1,1,1.0009,1.04656,1.0,1.0
Units,sec,C,C,Pa,%,%,%,%,%,g,/m,,
Baseline,,35.0454,36.1877,155.243,106.186,115.499,0.00067381,0.07153,20.9423,-444.798,-0.771646,,
73,18,32.4681,34.0398,157.467,106.671,113.259,0.00146431,0.0745055,20.9349,199.058,-0.550162,0.0,0.0
146,36.25,38.3574,38.4052,132.214,106.566,125.001,0.00544611,0.424855,20.3568,198.168,-1.46481,0.0,0.0
219,54.5,83.8059,85.5662,102.409,106.906,132.099,0.0169791,1.51512,18.6874,194.574,-1.94258,0.0,0.0
292,72.75,106.817,115.836,114.058,106.304,131.646,0.012681,1.15113,19.3203,191.011,-1.96293,0.0,0.0
365,91,106.217,118.787,120.332,105.765,129.926,0.00890116,0.787595,19.8779,188.199,-1.88883,0.0,0.0
438,109.25,102.087,115.537,123.102,105.699,128.451,0.00775075,0.670056,20.0524,185.867,-1.78971,0.0,0.0
511,127.5,96.789,110.217,127.421,105.89,127.799,0.00697256,0.592125,20.1757,183.755,-1.72637,0.0,0.0
584,145.75,91.9335,104.744,128.001,106.436,133.756,0.00704209,0.546722,20.239,181.803,-2.09745,0.0,0.0
657,164,87.9424,99.3494,128.248,106.904,130.705,0.00668962,0.512243,20.2933,179.941,-1.84536,0.0,0.0
730,182.25,85.1099,95.83,131.463,106.465,130.098,0.00638956,0.48696,20.3305,178.15,-1.84043,0.0,0.0
803,200.5,83.2793,93.4538,133.068,107.075,132.869,0.00635683,0.476721,20.3457,176.418,-1.98141,0.0,0.0
876,218.75,81.7295,90.4836,133.92,106.757,129.754,0.00594348,0.472605,20.355,174.707,-1.79092,0.0,0.0
949,237,81.2295,89.7247,135.448,107.564,133.294,0.00576154,0.464771,20.3657,172.945,-1.96889,0.0,0.0
1022,255.25,80.2101,87.9821,134.483,106.851,130.841,0.0058725,0.458484,20.3722,171.203,-1.85942,0.0,0.0
1095,273.5,79.8812,87.2481,132.527,105.636,129.555,0.00620105,0.456032,20.3759,169.492,-1.8738,0.0,0.0
1168,291.75,79.2658,86.1031,134.587,106.921,130.922,0.00622139,0.452042,20.3795,167.83,-1.85911,0.0,0.0
1241,310,78.9587,85.6459,132.446,106.259,131.32,0.00582811,0.448678,20.3859,166.179,-1.94401,0.0,0.0
1314,328.25,78.4787,84.7809,133.52,106.733,131.918,0.00604508,0.443988,20.3936,164.497,-1.94485,0.0,0.0
1387,346.5,78.2208,84.7161,129.307,107.429,131.157,0.00586088,0.437001,20.4075,162.776,-1.83208,0.0,0.0
1460,364.75,77.8931,84.6699,137.788,105.692,130.062,0.00585399,0.43767,20.403,161.184,-1.90477,0.0,0.0
1533,383,77.8597,83.9452,131.301,106.974,130.759,0.00569117,0.433334,20.4091,159.543,-1.84312,0.0,0.0
1606,401.25,77.4737,84.0548,137.551,107.116,127.563,0.00581331,0.432619,20.4142,158.002,-1.60382,0.0,0.0
1679,419.5,77.5551,83.4538,138.512,107.521,129.419,0.00626631,0.433477,20.4102,156.23,-1.70174,0.0,0.0
1752,437.75,77.3283,83.3224,133.924,106.401,127.69,0.00553514,0.433259,20.4127,154.558,-1.67442,0.0,0.0
1825,456,77.4575,83.4986,131.596,105.811,128.369,0.00535028,0.430095,20.4169,152.937,-1.77413,0.0,0.0
1898,474.25,77.1548,82.9578,136.03,106.734,130.967,0.00503611,0.432365,20.4172,151.266,-1.87834,0.0,0.0
1971,492.5,77.1042,82.4214,135.201,106.966,134.272,0.00516992,0.429456,20.4208,149.574,-2.0872,0.0,0.0
2044,510.75,76.7345,82.172,128.921,106.666,130.098,0.00538428,0.43573,20.4108,147.913,-1.82314,0.0,0.0
2117,529,77.0842,82.4455,137.896,106.297,131.058,0.00475337,0.435904,20.4099,146.231,-1.92237,0.0,0.0
2190,547.25,77.2253,82.6029,130.811,106.561,127.509,0.0055996,0.442748,20.4025,144.54,-1.64754,0.0,0.0
2263,565.5,77.3523,82.683,132.407,106.988,131.402,0.00563679,0.452522,20.3863,142.808,-1.88698,0.0,0.0
2336,583.75,77.8707,83.4424,133.729,107.087,132.434,0.00489494,0.460118,20.3753,141.096,-1.95029,0.0,0.0
2409,602,78.1806,83.9906,130.947,107.064,130.424,0.00544985,0.463199,20.3697,139.305,-1.81184,0.0,0.0
2482,620.25,79.2078,84.7808,133.621,107.082,133.837,0.00543454,0.475243,20.3492,137.523,-2.04746,0.0,0.0
2555,638.5,80.0912,85.6123,132.228,107.061,130.985,0.00561633,0.478464,20.3442,135.772,-1.8516,0.0,0.0
2628,656.75,80.7336,86.0422,131.228,107.047,135.639,0.00571118,0.479515,20.3417,133.99,-2.17328,0.0,0.0
2701,675,81.017,87.188,128.027,106.939,132.253,0.00558535,0.483653,20.3337,132.258,-1.95043,0.0,0.0
2774,693.25,81.5677,87.7281,133.639,106.68,131.176,0.00599759,0.484467,20.3313,130.427,-1.89757,0.0,0.0
2847,711.5,82.0775,87.7741,134.049,106.221,132.941,0.00558958,0.488905,20.3219,128.655,-2.05989,0.0,0.0
2920,729.75,81.8472,88.3867,135.397,106.412,132.099,0.00580764,0.48033,20.3363,126.884,-1.98509,0.0,0.0
2993,748,81.9454,88.8264,129.377,106.771,129.99,0.00544871,0.483069,20.3331,125.112,-1.80636,0.0,0.0
3066,766.25,82.5641,88.1132,135.114,106.99,131.456,0.00580019,0.479154,20.3346,123.351,-1.89055,0.0,0.0
3139,784.5,82.2512,88.677,130.414,106.843,130.207,0.00571342,0.480552,20.3306,121.619,-1.81552,0.0,0.0
3212,802.75,82.3972,87.9605,133.963,106.391,128.306,0.00589296,0.479451,20.3324,119.847,-1.71941,0.0,0.0
3285,821,81.9179,88.7459,132.619,105.834,131.483,0.00566968,0.469321,20.3474,118.146,-1.99223,0.0,0.0
3358,839.25,82.5213,87.9701,136.773,105.73,129.664,0.00509232,0.460772,20.3595,116.484,-1.87328,0.0,0.0
3431,857.5,81.158,86.7922,134.438,106.149,128.079,0.00517925,0.45351,20.3688,114.853,-1.72411,0.0,0.0
3504,875.75,80.7504,86.7187,132.501,106.906,130.216,0.00521511,0.450476,20.3735,113.271,-1.81077,0.0,0.0
3577,894,80.6486,86.7253,135.554,107.458,132.552,0.00552446,0.447953,20.375,111.7,-1.92673,0.0,0.0
3650,912.25,80.5273,86.2571,129.428,107.563,129.971,0.00535808,0.442675,20.3794,110.139,-1.73727,0.0,0.0
3723,930.5,80.0136,85.5213,133.679,107.185,131.8,0.00532955,0.437055,20.3867,108.607,-1.8979,0.0,0.0
3796,948.75,79.59,84.8711,135.948,106.74,131.954,0.00492278,0.427631,20.4016,107.126,-1.94673,0.0,0.0
3869,967,78.7364,83.9654,134.876,107.047,129.148,0.00486062,0.420316,20.4119,105.685,-1.723,0.0,0.0
3942,985.25,78.1812,83.1633,134.932,106.989,127.699,0.00527985,0.415536,20.4191,104.263,-1.62449,0.0,0.0
4015,1003.5,77.1153,82.1847,130.624,106.332,126.296,0.00493971,0.409692,20.427,102.892,-1.57957,0.0,0.0
4088,1021.75,76.7766,82.2389,139.373,106.429,129.003,0.0048787,0.407391,20.4281,101.501,-1.76584,0.0,0.0
4161,1040,76.5396,81.2066,135.615,106.797,126.957,0.00449421,0.403621,20.4287,100.19,-1.58746,0.0,0.0
4234,1058.25,75.9001,80.7414,133.209,106.968,126.73,0.00465787,0.40316,20.4269,98.8786,-1.55634,0.0,0.0
4307,1076.5,75.9318,80.9697,131.861,106.87,125.3,0.00485775,0.400092,20.4254,97.5674,-1.46054,0.0,0.0
4380,1094.75,75.4791,80.2762,131.975,106.589,126.323,0.00480926,0.396634,20.4292,96.3663,-1.55935,0.0,0.0
4453,1113,75.1882,79.5921,137.681,106.204,125.227,0.00427304,0.389286,20.4373,95.1452,-1.51261,0.0,0.0
4526,1131.25,74.4099,79.0806,132.143,105.82,125.997,0.0046261,0.381953,20.4476,93.9942,-1.60211,0.0,0.0
4599,1149.5,74.2504,78.6776,134.364,105.643,126.133,0.00443387,0.376112,20.4555,92.7831,-1.62739,0.0,0.0
4672,1167.75,73.5935,78.0895,136.959,105.929,126.64,0.00420222,0.366438,20.4682,91.7222,-1.63939,0.0,0.0
4745,1186,73.0677,77.6663,136.099,106.334,126.106,0.00342415,0.356292,20.4846,90.7213,-1.56559,0.0,0.0
4818,1204.25,71.8925,76.9487,139.191,106.299,129.555,0.00310807,0.341794,20.5079,89.7404,-1.81634,0.0,0.0
4891,1222.5,71.5998,75.8744,137.274,105.915,128.478,0.00314139,0.327805,20.5325,88.8696,-1.77291,0.0,0.0
4964,1240.75,70.3092,74.7996,133.714,105.655,127.753,0.00271838,0.316823,20.547,87.9888,-1.74357,0.0,0.0
5037,1259,69.7819,73.699,140.203,105.945,126.73,0.00293181,0.307701,20.5612,87.1581,-1.64455,0.0,0.0
5110,1277.25,68.6423,72.5981,140.736,106.759,129.148,0.00247673,0.300977,20.5727,86.3774,-1.74776,0.0,0.0
5183,1295.5,67.8356,71.6332,136.96,106.829,130.406,0.00214172,0.293041,20.5854,85.6267,-1.83075,0.0,0.0
5256,1313.75,66.7237,70.9048,134.397,106.585,127.889,0.00205255,0.284796,20.5958,84.9761,-1.67285,0.0,0.0
5329,1332,65.9073,69.7194,142.219,106.889,128.767,0.00241418,0.276918,20.6084,84.2555,-1.7095,0.0,0.0
5402,1350.25,65.3259,68.6206,136.431,107.38,129.926,0.00237837,0.2696,20.6206,83.6049,-1.74969,0.0,0.0
5475,1368.5,64.7647,68.39,144.902,107.224,127.971,0.00198927,0.263646,20.6318,82.9543,-1.6238,0.0,0.0
5548,1386.75,63.7409,66.7579,141.254,105.738,127.944,0.00233172,0.254133,20.646,82.4038,-1.75003,0.0,0.0
5621,1405,61.9353,65.8725,144.806,106.682,126.314,0.0021104,0.245351,20.6615,81.8233,-1.55071,0.0,0.0
5694,1423.25,61.6576,64.8028,143.003,106.483,128.939,0.00196585,0.237592,20.6761,81.2528,-1.75671,0.0,0.0
5767,1441.5,60.1769,63.3191,143.749,106.802,127.781,0.00221004,0.230311,20.689,80.7724,-1.64635,0.0,0.0
5840,1459.75,59.0075,62.3159,148.217,107.499,126.83,0.00222863,0.220674,20.7075,80.312,-1.51807,0.0,0.0
5913,1478,57.4627,60.5081,147.471,105.723,126.549,0.00257714,0.210326,20.7273,79.8515,-1.65073,0.0,0.0
5986,1496.25,56.353,59.5973,147.496,107.023,126.649,0.00273205,0.198703,20.7482,79.4812,-1.54577,0.0,0.0
6059,1514.5,54.8347,57.5102,143.883,106.562,125.345,0.00316944,0.185328,20.7735,79.0608,-1.49038,0.0,0.0
6132,1532.75,52.7928,55.713,149.178,106.767,124.413,0.00409725,0.174651,20.7904,78.7305,-1.40421,0.0,0.0
6205,1551,51.128,53.6379,153.426,107.563,123.534,0.00555828,0.165936,20.8096,78.4103,-1.27099,0.0,0.0
6278,1569.25,49.2605,51.3315,150.551,106.848,123.281,0.00723493,0.154506,20.8304,78.08,-1.31329,0.0,0.0
6351,1587.5,47.0873,49.2459,154.935,106.27,122.004,0.00843704,0.148743,20.8415,77.8297,-1.26759,0.0,0.0
6424,1605.75,45.5878,47.4507,150.657,106.102,120.846,0.00859351,0.147351,20.8434,77.6095,-1.19451,0.0,0.0
6497,1624,45.0309,46.8149,150.988,105.855,120.918,0.00877184,0.145383,20.8455,77.3193,-1.2214,0.0,0.0
6570,1642.25,44.6411,46.0226,148.577,105.79,119.569,0.00864958,0.145314,20.8453,77.0991,-1.124,0.0,0.0
6643,1660.5,43.1237,44.5106,152.417,105.801,119.56,0.00861098,0.145461,20.8455,76.8789,-1.1224,0.0,0.0
6716,1678.75,42.7866,43.9659,153.662,105.863,119.297,0.00890075,0.144777,20.8466,76.5886,-1.09685,0.0,0.0
6789,1697,42.863,43.5079,154.419,106.04,120.067,0.00894269,0.144765,20.8472,76.3684,-1.14049,0.0,0.0
6862,1715.25,42.1967,42.9161,146.987,106.451,121.443,0.00915874,0.143835,20.8464,76.1482,-1.20959,0.0,0.0
6935,1733.5,41.8586,43.1178,150.277,107.182,122.14,0.00926981,0.14161,20.8492,75.918,-1.19929,0.0,0.0
7008,1751.75,41.1003,42.6246,150.741,107.616,122.367,0.00955294,0.142014,20.8481,75.6678,-1.17925,0.0,0.0
7078,1769.25,41.1631,42.6341,150.2,107.257,122.765,,,,75.4876,-1.23975,0.0,0.0

File: Composite_Deck_Board_Cone_HF75Scalar_221209_R1.csv
LABORATORY,FSRI
TEST IDENT,TREX_HF75_1
OPERATOR,Dow
MATERIAL,TREX board
ORIENTATION,Horizontal
HEAT FLUX,75
SURF AREA,0.01
C FACTOR,0.0380612
SPEC HOLDER DIFF,-566
SPECIMEN MASS,145.5
SCAN TIME,0.25
O2 DELAY TIME,11
CO DELAY TIME,11
CO2 DELAY TIME,8
FLOW FACTOR,1
SCAN COUNT,5348
TIME TO IGN,11.75
END OF TEST SCAN,4868
END OF TEST TIME,1217
TEST STATUS,1
PRE TEST CMT,Dimensions: 101.37 x 101.15 x 12.99 mm

File: Composite_Deck_Board_Cone_HF75Scalar_221209_R2.csv
LABORATORY,FSRI
TEST IDENT,TREX_HF75_2
OPERATOR,Dow
MATERIAL,TREX board
ORIENTATION,Horizontal
HEAT FLUX,75
SURF AREA,0.01
C FACTOR,0.0380612
SPEC HOLDER DIFF,-566
SPECIMEN MASS,146.25
SCAN TIME,0.25
O2 DELAY TIME,11
CO DELAY TIME,11
CO2 DELAY TIME,8
FLOW FACTOR,1
SCAN COUNT,5357
TIME TO IGN,12
END OF TEST SCAN,4877
END OF TEST TIME,1219.25
TEST STATUS,1
PRE TEST CMT,Dimensions: 101.20 x 101.35 x 13.16 mm

File: Composite_Deck_Board_Cone_HF75Scalar_221209_R3.csv
LABORATORY,FSRI
TEST IDENT,TREX_HF75_3
OPERATOR,Dow
MATERIAL,TREX board
ORIENTATION,Horizontal
HEAT FLUX,75
SURF AREA,0.01
C FACTOR,0.0380612
SPEC HOLDER DIFF,-566
SPECIMEN MASS,146.26
SCAN TIME,0.25
O2 DELAY TIME,11
CO DELAY TIME,11
CO2 DELAY TIME,8
FLOW FACTOR,1
SCAN COUNT,5399
TIME TO IGN,10.75
END OF TEST SCAN,4919
END OF TEST TIME,1229.75
TEST STATUS,1
PRE TEST CMT,Dimensions: 101.39 x 101.22 x 13.15 mm