Folder: fsri_materials_database/01_Data/Composite_Deck_Board/Cone (part 2)

File: Composite_Deck_Board_Cone_HF25Scan_221209_R3.csv
Names,Time,Stack TC,Smoke TC,Exh Press,Smoke Comp,Smoke Meas,CO Meter,CO2 Meter,O2 Meter,Sample Mass,Ext Coeff,Start Test,Flame Verif
Chan Gain,,500,500,1,1,1,1,1,1,1,1,1.0,1.0
Offset,,0,0,0.136389,0,0,0,0,0,0,0,0.0,0.0
Gain,,1,1,25.011,14.2696,296.664,1,1,1,1.0009,1.04656,1.0,1.0
Units,sec,C,C,Pa,%,%,%,%,%,g,/m,,
Baseline,,15.0973,15.8994,165.536,106.398,106.403,0.00115394,0.0709541,20.9388,-442.873,-0.000423558,,
110,27.25,15.2776,15.9277,166.366,105.557,107.41,0.000864709,0.0731573,20.941,200.76,-0.159758,0.0,0.0
220,54.75,15.6548,16.1953,167.693,106.569,107.437,0.000517504,0.0705781,20.9463,200.72,-0.0744817,0.0,0.0
330,82.25,16.1454,16.7161,165.301,105.209,106.098,0.00158594,0.067845,20.9467,200.61,-0.077215,0.0,0.0
440,109.75,16.8559,16.83,170.889,106.191,106.007,0.00146809,0.0718673,20.9416,200.49,0.0159116,0.0,0.0
550,137.25,16.8472,17.2944,164.731,106.535,106.125,0.00159189,0.0721814,20.94,200.279,0.035455,0.0,0.0
660,164.75,17.0094,17.8182,164.955,106.781,104.749,0.00205144,0.0718439,20.9428,200.009,0.176415,0.0,0.0
770,192.25,42.6768,40.3713,115.53,106.898,119.18,0.0136296,1.0663,19.3942,197.227,-0.998463,0.0,0.0
880,219.75,65.2641,69.9709,135.632,105.972,115.83,0.00835142,0.643255,20.0808,193.193,-0.816591,0.0,0.0
990,247.25,62.0337,68.1818,142.343,105.32,113.494,0.00550159,0.47582,20.349,190.401,-0.686182,0.0,0.0
1100,274.75,57.8249,65.2809,146.624,105.1,113.974,0.00522016,0.451344,20.3826,187.858,-0.744103,0.0,0.0
1210,302.25,55.9062,63.4211,140.973,105.015,114.508,0.00450901,0.424358,20.4252,185.426,-0.794523,0.0,0.0
1320,329.75,53.9887,60.8741,142.851,105.146,114.888,0.00362803,0.40209,20.4595,183.124,-0.813468,0.0,0.0
1430,357.25,53.2893,59.2614,146.169,105.748,117.604,0.00343204,0.384852,20.485,180.932,-0.975613,0.0,0.0
1540,384.75,52.4976,57.5509,143.972,106.556,118.374,0.00295103,0.373787,20.5031,178.86,-0.965553,0.0,0.0
1650,412.25,51.3368,56.5824,142.874,106.937,118.591,0.00346038,0.361612,20.5201,176.818,-0.949618,0.0,0.0
1760,439.75,50.7585,55.7085,143.095,106.989,120.755,0.0030066,0.356748,20.5297,174.847,-1.11116,0.0,0.0
1870,467.25,50.7646,55.2848,144.091,106.761,118.917,0.00272531,0.350297,20.5382,172.895,-0.98993,0.0,0.0
1980,494.75,50.7288,55.1487,151.291,106.158,117.84,0.00258982,0.346905,20.5437,170.963,-0.958389,0.0,0.0
2090,522.25,50.4841,54.2106,143.738,106.581,118.899,0.0026562,0.340975,20.5541,169.051,-1.00409,0.0,0.0
2200,549.75,50.0219,54.1957,146.088,105.949,116.708,0.00259529,0.33998,20.5569,167.18,-0.887893,0.0,0.0
2310,577.25,49.9199,53.8939,148.516,105.932,116.762,0.00236087,0.340514,20.5555,165.268,-0.893674,0.0,0.0
2420,604.75,50.51,53.6776,149.351,106.291,118.836,0.00294128,0.341998,20.5515,163.346,-1.02413,0.0,0.0
2530,632.25,50.1506,53.7054,148.82,106.089,116.88,0.00263005,0.338865,20.5584,161.465,-0.889347,0.0,0.0
2640,659.75,50.3986,53.6889,145.074,105.421,117.55,0.00231079,0.333627,20.5691,159.543,-0.999769,0.0,0.0
2750,687.25,50.8491,53.727,145.117,104.995,116.174,0.00244168,0.344653,20.5485,157.621,-0.928789,0.0,0.0
2860,714.75,51.481,54.6882,142.262,106.442,118.691,0.00272223,0.3492,20.5423,155.679,-0.999929,0.0,0.0
2970,742.25,51.5286,55.029,147.509,106.875,119.515,0.00245913,0.352649,20.5381,153.668,-1.02614,0.0,0.0
3080,769.75,52.0655,55.9344,145.895,106.352,119.75,0.00300421,0.360511,20.5314,151.636,-1.08927,0.0,0.0
3190,797.25,52.5206,55.6121,145.833,105.907,117.767,0.00250147,0.363406,20.5255,149.584,-0.9745,0.0,0.0
3300,824.75,53.2653,56.5283,145.898,106.033,117.514,0.00264353,0.363641,20.5252,147.522,-0.943815,0.0,0.0
3410,852.25,53.6554,57.1372,148.506,106.274,119.651,0.00241222,0.36781,20.5214,145.44,-1.0884,0.0,0.0
3520,879.75,53.9942,57.2649,141.85,105.718,121.588,0.00274553,0.365386,20.5215,143.358,-1.28395,0.0,0.0
3630,907.25,53.9183,57.8484,142.419,104.894,116.88,0.00281687,0.366922,20.5179,141.287,-0.9933,0.0,0.0
3740,934.75,54.2163,57.9855,144.632,105.773,119.515,0.00245532,0.361793,20.5275,139.225,-1.12134,0.0,0.0
3850,962.25,53.873,56.925,144.035,106.784,122.692,0.00270729,0.364564,20.5219,137.173,-1.27487,0.0,0.0
3960,989.75,54.5229,57.8825,146.867,106.921,119.252,0.00243822,0.362586,20.5266,135.131,-1.00202,0.0,0.0
4070,1017.25,54.2688,58.1451,142.79,106.322,120.538,0.00275667,0.362399,20.5266,133.079,-1.15209,0.0,0.0
4180,1044.75,54.5502,57.7887,145.244,106.578,120.293,0.002748,0.36284,20.5206,131.057,-1.11137,0.0,0.0
4290,1072.25,54.512,58.0904,140.933,106.53,119.641,0.00281873,0.359392,20.528,129.056,-1.06558,0.0,0.0
4400,1099.75,54.4024,58.0635,143.804,106.58,120.483,0.0025938,0.352455,20.5403,127.104,-1.12568,0.0,0.0
4510,1127.25,54.8943,58.3121,142.228,106.602,122.276,0.00257917,0.351826,20.5407,125.172,-1.25939,0.0,0.0
4620,1154.75,55.1415,58.519,144.424,106.355,122.765,0.00279341,0.346445,20.5443,123.25,-1.31727,0.0,0.0
4730,1182.25,55.1095,58.0208,146.117,105.174,120.221,0.00247402,0.343044,20.5507,121.379,-1.22754,0.0,0.0
4840,1209.75,54.4799,57.9347,144.378,106.094,121.153,0.00278928,0.338244,20.5566,119.587,-1.21855,0.0,0.0
4950,1237.25,53.7448,57.6249,144.301,106.08,119.804,0.00233139,0.331905,20.566,117.796,-1.11696,0.0,0.0
5060,1264.75,53.4652,56.7173,148.607,106.078,119.986,0.00252057,0.327815,20.5698,116.044,-1.13101,0.0,0.0
5170,1292.25,54.0149,57.2603,147.575,106.192,120.864,0.00233127,0.325918,20.5713,114.362,-1.18809,0.0,0.0
5280,1319.75,52.7579,56.5263,142.664,106.223,120.511,0.00234745,0.318941,20.5838,112.751,-1.15852,0.0,0.0
5390,1347.25,53.3315,56.2411,143.712,105.216,118.845,0.0024881,0.312942,20.5869,111.16,-1.11817,0.0,0.0
5500,1374.75,52.1084,55.7316,144.624,106.17,117.958,0.00236987,0.306343,20.5972,109.608,-0.966499,0.0,0.0
5610,1402.25,51.7956,55.2279,151.465,106.438,117.876,0.00226922,0.299288,20.606,108.147,-0.937064,0.0,0.0
5720,1429.75,51.2065,53.9691,148.226,106.779,119.596,0.00246841,0.297294,20.6076,106.706,-1.04067,0.0,0.0
5830,1457.25,50.9064,53.6917,148.801,106.997,116.12,0.00223993,0.293159,20.6099,105.324,-0.751109,0.0,0.0
5940,1484.75,50.3272,53.1282,148.884,106.931,115.278,0.00219005,0.290183,20.6126,103.973,-0.689982,0.0,0.0
6050,1512.25,49.5907,52.4014,140.843,106.356,115.812,0.00225081,0.28469,20.6193,102.682,-0.781943,0.0,0.0
6160,1539.75,48.5489,51.6274,150.811,105.703,115.604,0.00216508,0.278728,20.6265,101.441,-0.821941,0.0,0.0
6270,1567.25,48.3241,50.3752,144.844,105.377,114.599,0.00212341,0.27436,20.6299,100.26,-0.770122,0.0,0.0
6380,1594.75,47.9474,50.534,153.111,105.184,113.313,0.00232128,0.267022,20.6405,99.1488,-0.683375,0.0,0.0
6490,1622.25,46.3221,49.1433,151.263,105.161,113.965,0.00203632,0.261841,20.6459,98.0979,-0.738087,0.0,0.0
6600,1649.75,46.2997,48.3505,146.372,105.27,113.594,0.00234064,0.253556,20.6588,97.097,-0.6986,0.0,0.0
6710,1677.25,45.4954,47.9441,150.657,105.58,112.381,0.00194883,0.249217,20.6625,96.1662,-0.573029,0.0,0.0
6820,1704.75,45.394,47.3754,146.366,106.059,113.693,0.00221576,0.242745,20.6722,95.2453,-0.638126,0.0,0.0
6930,1732.25,44.1398,46.5321,149.232,106.747,113.105,0.00215491,0.236097,20.681,94.4346,-0.531122,0.0,0.0
7040,1759.75,43.546,45.5015,150.518,107.02,113.295,0.00237613,0.232173,20.69,93.6439,-0.523051,0.0,0.0
7150,1787.25,42.7463,44.9186,148.953,106.935,113.902,0.00198055,0.22661,20.6977,92.8732,-0.579396,0.0,0.0
7260,1814.75,41.9899,44.2627,149.709,106.293,112.652,0.00236076,0.224462,20.6999,92.1225,-0.533413,0.0,0.0
7370,1842.25,41.7011,43.6451,147.12,106.546,113.947,0.002313,0.221926,20.7031,91.3919,-0.616528,0.0,0.0
7480,1869.75,41.4565,43.7603,152.774,105.811,112.833,0.00208814,0.219608,20.7056,90.6712,-0.589887,0.0,0.0
7590,1897.25,40.4446,42.5269,152.44,106.289,111.312,0.00244125,0.214856,20.7144,89.9706,-0.423942,0.0,0.0
7700,1924.75,40.1895,41.7773,150.774,106.077,112.009,0.00207016,0.212214,20.7186,89.3,-0.499554,0.0,0.0
7810,1952.25,39.7996,41.4281,152.575,105.061,109.13,0.00251438,0.20981,20.722,88.6194,-0.348892,0.0,0.0
7920,1979.75,38.9784,40.6972,151.32,105.923,110.099,0.00294849,0.205115,20.73,87.9888,-0.355025,0.0,0.0
8030,2007.25,38.2023,40.2766,151.217,107.052,112.009,0.00258711,0.20266,20.7338,87.3583,-0.415558,0.0,0.0
8140,2034.75,38.0859,39.7945,152.163,106.306,110.117,0.00293178,0.199945,20.7377,86.7377,-0.323382,0.0,0.0
8250,2062.25,37.2613,38.9081,155.306,106.547,109.013,0.00310842,0.194887,20.7477,86.1372,-0.210062,0.0,0.0
8360,2089.75,36.8767,38.4917,154.524,105.969,109.828,0.00311422,0.192195,20.752,85.5567,-0.328313,0.0,0.0
8470,2117.25,36.4386,37.7722,151.028,106.289,108.288,0.00351304,0.188667,20.7589,84.9962,-0.171104,0.0,0.0
8580,2144.75,35.4034,36.7528,154.583,105.216,108.913,0.00358657,0.18166,20.768,84.4256,-0.317058,0.0,0.0
8690,2172.25,34.4373,35.6949,155.811,105.535,108.995,0.00409771,0.177355,20.7777,83.9252,-0.296077,0.0,0.0
8800,2199.75,34.0205,35.3451,159.863,106.976,109.637,0.0042693,0.171563,20.7873,83.4047,-0.225559,0.0,0.0
8910,2227.25,33.1531,34.3454,159.392,106.507,108.261,0.0048588,0.166305,20.7945,82.9243,-0.150014,0.0,0.0
9020,2254.75,32.0285,33.2102,159.755,106.667,107.401,0.00517197,0.160236,20.8044,82.4739,-0.062987,0.0,0.0
9130,2282.25,31.5065,32.1231,155.951,105.815,106.831,0.00577295,0.155056,20.8132,82.0335,-0.0877076,0.0,0.0
9240,2309.75,30.3706,32.0053,157.557,106.334,107.347,0.00622794,0.149677,20.8217,81.6131,-0.0870215,0.0,0.0
9350,2337.25,29.8493,30.802,160.131,105.719,106.65,0.00623102,0.147753,20.828,81.2028,-0.0804878,0.0,0.0
9460,2364.75,29.1929,30.0049,155.5,105.012,105.681,0.00684595,0.142663,20.8348,80.8024,-0.0583387,0.0,0.0
9570,2392.25,28.9457,29.7321,156.781,105.073,106.949,0.00677108,0.136351,20.8479,80.4521,-0.162383,0.0,0.0
9680,2419.75,27.9617,29.0378,160.286,105.707,107.329,0.00750814,0.130164,20.8578,80.1218,-0.13981,0.0,0.0
9790,2447.25,28.3816,29.358,164.526,106.328,107.247,0.0089151,0.123565,20.868,79.7715,-0.0789898,0.0,0.0
9900,2474.75,27.0601,28.3133,163.552,105.732,106.894,0.00935839,0.121622,20.8723,79.4212,-0.100332,0.0,0.0
10010,2502.25,26.6461,27.7735,161.035,106.143,108.225,0.00974093,0.120552,20.8765,79.0909,-0.178301,0.0,0.0
10120,2529.75,25.0371,25.7837,159.047,106.868,107.972,0.00983813,0.120217,20.8755,78.7706,-0.0943498,0.0,0.0
10230,2557.25,25.4788,26.3794,162.715,105.218,106.116,0.0094854,0.116796,20.8815,78.4803,-0.077945,0.0,0.0
10340,2584.75,25.0575,25.9205,159.653,105.834,106.577,0.00959546,0.116902,20.8822,78.1901,-0.0642356,0.0,0.0
10450,2612.25,24.7952,25.2752,162.996,106.949,108.189,0.00957609,0.116089,20.8825,77.8998,-0.105775,0.0,0.0
10516,2628.75,24.8403,25.6629,157.857,105.541,105.817,,,,77.7297,-0.0239505,0.0,0.0

File: Composite_Deck_Board_Cone_HF50Scalar_221209_R1.csv
LABORATORY,FSRI
TEST IDENT,TREX_HF50_1
OPERATOR,Dow
MATERIAL,TREX board
ORIENTATION,Horizontal
HEAT FLUX,50
SURF AREA,0.01
C FACTOR,0.0380612
SPEC HOLDER DIFF,-566
SPECIMEN MASS,146.25
SCAN TIME,0.25
O2 DELAY TIME,11
CO DELAY TIME,11
CO2 DELAY TIME,8
FLOW FACTOR,1
SCAN COUNT,7175
TIME TO IGN,26.25
END OF TEST SCAN,6695
END OF TEST TIME,1673.75
TEST STATUS,1
PRE TEST CMT,Dimensions: 101.23 x 101.49 x 13.11 mm

File: Composite_Deck_Board_Cone_HF50Scalar_221209_R2.csv
LABORATORY,FSRI
TEST IDENT,TREX_HF50_2
OPERATOR,Dow
MATERIAL,TREX board
ORIENTATION,Horizontal
HEAT FLUX,50
SURF AREA,0.01
C FACTOR,0.0380612
SPEC HOLDER DIFF,-566
SPECIMEN MASS,146.5
SCAN TIME,0.25
O2 DELAY TIME,11
CO DELAY TIME,11
CO2 DELAY TIME,8
FLOW FACTOR,1
SCAN COUNT,6958
TIME TO IGN,25.25
END OF TEST SCAN,6478
END OF TEST TIME,1619.5
TEST STATUS,1
PRE TEST CMT,Dimensions: 101.21 x 101.59 x 13.11 mm

File: Composite_Deck_Board_Cone_HF50Scalar_221209_R3.csv
LABORATORY,FSRI
TEST IDENT,TREX_HF50_3
OPERATOR,Dow
MATERIAL,TREX board
ORIENTATION,Horizontal
HEAT FLUX,50
SURF AREA,0.01
C FACTOR,0.0380612
SPEC HOLDER DIFF,-566
SPECIMEN MASS,146.48
SCAN TIME,0.25
O2 DELAY TIME,11
CO DELAY TIME,11
CO2 DELAY TIME,8
FLOW FACTOR,1
SCAN COUNT,7078
TIME TO IGN,26.5
END OF TEST SCAN,6598
END OF TEST TIME,1649.5
TEST STATUS,1
PRE TEST CMT,Dimensions: 101.24 x 101.63 x 13.03 mm

File: Composite_Deck_Board_Cone_HF50Scan_221209_R1.csv
Names,Time,Stack TC,Smoke TC,Exh Press,Smoke Comp,Smoke Meas,CO Meter,CO2 Meter,O2 Meter,Sample Mass,Ext Coeff,Start Test,Flame Verif
Chan Gain,,500,500,1,1,1,1,1,1,1,1,1.0,1.0
Offset,,0,0,0.136389,0,0,0,0,0,0,0,0.0,0.0
Gain,,1,1,25.011,14.2696,296.664,1,1,1,1.0009,1.04656,1.0,1.0
Units,sec,C,C,Pa,%,%,%,%,%,g,/m,,
Baseline,,27.0873,28.5797,158.799,106.111,108.333,0.00102869,0.069699,20.9437,-443.608,-0.190176,,
75,18.5,26.7486,28.4882,156.15,106.678,107.374,0.00212369,0.0712135,20.9402,200.6,-0.0596907,0.0,0.0
150,37.25,35.4368,34.7605,119.369,106.963,124.105,0.00764575,0.632683,20.1109,199.479,-1.36464,0.0,0.0
225,56,85.9069,87.8196,109.74,106.293,126.097,0.0186368,1.54985,18.6427,195.565,-1.56843,0.0,0.0
300,74.75,105.386,114.953,121.924,106.537,121.054,0.0116225,1.02579,19.475,191.922,-1.17275,0.0,0.0
375,93.5,102.13,115.116,125.347,106.007,122.339,0.00868597,0.740989,19.9419,189.18,-1.31548,0.0,0.0
450,112.25,97.2701,111.144,135.082,106.366,120.067,0.00759235,0.641595,20.0912,186.797,-1.11233,0.0,0.0
525,131,92.335,105.493,126.381,106.215,124.476,0.00702073,0.57544,20.1936,184.645,-1.45642,0.0,0.0
600,149.75,88.2103,100.738,136.858,106.245,124.956,0.0065776,0.531235,20.264,182.614,-1.48918,0.0,0.0
675,168.5,84.0109,96.0195,134.529,106.361,125.001,0.00649686,0.505914,20.3025,180.712,-1.48246,0.0,0.0
750,187.25,82.3806,92.5162,132.92,106.133,122.52,0.00667909,0.491776,20.3233,178.8,-1.31816,0.0,0.0
825,206,80.5351,89.9379,134.374,106.099,120.384,0.0062898,0.480738,20.3408,176.959,-1.15956,0.0,0.0
900,224.75,79.4147,88.3769,140.08,106.543,121.09,0.00607549,0.468696,20.3562,175.157,-1.17497,0.0,0.0
975,243.5,78.4101,86.4543,134.476,106.939,125.997,0.00634534,0.467982,20.3594,173.335,-1.50557,0.0,0.0
1050,262.25,77.8799,85.5484,131.225,106.315,124.051,0.00593398,0.462104,20.3669,171.554,-1.4164,0.0,0.0
1125,281,77.3276,84.3391,130.885,105.073,118.836,0.00660406,0.457063,20.3733,169.772,-1.12998,0.0,0.0
1200,299.75,76.7213,83.8026,135.051,106.387,117.315,0.00581532,0.451171,20.3793,167.95,-0.89764,0.0,0.0
1275,318.5,76.4429,83.0499,131.442,106.091,119.216,0.00621327,0.449339,20.382,166.229,-1.07078,0.0,0.0
1350,337.25,76.6457,82.9579,133.645,106.492,122.24,0.00639971,0.446689,20.3879,164.487,-1.26612,0.0,0.0
1425,356,76.0156,82.6971,136.58,106.591,121.968,0.00615651,0.446901,20.39,162.676,-1.23711,0.0,0.0
1500,374.75,75.9075,82.2705,141.034,105.229,117.849,0.00583903,0.444319,20.3933,160.924,-1.03981,0.0,0.0
1575,393.5,76.0768,81.9366,130.313,106.255,120.158,0.00633562,0.445881,20.3929,159.173,-1.1288,0.0,0.0
1650,412.25,76.5732,82.8883,130.829,106.511,123.661,0.00576803,0.447419,20.3911,157.371,-1.37057,0.0,0.0
1725,431,76.9844,82.9989,131.841,106.834,123.761,0.00631064,0.449387,20.3862,155.629,-1.35019,0.0,0.0
1800,449.75,77.3305,83.5772,131.307,105.509,119.904,0.00575855,0.453508,20.3818,153.798,-1.17409,0.0,0.0
1875,468.5,77.4674,83.5938,133.965,105.786,119.995,0.00592173,0.455301,20.3794,151.986,-1.15699,0.0,0.0
1950,487.25,77.8568,83.6386,130.964,106.561,122.747,0.00554914,0.457423,20.3767,150.195,-1.29819,0.0,0.0
2025,506,77.8901,84.1857,136.982,106.389,122.629,0.00631666,0.459086,20.3746,148.333,-1.30418,0.0,0.0
2100,524.75,77.9992,84.0572,129.442,105.141,121.651,0.00573457,0.462971,20.3702,146.491,-1.33902,0.0,0.0
2175,543.5,78.6435,84.6771,130.548,106.2,123.1,0.00597609,0.465447,20.3668,144.62,-1.35571,0.0,0.0
2250,562.25,79.0375,84.9335,131.478,106.323,122.367,0.0056867,0.472196,20.3532,142.808,-1.29018,0.0,0.0
2325,581,79.1583,85.4965,136.704,105.805,120.972,0.0062168,0.478581,20.3436,140.906,-1.22983,0.0,0.0
2400,599.75,80.0062,85.7696,133.132,106.321,119.795,0.00617632,0.48055,20.34,139.045,-1.09541,0.0,0.0
2475,618.5,80.0465,86.0332,127.379,106.637,124.965,0.00615015,0.479696,20.3396,137.133,-1.45604,0.0,0.0
2550,637.25,80.637,86.736,135.238,106.163,121.597,0.00591261,0.479796,20.3394,135.221,-1.24611,0.0,0.0
2625,656,80.9002,86.0801,132.93,106.275,121.597,0.00630545,0.479845,20.3371,133.38,-1.23644,0.0,0.0
2700,674.75,80.8414,87.0053,133.997,106.377,121.697,0.00593206,0.483511,20.3301,131.508,-1.23512,0.0,0.0
2775,693.5,80.864,86.733,131.47,106.513,122.077,0.00644099,0.482906,20.3293,129.626,-1.25204,0.0,0.0
2850,712.25,81.068,87.0971,130.105,106.533,119.714,0.00585955,0.482591,20.328,127.784,-1.07087,0.0,0.0
2925,731,81.3691,87.4897,125.697,106.443,121.796,0.00597892,0.485711,20.3219,125.933,-1.23695,0.0,0.0
3000,749.75,81.7673,87.7724,132.481,106.348,121.144,0.00629405,0.486469,20.3161,124.041,-1.19588,0.0,0.0
3075,768.5,82.2065,88.099,129.341,106.213,122.004,0.00609735,0.493667,20.3057,122.22,-1.27252,0.0,0.0
3150,787.25,82.1873,88.3385,128.819,106.285,118.89,0.00566958,0.474144,20.3354,120.428,-1.02889,0.0,0.0
3225,806,81.3262,86.9194,131.472,106.585,119.841,0.00587346,0.458719,20.3615,118.686,-1.07608,0.0,0.0
3300,824.75,81.1264,87.016,128.831,106.641,120.746,0.00574983,0.451197,20.3686,117.005,-1.14042,0.0,0.0
3375,843.5,80.1282,85.9651,133.631,106.421,117.505,0.00563388,0.447222,20.3762,115.273,-0.909537,0.0,0.0
3450,862.25,79.9196,85.5714,129.435,105.942,118.863,0.00540401,0.450731,20.3696,113.602,-1.05648,0.0,0.0
3525,881,79.949,85.0589,135.927,105.884,119.406,0.00559827,0.447148,20.3719,111.93,-1.10336,0.0,0.0
3600,899.75,79.1968,84.5734,130.271,106.159,118.664,0.00563129,0.441369,20.3795,110.289,-1.02231,0.0,0.0
3675,918.5,78.933,84.4324,133.736,106.43,120.194,0.0054954,0.436408,20.3848,108.717,-1.11649,0.0,0.0
3750,937.25,79.007,84.1512,138.996,106.464,120.601,0.00555934,0.430247,20.393,107.166,-1.14463,0.0,0.0
3825,956,78.2528,83.2188,135.335,106.16,116.898,0.00540187,0.424838,20.3978,105.665,-0.884591,0.0,0.0
3900,974.75,77.6356,82.8535,138.136,105.716,116.409,0.00540576,0.419148,20.4029,104.193,-0.884572,0.0,0.0
3975,993.5,76.8137,82.2087,134.37,105.302,117.469,0.00537182,0.419534,20.3997,102.672,-1.00373,0.0,0.0
4050,1012.25,76.4269,81.5018,134.744,105.153,116.21,0.00509441,0.418206,20.4014,101.281,-0.917916,0.0,0.0
4125,1031,76.4428,81.3211,134.626,105.421,116.735,0.00563249,0.41359,20.4061,99.8895,-0.935876,0.0,0.0
4200,1049.75,76.4687,81.4922,136.098,105.845,114.916,0.00506685,0.4087,20.4074,98.5183,-0.754854,0.0,0.0
4275,1068.5,75.914,80.7055,131.677,106.232,115.586,0.00518185,0.405385,20.41,97.1871,-0.774703,0.0,0.0
4350,1087.25,75.5143,80.1766,136.899,106.607,117.948,0.00476219,0.397219,20.4205,95.9159,-0.928104,0.0,0.0
4425,1106,74.6149,79.5776,134.16,106.932,114.282,0.00446485,0.390359,20.4273,94.6748,-0.610254,0.0,0.0
4500,1124.75,74.0606,78.8545,134.665,107.111,117.46,0.00470541,0.385931,20.4343,93.4437,-0.846725,0.0,0.0
4575,1143.5,73.8012,78.2709,138.904,107.111,115.631,0.0041769,0.376977,20.4468,92.3127,-0.702593,0.0,0.0
4650,1162.25,73.5143,77.852,139.247,107.108,118.066,0.0039726,0.362784,20.4665,91.2117,-0.8942,0.0,0.0
4725,1181,72.4033,77.2219,134.21,106.833,117.043,0.00369248,0.347092,20.4927,90.2709,-0.837962,0.0,0.0
4800,1199.75,71.8039,75.967,137.781,105.96,116.853,0.00354278,0.334223,20.5134,89.26,-0.898337,0.0,0.0
4875,1218.5,71.0889,75.0292,140.077,105.184,119.243,0.00292522,0.319017,20.5362,88.3592,-1.1517,0.0,0.0
4950,1237.25,69.5452,73.8598,138.11,105.495,117.097,0.00289836,0.309292,20.5516,87.5084,-0.957905,0.0,0.0
5025,1256,68.6227,72.3849,142.264,106.46,120.257,0.00291472,0.299613,20.5688,86.7377,-1.11874,0.0,0.0
5100,1274.75,67.0518,70.882,140.139,105.842,119.705,0.00238513,0.289265,20.5864,85.977,-1.12989,0.0,0.0
5175,1293.5,66.3891,70.0527,139.801,106.461,118.863,0.0024249,0.282312,20.5969,85.2464,-1.01161,0.0,0.0
5250,1312.25,65.1654,68.9528,140.675,107.113,120.284,0.0023306,0.274585,20.6081,84.5558,-1.06466,0.0,0.0
5325,1331,64.3309,68.2321,144.92,105.939,117.333,0.00227832,0.268982,20.6208,83.9252,-0.937769,0.0,0.0
5400,1349.75,63.5382,66.8356,139.043,105.24,119.08,0.00211443,0.258507,20.638,83.2946,-1.13428,0.0,0.0
5475,1368.5,62.4438,66.0871,141.785,106.428,117.025,0.00219439,0.250871,20.6505,82.7241,-0.871409,0.0,0.0
5550,1387.25,61.1232,64.254,142.71,106.116,117.668,0.00212955,0.241615,20.6647,82.1636,-0.948632,0.0,0.0
5625,1406,59.9409,62.9834,146.062,106.747,118.555,0.00234242,0.231451,20.6851,81.6231,-0.963166,0.0,0.0
5700,1424.75,58.7753,61.6413,141.488,107.21,116.355,0.00252103,0.21821,20.7075,81.1327,-0.751485,0.0,0.0
5775,1443.5,56.3317,59.9905,146.684,106.202,116.572,0.0031768,0.20182,20.741,80.7123,-0.855308,0.0,0.0
5850,1462.25,54.6073,57.7643,145.94,105.721,115.133,0.00412824,0.183624,20.7745,80.312,-0.782966,0.0,0.0
5925,1481,52.2564,55.04,146.42,106.792,113.938,0.00539994,0.168052,20.8065,79.9516,-0.594623,0.0,0.0
6000,1499.75,50.0775,52.1976,147.201,106.233,113.811,0.00749357,0.154501,20.8306,79.5913,-0.63256,0.0,0.0
6075,1518.5,47.8846,50.1068,153.215,106.591,113.721,0.00888945,0.147415,20.8451,79.3411,-0.594372,0.0,0.0
6150,1537.25,46.5618,47.6847,151.376,106.939,113.693,0.00878603,0.147365,20.8452,79.0909,-0.562261,0.0,0.0
6225,1556,44.9354,46.5815,154.708,106.824,112.897,0.00865349,0.148467,20.8429,78.8406,-0.507542,0.0,0.0
6300,1574.75,44.344,45.755,152.366,106.62,113.666,0.00883017,0.14703,20.8447,78.5804,-0.587473,0.0,0.0
6375,1593.5,43.9183,44.7779,150.858,106.486,112.181,0.00881917,0.144879,20.848,78.3202,-0.478359,0.0,0.0
6450,1612.25,43.0203,44.2844,155.179,106.538,111.176,0.00858275,0.142671,20.8508,78.09,-0.391246,0.0,0.0
6525,1631,42.5812,43.7997,150.707,106.531,112.073,0.00906022,0.143803,20.8475,77.7797,-0.465598,0.0,0.0
6600,1649.75,42.5374,43.3489,148.365,106.476,111.91,0.00917336,0.145474,20.8437,77.5395,-0.456968,0.0,0.0
6675,1668.5,42.2132,43.3518,150.71,106.743,111.756,0.0098022,0.14426,20.8445,77.2993,-0.421347,0.0,0.0
6750,1687.25,41.1133,41.8673,149.875,106.925,111.819,0.00974919,0.142526,20.846,77.049,-0.41091,0.0,0.0
6825,1706,41.2709,42.4308,150.829,106.934,112.489,0.0100053,0.142079,20.8474,76.8188,-0.464964,0.0,0.0
6900,1724.75,40.6923,41.5777,152.954,106.741,112.688,0.0104988,0.141486,20.8479,76.5786,-0.497782,0.0,0.0
6975,1743.5,40.326,41.5673,151.201,106.291,110.407,0.0106255,0.141317,20.847,76.3284,-0.348782,0.0,0.0
7050,1762.25,39.764,41.1349,149.587,106.186,111.05,0.0105844,0.141534,20.8461,76.0982,-0.411143,0.0,0.0
7125,1781,39.9804,41.3172,155.262,106.409,110.579,0.0109676,0.142011,20.8441,75.878,-0.352848,0.0,0.0
7175,1793.5,39.7912,41.0315,152.819,106.562,111.376,,,,75.7379,-0.405615,0.0,0.0