Folder: fsri_materials_database/01_Data/Composite_Deck_Board/Cone (part 4)

File: Composite_Deck_Board_Cone_HF75Scan_221209_R1.csv
Names,Time,Stack TC,Smoke TC,Exh Press,Smoke Comp,Smoke Meas,CO Meter,CO2 Meter,O2 Meter,Sample Mass,Ext Coeff,Start Test,Flame Verif
Chan Gain,,500,500,1,1,1,1,1,1,1,1,1.0,1.0
Offset,,0,0,0.136389,0,0,0,0,0,0,0,0.0,0.0
Gain,,1,1,25.011,14.2696,296.664,1,1,1,1.0009,1.04656,1.0,1.0
Units,sec,C,C,Pa,%,%,%,%,%,g,/m,,
Baseline,,40.2158,42.4819,151.592,106.881,121.578,0.000971013,0.0678724,20.9481,-445.583,-1.18256,,
55,13.5,38.776,40.8767,140.607,106.776,128.451,0.0034449,0.120168,20.8606,197.727,-1.69665,0.0,1.0
110,27.25,76.4397,76.4177,83.7281,106.501,128.568,0.0334844,2.18103,17.7193,194.755,-1.72871,0.0,0.0
165,41,128.015,140.771,103.025,107.166,136.3,0.0263858,2.07004,17.9312,190.691,-2.20768,0.0,0.0
220,54.75,132.64,150.598,108.344,107.381,137.558,0.0151752,1.22984,19.2177,187.728,-2.27368,0.0,0.0
275,68.5,130.211,149.832,120.781,106.679,133.711,0.0122818,0.976155,19.59,185.266,-2.07344,0.0,0.0
330,82.25,125.432,145.505,121.854,105.819,132.615,0.0106418,0.831455,19.8055,183.094,-2.07215,0.0,0.0
385,96,120.057,139.693,118.811,106.969,130.641,0.0102714,0.746107,19.9331,181.082,-1.83534,0.0,0.0
440,109.75,115.328,133.812,121.768,106.328,126.006,0.0101731,0.68491,20.022,179.211,-1.55883,0.0,0.0
495,123.5,111.37,129.163,130.241,106.863,132.923,0.00923584,0.647595,20.0796,177.429,-2.00333,0.0,0.0
550,137.25,108.236,124.229,125.059,107.459,134.634,0.00945907,0.633064,20.098,175.637,-2.06968,0.0,0.0
605,151,105.58,121.054,128.896,107.221,130.207,0.00962023,0.616528,20.1212,173.936,-1.78314,0.0,0.0
660,164.75,104.26,118.458,123.542,105.998,127.98,0.00929368,0.599711,20.1456,172.244,-1.73005,0.0,0.0
715,178.5,102.491,116.086,121.104,105.702,128.758,0.00900609,0.591323,20.159,170.603,-1.81138,0.0,0.0
770,192.25,101.318,114.021,128.059,106.363,129.881,0.00928436,0.583982,20.174,168.971,-1.83384,0.0,0.0
825,206,100.341,112.336,126.394,106.914,132.733,0.00906243,0.578752,20.179,167.32,-1.98581,0.0,0.0
880,219.75,99.6494,110.996,121.72,106.922,128.541,0.00921626,0.575705,20.1827,165.668,-1.69054,0.0,0.0
935,233.5,99.5903,110.244,131.57,106.621,128.659,0.009286,0.57183,20.189,164.087,-1.72485,0.0,0.0
990,247.25,99.3692,109.165,125.103,106.341,125.997,0.00910371,0.568191,20.1938,162.506,-1.55708,0.0,0.0
1045,261,98.915,108.371,124.253,106.334,125.807,0.00914725,0.56655,20.1944,160.864,-1.54382,0.0,0.0
1100,274.75,99.0366,108.342,124.441,106.776,132.751,0.00942773,0.570311,20.1879,159.263,-1.99892,0.0,0.0
1155,288.5,99.1636,108.481,125.269,107.01,131.148,0.00950546,0.562208,20.2031,157.631,-1.86731,0.0,0.0
1210,302.25,98.6591,107.678,125.759,107.103,129.13,0.00920021,0.560973,20.2035,155.99,-1.71693,0.0,0.0
1265,316,98.5453,107.648,124.966,107.112,127.934,0.00913457,0.546385,20.2236,154.418,-1.63083,0.0,0.0
1320,329.75,96.7789,105.72,128.885,107.081,131.574,0.00754747,0.501905,20.2983,152.967,-1.891,0.0,0.0
1375,343.5,95.8899,104.163,126.381,107.064,136.318,0.00650776,0.490979,20.3216,151.526,-2.21767,0.0,0.0
1430,357.25,95.2051,103.411,128.614,107.065,133.828,0.00666911,0.515121,20.2845,150.034,-2.04834,0.0,0.0
1485,371,96.2801,104.199,122.756,107.055,135.793,0.00760195,0.546732,20.2324,148.443,-2.18298,0.0,0.0
1540,384.75,97.2797,105.297,127.441,107.054,134.453,0.00774318,0.569123,20.1893,146.902,-2.09199,0.0,0.0
1595,398.5,98.6548,106.786,129.212,107.082,129.302,0.00805874,0.583897,20.1668,145.25,-1.73095,0.0,0.0
1650,412.25,100.075,107.441,123.118,107.097,133.032,0.008146,0.593849,20.1501,143.639,-1.9908,0.0,0.0
1705,426,101.831,109.67,126.088,107.06,134.435,0.00818101,0.604963,20.1331,142.037,-2.0903,0.0,0.0
1760,439.75,102.57,110.419,123.756,107,136.209,0.00788344,0.616836,20.1171,140.336,-2.21584,0.0,0.0
1815,453.5,103.048,111.678,118.293,106.862,143.552,0.0082321,0.616154,20.1156,138.724,-2.7096,0.0,0.0
1870,467.25,103.709,112.103,124.04,106.646,136.119,0.00858795,0.611582,20.1213,137.043,-2.24012,0.0,0.0
1925,481,104.113,112.941,122.324,106.459,136.562,0.00841476,0.607256,20.1272,135.411,-2.28609,0.0,0.0
1980,494.75,104.04,113.07,119.841,106.361,136.11,0.00808059,0.604652,20.1333,133.77,-2.26406,0.0,0.0
2035,508.5,104.12,113.261,123.273,106.257,132.742,0.00851286,0.602151,20.1357,132.148,-2.043,0.0,0.0
2090,522.25,104.952,113.515,123.925,106.264,135.476,0.00875729,0.604193,20.1303,130.497,-2.22964,0.0,0.0
2145,536,104.531,113.43,127.607,106.34,133.421,0.00776953,0.597227,20.1411,128.895,-2.08273,0.0,0.0
2200,549.75,104.395,112.981,123.948,106.443,135.232,0.00823768,0.585798,20.1593,127.304,-2.19757,0.0,0.0
2255,563.5,104.286,112.964,121.006,106.62,134.634,0.00842535,0.582783,20.1616,125.703,-2.14169,0.0,0.0
2310,577.25,104.42,112.548,121.4,106.794,134.58,0.00780491,0.577645,20.1695,124.141,-2.12299,0.0,0.0
2365,591,104.407,112.733,124.885,106.915,133.158,0.00830646,0.567044,20.1885,122.64,-2.01508,0.0,0.0
2420,604.75,103.156,111.755,124.833,106.947,132.461,0.00796312,0.556073,20.2054,121.119,-1.9642,0.0,0.0
2475,618.5,102.861,111.153,123.676,106.887,132.479,0.00767584,0.547651,20.2186,119.587,-1.97062,0.0,0.0
2530,632.25,102.104,110.45,125.069,106.713,132.905,0.00763251,0.548067,20.2192,118.076,-2.01503,0.0,0.0
2585,646,101.997,109.957,124.485,106.443,134.444,0.00806361,0.550808,20.2113,116.544,-2.14398,0.0,0.0
2640,659.75,102.161,110.283,122.701,106.177,132.135,0.00803498,0.544924,20.2197,115.053,-2.00791,0.0,0.0
2695,673.5,101.611,109.196,123.813,105.929,128.921,0.00754844,0.539429,20.2274,113.602,-1.80334,0.0,0.0
2750,687.25,100.82,108.802,123.676,105.731,131.248,0.00747231,0.5294,20.2447,112.191,-1.9847,0.0,0.0
2805,701,100.428,107.72,125.275,105.641,127.382,0.00773045,0.525064,20.2489,110.779,-1.71803,0.0,0.0
2860,714.75,100.448,107.733,125.569,105.672,129.935,0.0076347,0.527179,20.2426,109.368,-1.89752,0.0,0.0
2915,728.5,100.011,107.082,126.788,105.852,125.744,0.00809568,0.528892,20.2372,107.927,-1.58091,0.0,0.0
2970,742.25,99.4484,106.809,126.215,106.124,128.632,0.00813961,0.527413,20.2342,106.515,-1.7658,0.0,0.0
3025,756,99.5812,106.587,121.302,106.505,131.846,0.00801776,0.52615,20.2337,105.124,-1.95945,0.0,0.0
3080,769.75,99.0637,106.64,122.645,106.857,131.846,0.00858667,0.521535,20.2404,103.763,-1.92918,0.0,0.0
3135,783.5,98.7649,105.952,124.706,107.14,129.292,0.00809129,0.516527,20.2454,102.432,-1.72538,0.0,0.0
3190,797.25,98.5617,105.797,130.305,107.264,132.063,0.00813133,0.511314,20.2516,101.091,-1.90938,0.0,0.0
3245,811,97.8354,105.066,126.603,107.166,127.482,0.00779353,0.502819,20.2619,99.7994,-1.59363,0.0,0.0
3300,824.75,97.7804,104.85,130.217,106.898,133.457,0.00704692,0.488651,20.2865,98.5483,-2.03715,0.0,0.0
3355,838.5,96.925,104.396,128.886,106.31,129.564,0.00706606,0.477526,20.3046,97.3572,-1.816,0.0,0.0
3410,852.25,96.2394,103.318,128.186,105.72,129.618,0.00692411,0.467779,20.3169,96.1261,-1.87098,0.0,0.0
3465,866,95.9486,102.493,127.494,105.768,127.409,0.00671471,0.46176,20.3268,94.9751,-1.70894,0.0,0.0
3520,879.75,95.0327,101.434,123.728,106.534,132.425,0.00641795,0.447113,20.3473,93.8541,-1.99716,0.0,0.0
3575,893.5,94.0478,100.662,131.396,106.961,132.552,0.00595055,0.436454,20.3617,92.6931,-1.96928,0.0,0.0
3630,907.25,93.1005,99.8625,127.214,106.377,130.171,0.00608509,0.43122,20.3688,91.6621,-1.85309,0.0,0.0
3685,921,92.4532,98.8534,127.217,107.087,126.631,0.00564614,0.425218,20.3746,90.5812,-1.53896,0.0,0.0
3740,934.75,91.807,98.0182,128.622,106.904,129.139,0.00580405,0.422419,20.3761,89.5703,-1.73465,0.0,0.0
3795,948.5,91.385,97.349,127.732,107.592,128.161,0.00556595,0.41609,20.3821,88.5994,-1.60602,0.0,0.0
3850,962.25,91.0234,97.0837,126.944,106.719,128.423,0.00523115,0.411357,20.3865,87.6485,-1.69957,0.0,0.0
3905,976,90.2335,96.2537,130.254,105.69,126.54,0.00445701,0.399653,20.4036,86.7477,-1.65291,0.0,0.0
3960,989.75,89.4052,95.1789,126.839,106.393,131.167,0.00494084,0.390199,20.4178,85.877,-1.92167,0.0,0.0
4015,1003.5,88.4054,94.3818,133.482,106.973,127.862,0.00458373,0.380321,20.4308,85.0262,-1.63758,0.0,0.0
4070,1017.25,88.1241,93.8805,131.627,106.301,129.446,0.00410561,0.371278,20.4435,84.2655,-1.80849,0.0,0.0
4125,1031,87.0444,92.5706,128.273,106.863,128.84,0.00408899,0.354265,20.4687,83.4948,-1.7169,0.0,0.0
4180,1044.75,85.7974,91.3597,132.785,107.48,131.085,0.00398529,0.343396,20.4879,82.8442,-1.82269,0.0,0.0
4235,1058.5,84.0988,89.6731,129.51,106.793,131.103,0.00382511,0.327872,20.5084,82.1236,-1.8828,0.0,0.0
4290,1072.25,83.3727,88.8181,136.877,105.787,129.012,0.00324623,0.315773,20.5286,81.493,-1.82206,0.0,0.0
4345,1086,81.9509,87.1611,134.182,106.971,130.234,0.00316928,0.306372,20.5442,80.9425,-1.80648,0.0,0.0
4400,1099.75,80.9304,86.0423,135.229,106.341,129.618,0.00300947,0.295261,20.5621,80.4221,-1.81722,0.0,0.0
4455,1113.5,79.8461,84.631,138.01,107.02,127.934,0.00270641,0.283073,20.5868,79.9717,-1.63871,0.0,0.0
4510,1127.25,78.4446,83.4119,136.497,107.354,128.957,0.00260267,0.271067,20.6067,79.4011,-1.68322,0.0,0.0
4565,1141,77.1282,81.8849,134.399,107.293,130.533,0.0027945,0.260201,20.6245,78.9307,-1.79986,0.0,0.0
4620,1154.75,76.2901,80.6458,138.15,106.099,129.51,0.00229659,0.244287,20.6542,78.4103,-1.83045,0.0,0.0
4675,1168.5,73.9394,78.0483,144.748,105.825,127.509,0.00260369,0.226589,20.6873,78.1801,-1.7112,0.0,0.0
4730,1182.25,71.8498,76.2975,139.149,106.388,128.921,0.00274684,0.20118,20.7352,77.8197,-1.76365,0.0,0.0
4785,1196,68.9818,72.6075,142.9,106.848,127.102,0.00362077,0.177828,20.7813,77.5495,-1.59347,0.0,0.0
4840,1209.75,66.8102,70.0176,146.82,107.044,129.464,0.00565626,0.167082,20.8102,77.3593,-1.74576,0.0,0.0
4895,1223.5,63.3876,66.1788,144.574,107.077,126.712,0.00620656,0.172948,20.8049,77.1491,-1.54565,0.0,0.0
4950,1237.25,61.7512,64.7846,144.704,107.08,127.726,0.00567781,0.165641,20.8165,76.9489,-1.6186,0.0,0.0
5005,1251,60.5259,62.4631,143.96,107.085,127.572,0.00566239,0.162813,20.8203,76.6987,-1.60708,0.0,0.0
5060,1264.75,59.2743,61.2329,144.199,107.094,127.708,0.00525622,0.160999,20.8216,76.5186,-1.6161,0.0,0.0
5115,1278.5,58.4284,60.426,144.751,107.057,127.699,0.00531177,0.160369,20.8208,76.2884,-1.61859,0.0,0.0
5170,1292.25,57.1499,58.9512,146.204,107.009,126.83,0.00540844,0.160126,20.8222,76.0581,-1.56004,0.0,0.0
5225,1306,56.9067,58.5289,145.981,106.876,126.73,0.00547101,0.159375,20.8234,75.858,-1.56427,0.0,0.0
5280,1319.75,56.3944,57.8963,142.289,106.64,125.716,0.00567403,0.159746,20.8226,75.6878,-1.51082,0.0,0.0
5335,1333.5,55.9776,57.2383,146.634,106.272,125.001,,,,75.4977,-1.49013,0.0,0.0
5348,1336.75,55.1977,57.0508,145.661,106.176,125.816,,,,75.4876,-1.5581,0.0,0.0

File: Composite_Deck_Board_Cone_HF75Scan_221209_R2.csv
Names,Time,Stack TC,Smoke TC,Exh Press,Smoke Comp,Smoke Meas,CO Meter,CO2 Meter,O2 Meter,Sample Mass,Ext Coeff,Start Test,Flame Verif
Chan Gain,,500,500,1,1,1,1,1,1,1,1,1.0,1.0
Offset,,0,0,0.136389,0,0,0,0,0,0,0,0.0,0.0
Gain,,1,1,25.011,14.2696,296.664,1,1,1,1.0009,1.04656,1.0,1.0
Units,sec,C,C,Pa,%,%,%,%,%,g,/m,,
Baseline,,45.8519,47.7238,149.877,106.771,119.559,0.000746741,0.0688293,20.9456,-446.254,-1.03839,,
55,13.5,43.6494,45.9493,140.636,106.466,125.49,0.00335936,0.111825,20.8856,198.698,-1.50924,0.0,1.0
110,27.25,81.7599,81.1481,89.1282,106.537,135.114,0.0308298,2.1845,17.6911,195.735,-2.18151,0.0,0.0
165,41,132.033,144.462,96.116,106.667,127.328,0.0249135,2.11519,17.7855,191.562,-1.62542,0.0,0.0
220,54.75,136.724,153.505,102.738,106.932,134.453,0.0149158,1.26326,19.1805,188.569,-2.10252,0.0,0.0
275,68.5,133.506,152.554,115.547,107.042,136.164,0.0123366,0.982994,19.5886,186.047,-2.20917,0.0,0.0
330,82.25,129.132,148.224,116.477,106.736,134.489,0.0110475,0.855966,19.7753,183.885,-2.1218,0.0,0.0
385,96,124.443,142.565,119.986,106.333,131.32,0.0101115,0.768091,19.9049,181.773,-1.93766,0.0,0.0
440,109.75,119.444,137.792,117.293,107.142,131.655,0.0094843,0.701048,20.0005,179.891,-1.89146,0.0,0.0
495,123.5,115.776,132.494,121.884,106.702,131.311,0.00947396,0.66479,20.0535,178.04,-1.9052,0.0,0.0
550,137.25,112.448,128.572,117.852,107.467,135.711,0.009546,0.636009,20.0988,176.278,-2.14218,0.0,0.0
605,151,110.237,124.799,123.495,107.482,133.493,0.00907381,0.619412,20.1234,174.586,-1.98959,0.0,0.0
660,164.75,108.448,121.862,119.128,106.284,135.168,0.00970112,0.611133,20.1301,172.895,-2.20699,0.0,0.0
715,178.5,106.524,119.804,123.169,105.81,130.65,0.00892226,0.604772,20.1432,171.263,-1.93593,0.0,0.0
770,192.25,105.402,117.677,126.068,106.72,133.937,0.00888157,0.591884,20.1637,169.602,-2.08545,0.0,0.0
825,206,104.881,116.8,129.606,106.972,132.633,0.00920003,0.591305,20.1615,168.061,-1.97398,0.0,0.0
880,219.75,104.307,115.471,122.251,106.707,132.733,0.0095582,0.587555,20.1664,166.409,-2.00359,0.0,0.0
935,233.5,103.699,114.35,124.95,106.834,130.053,0.00959576,0.585833,20.1691,164.818,-1.80541,0.0,0.0
990,247.25,103.373,113.971,123.779,107.631,128.894,0.00917492,0.580905,20.1752,163.136,-1.65506,0.0,0.0
1045,261,103.071,113.366,122.783,106.014,132.434,0.0095232,0.579587,20.1818,161.505,-2.04278,0.0,0.0
1100,274.75,103.489,112.588,118.748,106.502,138.273,0.00939084,0.572605,20.19,159.913,-2.39672,0.0,0.0
1155,288.5,103.006,112.009,127.622,107.038,134.553,0.00925397,0.569779,20.1948,158.252,-2.1002,0.0,0.0
1210,302.25,102.179,111.471,119.9,106.478,129.89,0.0091111,0.562649,20.2087,156.6,-1.82456,0.0,0.0
1265,316,101.433,110.461,128.296,107.013,135.014,0.00870182,0.533322,20.251,155.089,-2.13374,0.0,0.0
1320,329.75,99.7395,108.582,128.426,107.133,135.087,0.00735929,0.489312,20.3275,153.648,-2.12844,0.0,0.0
1375,343.5,97.4974,105.974,128.015,107.597,136.499,0.00612816,0.48568,20.34,152.186,-2.18426,0.0,0.0
1430,357.25,97.9281,106.112,127.399,107.388,137.893,0.0066095,0.517925,20.2872,150.685,-2.29537,0.0,0.0
1485,371,98.598,106.718,128.894,106.781,134.634,0.00682333,0.554617,20.2323,149.104,-2.12778,0.0,0.0
1540,384.75,100.123,107.884,122.026,106.233,129.736,0.00713069,0.578918,20.1888,147.522,-1.83484,0.0,0.0
1595,398.5,101.353,109.486,124.591,105.968,131.04,0.00752723,0.591154,20.1644,145.891,-1.94958,0.0,0.0
1650,412.25,102.617,110.361,123.344,105.843,139.134,0.00780649,0.604476,20.1465,144.259,-2.51058,0.0,0.0
1705,426,103.889,112.047,118.878,105.792,134.109,0.00815563,0.609183,20.1365,142.668,-2.17737,0.0,0.0
1760,439.75,105.009,113.295,124.991,105.785,130.931,0.00791196,0.61543,20.1243,141.006,-1.95778,0.0,0.0
1815,453.5,105.822,114.298,118.918,105.806,135.141,0.00807031,0.612661,20.1282,139.325,-2.24654,0.0,0.0
1870,467.25,106.272,114.379,120.146,105.791,133.457,0.00803707,0.613777,20.125,137.733,-2.13275,0.0,0.0
1925,481,105.766,114.426,124.018,105.801,136.363,0.00805521,0.610652,20.1285,136.032,-2.32965,0.0,0.0
1980,494.75,105.738,114.834,118.592,105.794,134.58,0.00792044,0.604994,20.1379,134.39,-2.20939,0.0,0.0
2035,508.5,106.124,115.202,120.757,105.804,134.679,0.0082718,0.594811,20.1539,132.809,-2.21531,0.0,0.0
2090,522.25,106.181,114.838,121.691,105.825,133.883,0.00757782,0.589779,20.1621,131.198,-2.15903,0.0,0.0
2145,536,105.813,114.547,125.247,105.91,131.04,0.00763543,0.577659,20.1801,129.656,-1.95456,0.0,0.0
2200,549.75,104.755,113.587,121.895,106.031,131.728,0.00769233,0.57159,20.1881,128.075,-1.99222,0.0,0.0
2255,563.5,104.427,112.853,122.585,106.25,133.004,0.0074963,0.565967,20.199,126.543,-2.06178,0.0,0.0
2310,577.25,103.638,112.261,119.3,106.464,133.032,0.00757772,0.563065,20.2056,125.012,-2.04516,0.0,0.0
2365,591,103.616,112.073,125.004,106.739,133.104,0.00719276,0.561549,20.2066,123.491,-2.02649,0.0,0.0
2420,604.75,103.529,111.82,134.345,107.039,132.968,0.00771217,0.556943,20.2087,122.019,-1.99139,0.0,0.0
2475,618.5,103.53,112.264,127.289,107.281,135.195,0.00761048,0.559231,20.205,120.498,-2.12314,0.0,0.0
2530,632.25,103.126,111.733,120.739,107.472,131.339,0.00740153,0.558984,20.2055,118.987,-1.84113,0.0,0.0
2585,646,102.926,111.176,126.821,107.583,135.286,0.00752568,0.554177,20.2111,117.525,-2.10346,0.0,0.0
2640,659.75,102.717,110.948,124.327,107.622,131.818,0.00773597,0.553067,20.2105,116.024,-1.86179,0.0,0.0
2695,673.5,102.602,110.203,127.895,107.568,135.177,0.00759753,0.545366,20.2196,114.553,-2.09735,0.0,0.0
2750,687.25,102.049,110.033,120.835,107.449,132.054,0.00763944,0.54565,20.2204,113.071,-1.89296,0.0,0.0
2805,701,101.767,109.827,129.579,107.286,132.235,0.00773323,0.543221,20.2207,111.63,-1.91943,0.0,0.0
2860,714.75,101.558,109.441,126.262,107.141,131.764,0.00759789,0.547277,20.2148,110.139,-1.8991,0.0,0.0
2915,728.5,101.916,109.616,122.348,107.005,131.882,0.00785404,0.541807,20.2192,108.757,-1.91899,0.0,0.0
2970,742.25,101.74,109.371,129.911,106.875,132.841,0.00750537,0.541893,20.2202,107.316,-1.99673,0.0,0.0
3025,756,101.611,109.02,127.686,106.767,131.809,0.00721385,0.539258,20.2211,105.925,-1.93436,0.0,0.0
3080,769.75,101.234,109.179,123.173,106.675,128.378,0.00775434,0.531986,20.2296,104.574,-1.70016,0.0,0.0
3135,783.5,100.945,108.434,123.939,106.855,131.013,0.00726827,0.527351,20.2347,103.162,-1.87118,0.0,0.0
3190,797.25,100.481,108.017,124.855,107.029,130.967,0.00703038,0.521803,20.2428,101.811,-1.85306,0.0,0.0
3245,811,100.615,107.648,126.563,107.095,133.846,0.00750661,0.516288,20.2498,100.55,-2.04697,0.0,0.0
3300,824.75,99.5723,107.296,123.018,107.074,131.637,0.00730303,0.508843,20.2566,99.2389,-1.89602,0.0,0.0
3355,838.5,99.0205,105.929,124.443,106.982,125.97,0.00708614,0.503955,20.2627,97.9478,-1.49993,0.0,0.0
3410,852.25,98.5116,105.411,130.018,106.824,127.183,0.00677995,0.493516,20.2781,96.7567,-1.60145,0.0,0.0
3465,866,97.9733,105.329,125.382,106.705,129.066,0.00651814,0.486732,20.2855,95.5756,-1.74661,0.0,0.0
3520,879.75,97.6268,104.421,132.509,106.591,131.067,0.0063083,0.472506,20.3052,94.3946,-1.89769,0.0,0.0
3575,893.5,96.3,103.019,124.104,106.435,128.324,0.00586891,0.466007,20.3128,93.2836,-1.71691,0.0,0.0
3630,907.25,95.7696,102.415,124.344,106.327,128.885,0.00582802,0.45275,20.3346,92.2026,-1.7663,0.0,0.0
3685,921,94.9396,101.421,129.56,106.406,131.04,0.00638878,0.444347,20.346,91.1517,-1.91174,0.0,0.0
3740,934.75,93.9735,100.137,127.33,106.585,126.06,0.00545651,0.43681,20.3558,90.1608,-1.54063,0.0,0.0
3795,948.5,93.2417,99.7571,129.081,106.767,127.364,0.00559279,0.426214,20.3683,89.2099,-1.61946,0.0,0.0
3850,962.25,92.5917,98.7423,131.463,106.935,132.054,0.00513065,0.417046,20.3795,88.2491,-1.93693,0.0,0.0
3905,976,91.3578,97.7943,129.809,107.03,129.763,0.00483458,0.408864,20.3943,87.3282,-1.76815,0.0,0.0
3960,989.75,90.5306,96.7793,129.483,107.044,125.481,0.00493835,0.399733,20.4059,86.4475,-1.45885,0.0,0.0
4015,1003.5,89.8148,95.9558,128.899,106.952,127.69,0.00452234,0.390295,20.4181,85.6167,-1.62702,0.0,0.0
4070,1017.25,89.0361,94.8616,135.333,106.743,129.392,0.00396593,0.381186,20.4315,84.816,-1.76654,0.0,0.0
4125,1031,88.3076,93.8048,130.763,106.492,128.478,0.00383333,0.36998,20.447,84.0353,-1.72299,0.0,0.0
4180,1044.75,87.002,92.8028,132.069,106.205,126.386,0.00367558,0.35786,20.4604,83.3147,-1.59714,0.0,0.0
4235,1058.5,86.4778,91.9467,134.426,105.99,122.792,0.00359909,0.345835,20.4777,82.6541,-1.35089,0.0,0.0
4290,1072.25,85.2136,90.929,135.419,105.84,125.744,0.00331153,0.333239,20.4995,82.0435,-1.58193,0.0,0.0
4345,1086,84.1605,89.7962,134.32,105.771,121.516,0.00310277,0.324002,20.5149,81.433,-1.27395,0.0,0.0
4400,1099.75,83.4131,88.2998,136.772,105.809,124.612,0.00351392,0.312231,20.534,80.8424,-1.50161,0.0,0.0
4455,1113.5,81.3608,86.3071,136.286,106.038,121.09,0.00340061,0.304006,20.5499,80.2619,-1.21853,0.0,0.0
4510,1127.25,80.299,85.7785,137.379,106.424,124.286,0.00265096,0.292533,20.57,79.7715,-1.42434,0.0,0.0
4565,1141,79.1659,84.1219,141.428,106.851,126.042,0.0029781,0.277596,20.598,79.241,-1.51642,0.0,0.0
4620,1154.75,77.8157,82.3731,134.044,107.213,126.015,0.00317059,0.262546,20.6258,78.8306,-1.48337,0.0,0.0
4675,1168.5,75.9261,80.1585,139.775,107.516,126.205,0.00266173,0.243874,20.6624,78.4303,-1.47133,0.0,0.0
4730,1182.25,73.8286,77.8832,138.89,107.609,127.21,0.00325542,0.218682,20.7108,78.0599,-1.53622,0.0,0.0
4785,1196,70.6592,74.8197,141.658,107.443,127.998,0.00388429,0.195628,20.7548,77.7497,-1.60702,0.0,0.0
4840,1209.75,67.7915,71.2903,142.402,107.083,125.843,0.0048997,0.172545,20.7994,77.5195,-1.48202,0.0,0.0
4895,1223.5,64.6477,67.9912,143.527,106.697,126.305,0.00528838,0.167585,20.8116,77.3393,-1.54874,0.0,0.0
4950,1237.25,63.2192,65.3031,144.129,107.057,126.513,0.00501637,0.164575,20.8197,77.0791,-1.533,0.0,0.0
5005,1251,61.2189,63.5832,144.756,107.082,126.269,0.00506331,0.163547,20.8182,76.8889,-1.51305,0.0,0.0
5060,1264.75,60.0421,62.4809,144.711,106.557,125.508,0.00555448,0.162164,20.8196,76.6687,-1.50276,0.0,0.0
5115,1278.5,58.7135,60.8418,145.482,106.411,125.888,0.00567393,0.162054,20.8199,76.4785,-1.54311,0.0,0.0
5170,1292.25,58.2676,59.8934,148.59,106.835,124.539,0.00574261,0.161817,20.8196,76.2783,-1.40769,0.0,0.0
5225,1306,57.8623,59.2251,145.614,107.049,124.087,0.00582311,0.161379,20.822,76.0782,-1.35586,0.0,0.0
5280,1319.75,56.9629,58.7176,144.456,107.022,127.264,0.00619565,0.16145,20.8245,75.898,-1.59032,0.0,0.0
5335,1333.5,56.8506,58.1168,143.167,106.965,125.273,,,,75.7379,-1.4504,0.0,0.0
5357,1339,56.7433,57.9669,146.704,106.963,125.074,,,,75.5877,-1.43594,0.0,0.0