Folder: fsri_materials_database/01_Data/Polyester_Bed_Skirt/FTIR/IS

Note: README.md
# Materials and Products Database
### Repository of materials and products properties and fire test data to improve fire modeling and fire investigation.

This project was supported in part by Award No. 2019-DU-BX-0018, awarded by the National Institute of Justice, Office of Justice Programs, U.S. Department of Justice. The opinions, findings, and conclusions or recommendations expressed in this publication / program / exhibition are those of the author(s) and do not necessarily reflect those of the Department of Justice.

***
***

__Cite this database:__ "McKinnon, M., Weinschenk, C., Dow, N., DiDomizio, M., and Madrzykowski, D. Materials and Products Database (Version 1.0.0), Fire Safety Research Institute, UL Research Institutes. Columbia, MD 21045, 2023."

__Cite the Technical Reference Guide:__ "McKinnon, M., Weinschenk, C., and Madrzykowski, D. Materials and Products Database - Technical Reference Guide, Fire Safety Research Institute, UL Research Institutes. Columbia, MD 21045, 2023."

__Cite the User Guide:__ "McKinnon, M., and Weinschenk, C. Materials and Products Database - User Guide, Fire Safety Research Institute, UL Research Institutes. Columbia, MD 21045, 2023."

***
***

## Database Structure

## 01_Data/
Raw data generated from each apparatus are included here in plain-text format. The data is organized first by material, next by the short name of test apparatus used, and where applicable additional filtering by test settings.

### Test Apparatus and Data File Structure
- __Cone Calorimeter__ (Cone)
    + Data file structure includes the material, the short name for the apparatus, heat flux setting and scan/scalar, date of test, and replicate number. Scan is for the raw output data and scalar is for the initial conditions and high-level test parameters. 
        * Example: __MDF_Cone_HF25scalar_210323_R1__ stands for the first replicate of scalar data generated from a medium density fiber board test in cone calorimeter exposed to 25 kW/m<sup>2</sup> on March 23, 2021.
    + A _Cone_Notes.csv_ is generated for each material from the __plot_Cone_data.py__ script. For materials whose experiments deviated from typical behavior relevant pictures are included in the respective material directory.
- __Fourier Transform Infrared Spectrometer__ (FTIR)
    + The FTIR directory contains subdirectories for the Attenuated Total Reflectance method (ATR) and the Integrating Sphere (IS)
    + Data file structure for the ATR experiment files includes the material, the abbreviated name for the apparatus, date of test, and replicate number. 
        * Example: __MDF_ATR_210323_R5__ stands for the fifth replicate of data collected with the ATR accessory conducted on June 8, 2021.
    + Data file structure for the IS experiment files includes the material, the abbreviated name for the apparatus, the measurand, whether the test is a sample measurement or standard reference, date of test, and replicate number.
        * Example: __OSB_IS_REFLECT_MEAS_2

File: Polyester_Bed_Skirt_IS_S_220822_R1.dpt
7497.03,0.32475
7473.89,0.31303
7450.74,0.31354
7427.6,0.31221
7404.45,0.31485
7381.31,0.31691
7358.16,0.31634
7335.02,0.31495
7311.87,0.31120
7288.73,0.31275
7265.58,0.31325
7242.44,0.31315
7219.29,0.30793
7196.15,0.31039
7173,0.31190
7149.86,0.30735
7126.71,0.30826
7103.57,0.30607
7080.42,0.31166
7057.28,0.30923
7034.13,0.30583
7010.99,0.30881
6987.84,0.30712
6964.7,0.30644
6941.55,0.31678
6918.41,0.30713
6895.26,0.30891
6872.12,0.30884
6848.97,0.31327
6825.83,0.31461
6802.68,0.30591
6779.54,0.30965
6756.39,0.31101
6733.25,0.30934
6710.1,0.30925
6686.96,0.30954
6663.82,0.31070
6640.67,0.31090
6617.53,0.31478
6594.38,0.31254
6571.24,0.31511
6548.09,0.31417
6524.95,0.30881
6501.8,0.31214
6478.66,0.31105
6455.51,0.31258
6432.37,0.30979
6409.22,0.31264
6386.08,0.30622
6362.93,0.31295
6339.79,0.31117
6316.64,0.31033
6293.5,0.30913
6270.35,0.30734
6247.21,0.31051
6224.06,0.30990
6200.92,0.30888
6177.77,0.31193
6154.63,0.30749
6131.48,0.30762
6108.34,0.30705
6085.19,0.30556
6062.05,0.30424
6038.9,0.30689
6015.76,0.30778
5992.61,0.30481
5969.47,0.30372
5946.32,0.29831
5923.18,0.28835
5900.03,0.27533
5876.89,0.26806
5853.74,0.25846
5830.6,0.26759
5807.45,0.25870
5784.31,0.26027
5761.16,0.25976
5738.02,0.26891
5714.87,0.27517
5691.73,0.27721
5668.58,0.27867
5645.44,0.28014
5622.29,0.28123
5599.15,0.28516
5576,0.28440
5552.86,0.28501
5529.71,0.28542
5506.57,0.28444
5483.42,0.28564
5460.28,0.28481
5437.13,0.28732
5413.99,0.28940
5390.84,0.29121
5367.7,0.29136
5344.55,0.29099
5321.41,0.29132
5298.26,0.29138
5275.12,0.29199
5251.97,0.29143
5228.83,0.29090
5205.68,0.29134
5182.54,0.29199
5159.39,0.29145
5136.25,0.29115
5113.1,0.29056
5089.96,0.29061
5066.81,0.29035
5043.67,0.28988
5020.52,0.29188
4997.38,0.29134
4974.23,0.29382
4951.09,0.29302
4927.94,0.29312
4904.8,0.29405
4881.65,0.29351
4858.51,0.29216
4835.36,0.29206
4812.22,0.29100
4789.07,0.29194
4765.93,0.29301
4742.78,0.29277
4719.64,0.29159
4696.49,0.29122
4673.35,0.29133
4650.2,0.29021
4627.06,0.29045
4603.92,0.28797
4580.77,0.28468
4557.63,0.28450
4534.48,0.28342
4511.34,0.28256
4488.19,0.28078
4465.05,0.27786
4441.9,0.26584
4418.76,0.22924
4395.61,0.18839
4372.47,0.20103
4349.32,0.19801
4326.18,0.14730
4303.03,0.16242
4279.89,0.17575
4256.74,0.16565
4233.6,0.15929
4210.45,0.17114
4187.31,0.18603
4164.16,0.17650
4141.02,0.18979
4117.87,0.18572
4094.73,0.19786
4071.58,0.17666
4048.44,0.18237
4025.29,0.20329
4002.15,0.21075
3979,0.21748
3955.86,0.22354
3932.71,0.22018
3909.57,0.22743
3886.42,0.22922
3863.28,0.23232
3840.13,0.23547
3816.99,0.23347
3793.84,0.23608
3770.7,0.23316
3747.55,0.23694
3724.41,0.24116
3701.26,0.24195
3678.12,0.24578
3654.97,0.25575
3631.83,0.25116
3608.68,0.25744
3585.54,0.25405
3562.39,0.25658
3539.25,0.25310
3516.1,0.25026
3492.96,0.24745
3469.81,0.24132
3446.67,0.23145
3423.52,0.22124
3400.38,0.21957
3377.23,0.21587
3354.09,0.20807
3330.94,0.20808
3307.8,0.17680
3284.65,0.18975
3261.51,0.20473
3238.36,0.20143
3215.22,0.17067
3192.07,0.15564
3168.93,0.16177
3145.78,0.15684
3122.64,0.16440
3099.49,0.16725
3076.35,0.16246
3053.2,0.15066
3030.06,0.13287
3006.91,0.09032
2983.77,0.03637
2960.62,0.02916
2937.48,0.03045
2914.33,0.03747
2891.19,0.03457
2868.04,0.03460
2844.9,0.03353
2821.75,0.04979
2798.61,0.07735
2775.46,0.11755
2752.32,0.13054
2729.17,0.10181
2706.03,0.12352
2682.88,0.13255
2659.74,0.13340
2636.59,0.14618
2613.45,0.12323
2590.3,0.11808
2567.16,0.12113
2544.02,0.12246
2520.87,0.08198
2497.73,0.10908
2474.58,0.17561
2451.44,0.19501
2428.29,0.18776
2405.15,0.19587
2382,0.20089
2358.86,0.19879
2335.71,0.20939
2312.57,0.22008
2289.42,0.22211
2266.28,0.21348
2243.13,0.21808
2219.99,0.21798
2196.84,0.21302
2173.7,0.20922
2150.55,0.21028
2127.41,0.20927
2104.26,0.23536
2081.12,0.24053
2057.97,0.24544
2034.83,0.24401
2011.68,0.24518
1988.54,0.24350
1965.39,0.24169
1942.25,0.24212
1919.1,0.23637
1895.96,0.22933
1872.81,0.23369
1849.67,0.22455
1826.52,0.21078
1803.38,0.12534
1780.23,0.16962
1757.09,0.16752
1733.94,0.13941
1710.8,0.16425
1687.65,0.16528
1664.51,0.16540
1641.36,0.12246
1618.22,0.14989
1595.07,0.14775
1571.93,0.14739
1548.78,0.14090
1525.64,0.11520
1502.49,0.08220
1479.35,0.05227
1456.2,0.03974
1433.06,0.04722
1409.91,0.06099
1386.77,0.05688
1363.62,0.06508
1340.48,0.10548
1317.33,0.12254
1294.19,0.13162
1271.04,0.16330
1247.9,0.15808
1224.75,0.16814
1201.61,0.17396
1178.46,0.12949
1155.32,0.09633
1132.17,0.20785
1109.03,0.18470
1085.88,0.20840
1062.74,0.21227
1039.59,0.18307
1016.45,0.17288
993.304,0.09339
970.159,0.07541
947.014,0.19560
923.869,0.22978
900.724,0.14133
877.579,0.04886
854.434,0.17065
831.289,0.17048
808.144,0.12677
784.999,0.21768
761.854,0.24240
738.709,0.23562
715.565,0.07851
692.42,0.23689
669.275,0.24442
646.13,0.23506
622.985,0.22376
599.84,0.20624

File: Polyester_Bed_Skirt_IS_S_220822_R2.dpt
7497.03,0.31435
7473.89,0.31522
7450.74,0.32030
7427.6,0.32572
7404.45,0.31393
7381.31,0.31760
7358.16,0.31612
7335.02,0.31733
7311.87,0.31114
7288.73,0.31457
7265.58,0.31021
7242.44,0.31359
7219.29,0.30183
7196.15,0.30748
7173,0.30891
7149.86,0.31067
7126.71,0.30590
7103.57,0.30288
7080.42,0.31937
7057.28,0.31568
7034.13,0.31169
7010.99,0.31370
6987.84,0.31320
6964.7,0.31121
6941.55,0.31652
6918.41,0.30696
6895.26,0.31359
6872.12,0.31243
6848.97,0.30969
6825.83,0.31209
6802.68,0.31201
6779.54,0.31403
6756.39,0.31732
6733.25,0.31051
6710.1,0.30654
6686.96,0.30902
6663.82,0.31244
6640.67,0.31748
6617.53,0.31021
6594.38,0.30873
6571.24,0.30922
6548.09,0.31265
6524.95,0.31099
6501.8,0.31367
6478.66,0.31131
6455.51,0.31078
6432.37,0.30929
6409.22,0.31253
6386.08,0.31367
6362.93,0.31272
6339.79,0.31276
6316.64,0.31148
6293.5,0.31124
6270.35,0.30689
6247.21,0.30689
6224.06,0.30750
6200.92,0.30810
6177.77,0.30755
6154.63,0.30837
6131.48,0.30657
6108.34,0.30760
6085.19,0.30760
6062.05,0.30469
6038.9,0.30433
6015.76,0.30648
5992.61,0.30472
5969.47,0.30360
5946.32,0.30346
5923.18,0.28855
5900.03,0.27458
5876.89,0.26778
5853.74,0.25591
5830.6,0.26656
5807.45,0.25938
5784.31,0.25905
5761.16,0.25907
5738.02,0.27156
5714.87,0.27643
5691.73,0.27775
5668.58,0.27803
5645.44,0.27929
5622.29,0.28030
5599.15,0.28482
5576,0.28447
5552.86,0.28577
5529.71,0.28264
5506.57,0.28237
5483.42,0.28385
5460.28,0.28420
5437.13,0.28457
5413.99,0.28783
5390.84,0.29160
5367.7,0.29220
5344.55,0.29213
5321.41,0.29014
5298.26,0.29096
5275.12,0.29055
5251.97,0.29087
5228.83,0.29192
5205.68,0.29121
5182.54,0.29135
5159.39,0.29122
5136.25,0.29211
5113.1,0.28976
5089.96,0.28978
5066.81,0.29031
5043.67,0.29033
5020.52,0.29115
4997.38,0.29169
4974.23,0.29222
4951.09,0.29314
4927.94,0.29318
4904.8,0.29329
4881.65,0.29318
4858.51,0.29293
4835.36,0.29214
4812.22,0.29082
4789.07,0.29183
4765.93,0.29158
4742.78,0.29214
4719.64,0.29271
4696.49,0.29227
4673.35,0.29113
4650.2,0.29033
4627.06,0.28845
4603.92,0.28739
4580.77,0.28556
4557.63,0.28365
4534.48,0.28344
4511.34,0.28297
4488.19,0.28135
4465.05,0.27668
4441.9,0.26511
4418.76,0.22873
4395.61,0.18811
4372.47,0.20184
4349.32,0.19857
4326.18,0.14642
4303.03,0.16240
4279.89,0.17592
4256.74,0.16568
4233.6,0.15933
4210.45,0.17114
4187.31,0.18602
4164.16,0.17698
4141.02,0.18964
4117.87,0.18524
4094.73,0.19790
4071.58,0.17675
4048.44,0.18220
4025.29,0.20332
4002.15,0.21123
3979,0.21783
3955.86,0.22346
3932.71,0.22050
3909.57,0.22684
3886.42,0.22873
3863.28,0.23200
3840.13,0.23603
3816.99,0.23406
3793.84,0.23593
3770.7,0.23341
3747.55,0.23682
3724.41,0.24078
3701.26,0.24160
3678.12,0.24602
3654.97,0.25623
3631.83,0.25146
3608.68,0.25748
3585.54,0.25371
3562.39,0.25617
3539.25,0.25362
3516.1,0.25006
3492.96,0.24697
3469.81,0.24172
3446.67,0.23178
3423.52,0.22076
3400.38,0.21965
3377.23,0.21657
3354.09,0.20787
3330.94,0.20762
3307.8,0.17655
3284.65,0.18932
3261.51,0.20468
3238.36,0.20126
3215.22,0.17126
3192.07,0.15597
3168.93,0.16214
3145.78,0.15652
3122.64,0.16478
3099.49,0.16745
3076.35,0.16290
3053.2,0.15071
3030.06,0.13266
3006.91,0.09022
2983.77,0.03623
2960.62,0.02931
2937.48,0.03014
2914.33,0.03705
2891.19,0.03440
2868.04,0.03369
2844.9,0.03386
2821.75,0.04953
2798.61,0.07699
2775.46,0.11740
2752.32,0.13053
2729.17,0.10215
2706.03,0.12325
2682.88,0.13259
2659.74,0.13350
2636.59,0.14631
2613.45,0.12266
2590.3,0.11771
2567.16,0.12100
2544.02,0.12283
2520.87,0.08204
2497.73,0.10892
2474.58,0.17625
2451.44,0.19539
2428.29,0.18764
2405.15,0.19626
2382,0.20077
2358.86,0.19894
2335.71,0.20935
2312.57,0.21967
2289.42,0.22218
2266.28,0.21351
2243.13,0.21814
2219.99,0.21769
2196.84,0.21269
2173.7,0.20956
2150.55,0.21046
2127.41,0.20905
2104.26,0.23553
2081.12,0.24063
2057.97,0.24567
2034.83,0.24366
2011.68,0.24480
1988.54,0.24360
1965.39,0.24174
1942.25,0.24203
1919.1,0.23605
1895.96,0.22917
1872.81,0.23363
1849.67,0.22476
1826.52,0.21074
1803.38,0.12517
1780.23,0.17039
1757.09,0.16718
1733.94,0.13946
1710.8,0.16432
1687.65,0.16514
1664.51,0.16581
1641.36,0.12275
1618.22,0.14963
1595.07,0.14754
1571.93,0.14752
1548.78,0.14127
1525.64,0.11514
1502.49,0.08214
1479.35,0.05235
1456.2,0.04004
1433.06,0.04767
1409.91,0.06102
1386.77,0.05672
1363.62,0.06493
1340.48,0.10574
1317.33,0.12288
1294.19,0.13189
1271.04,0.16405
1247.9,0.15824
1224.75,0.16766
1201.61,0.17375
1178.46,0.12956
1155.32,0.09666
1132.17,0.20772
1109.03,0.18383
1085.88,0.20829
1062.74,0.21233
1039.59,0.18245
1016.45,0.17273
993.304,0.09330
970.159,0.07586
947.014,0.19554
923.869,0.22917
900.724,0.14176
877.579,0.04807
854.434,0.16975
831.289,0.16917
808.144,0.12724
784.999,0.21877
761.854,0.24208
738.709,0.23579
715.565,0.07795
692.42,0.23668
669.275,0.24527
646.13,0.23789
622.985,0.22551
599.84,0.20519

File: Polyester_Bed_Skirt_IS_S_220822_R3.dpt
7497.03,0.31248
7473.89,0.31217
7450.74,0.31312
7427.6,0.31194
7404.45,0.32585
7381.31,0.31435
7358.16,0.31380
7335.02,0.31261
7311.87,0.32179
7288.73,0.31674
7265.58,0.30822
7242.44,0.30193
7219.29,0.30990
7196.15,0.30623
7173,0.31409
7149.86,0.31197
7126.71,0.31114
7103.57,0.30994
7080.42,0.30836
7057.28,0.31393
7034.13,0.31441
7010.99,0.30995
6987.84,0.31066
6964.7,0.31353
6941.55,0.30940
6918.41,0.30942
6895.26,0.30784
6872.12,0.31256
6848.97,0.31146
6825.83,0.31239
6802.68,0.31339
6779.54,0.31159
6756.39,0.30992
6733.25,0.31124
6710.1,0.31351
6686.96,0.31395
6663.82,0.31395
6640.67,0.31087
6617.53,0.31207
6594.38,0.31170
6571.24,0.31145
6548.09,0.31255
6524.95,0.31291
6501.8,0.31467
6478.66,0.30919
6455.51,0.31257
6432.37,0.31368
6409.22,0.31063
6386.08,0.31239
6362.93,0.31139
6339.79,0.31238
6316.64,0.30934
6293.5,0.30868
6270.35,0.30942
6247.21,0.31039
6224.06,0.30723
6200.92,0.30983
6177.77,0.30797
6154.63,0.30820
6131.48,0.30510
6108.34,0.30530
6085.19,0.30542
6062.05,0.30517
6038.9,0.30748
6015.76,0.30634
5992.61,0.30377
5969.47,0.30100
5946.32,0.30019
5923.18,0.28886
5900.03,0.27297
5876.89,0.26849
5853.74,0.25874
5830.6,0.26549
5807.45,0.25647
5784.31,0.25988
5761.16,0.25726
5738.02,0.26876
5714.87,0.27496
5691.73,0.27774
5668.58,0.27818
5645.44,0.27855
5622.29,0.28064
5599.15,0.28503
5576,0.28333
5552.86,0.28449
5529.71,0.28170
5506.57,0.28339
5483.42,0.28218
5460.28,0.28357
5437.13,0.28540
5413.99,0.28776
5390.84,0.29102
5367.7,0.29231
5344.55,0.29157
5321.41,0.29050
5298.26,0.29025
5275.12,0.29006
5251.97,0.29075
5228.83,0.28892
5205.68,0.29000
5182.54,0.29077
5159.39,0.29125
5136.25,0.29001
5113.1,0.29022
5089.96,0.29094
5066.81,0.28947
5043.67,0.29000
5020.52,0.29108
4997.38,0.29303
4974.23,0.29222
4951.09,0.29264
4927.94,0.29238
4904.8,0.29379
4881.65,0.29399
4858.51,0.29128
4835.36,0.29269
4812.22,0.29240
4789.07,0.29148
4765.93,0.29289
4742.78,0.29186
4719.64,0.29143
4696.49,0.29215
4673.35,0.29180
4650.2,0.28936
4627.06,0.28981
4603.92,0.28720
4580.77,0.28487
4557.63,0.28358
4534.48,0.28315
4511.34,0.28261
4488.19,0.28129
4465.05,0.27804
4441.9,0.26603
4418.76,0.22898
4395.61,0.18814
4372.47,0.20000
4349.32,0.19809
4326.18,0.14671
4303.03,0.16169
4279.89,0.17568
4256.74,0.16533
4233.6,0.15999
4210.45,0.17127
4187.31,0.18570
4164.16,0.17713
4141.02,0.18943
4117.87,0.18496
4094.73,0.19779
4071.58,0.17549
4048.44,0.18189
4025.29,0.20349
4002.15,0.21015
3979,0.21752
3955.86,0.22296
3932.71,0.22051
3909.57,0.22664
3886.42,0.22922
3863.28,0.23269
3840.13,0.23475
3816.99,0.23347
3793.84,0.23612
3770.7,0.23316
3747.55,0.23685
3724.41,0.24138
3701.26,0.24145
3678.12,0.24567
3654.97,0.25559
3631.83,0.25118
3608.68,0.25655
3585.54,0.25403
3562.39,0.25605
3539.25,0.25327
3516.1,0.25058
3492.96,0.24750
3469.81,0.24099
3446.67,0.23138
3423.52,0.22061
3400.38,0.21972
3377.23,0.21669
3354.09,0.20837
3330.94,0.20809
3307.8,0.17667
3284.65,0.18999
3261.51,0.20400
3238.36,0.20137
3215.22,0.17135
3192.07,0.15568
3168.93,0.16223
3145.78,0.15646
3122.64,0.16411
3099.49,0.16748
3076.35,0.16246
3053.2,0.15020
3030.06,0.13275
3006.91,0.09025
2983.77,0.03613
2960.62,0.02833
2937.48,0.03048
2914.33,0.03731
2891.19,0.03442
2868.04,0.03412
2844.9,0.03370
2821.75,0.04935
2798.61,0.07709
2775.46,0.11706
2752.32,0.13014
2729.17,0.10168
2706.03,0.12326
2682.88,0.13228
2659.74,0.13377
2636.59,0.14645
2613.45,0.12304
2590.3,0.11762
2567.16,0.12062
2544.02,0.12247
2520.87,0.08175
2497.73,0.10907
2474.58,0.17594
2451.44,0.19523
2428.29,0.18764
2405.15,0.19592
2382,0.20043
2358.86,0.19877
2335.71,0.20942
2312.57,0.21958
2289.42,0.22188
2266.28,0.21359
2243.13,0.21779
2219.99,0.21779
2196.84,0.21278
2173.7,0.20907
2150.55,0.21032
2127.41,0.20878
2104.26,0.23524
2081.12,0.24015
2057.97,0.24585
2034.83,0.24386
2011.68,0.24468
1988.54,0.24348
1965.39,0.24146
1942.25,0.24161
1919.1,0.23625
1895.96,0.22913
1872.81,0.23346
1849.67,0.22484
1826.52,0.21003
1803.38,0.12538
1780.23,0.17006
1757.09,0.16751
1733.94,0.13970
1710.8,0.16419
1687.65,0.16508
1664.51,0.16557
1641.36,0.12261
1618.22,0.14939
1595.07,0.14739
1571.93,0.14755
1548.78,0.14074
1525.64,0.11505
1502.49,0.08230
1479.35,0.05200
1456.2,0.04011
1433.06,0.04697
1409.91,0.06085
1386.77,0.05649
1363.62,0.06525
1340.48,0.10572
1317.33,0.12206
1294.19,0.13168
1271.04,0.16337
1247.9,0.15815
1224.75,0.16794
1201.61,0.17389
1178.46,0.12942
1155.32,0.09644
1132.17,0.20766
1109.03,0.18377
1085.88,0.20885
1062.74,0.21275
1039.59,0.18322
1016.45,0.17273
993.304,0.09366
970.159,0.07568
947.014,0.19584
923.869,0.22898
900.724,0.14153
877.579,0.04870
854.434,0.17061
831.289,0.17017
808.144,0.12680
784.999,0.21845
761.854,0.24220
738.709,0.23581
715.565,0.07779
692.42,0.23775
669.275,0.24417
646.13,0.23729
622.985,0.22489
599.84,0.20742

File: Polyester_Bed_Skirt_IS_S_220822_R4.dpt
7497.03,0.31885
7473.89,0.30963
7450.74,0.31810
7427.6,0.31895
7404.45,0.31631
7381.31,0.31089
7358.16,0.31938
7335.02,0.31415
7311.87,0.30895
7288.73,0.31466
7265.58,0.31620
7242.44,0.30728
7219.29,0.31204
7196.15,0.30456
7173,0.30867
7149.86,0.31198
7126.71,0.31201
7103.57,0.30755
7080.42,0.30898
7057.28,0.31311
7034.13,0.30729
7010.99,0.30792
6987.84,0.30463
6964.7,0.30885
6941.55,0.30898
6918.41,0.31565
6895.26,0.30789
6872.12,0.31220
6848.97,0.30918
6825.83,0.31039
6802.68,0.30853
6779.54,0.31219
6756.39,0.31247
6733.25,0.31135
6710.1,0.31156
6686.96,0.31350
6663.82,0.30779
6640.67,0.31089
6617.53,0.31344
6594.38,0.31483
6571.24,0.31433
6548.09,0.30863
6524.95,0.31289
6501.8,0.31010
6478.66,0.31241
6455.51,0.31268
6432.37,0.31352
6409.22,0.31299
6386.08,0.31109
6362.93,0.30787
6339.79,0.31056
6316.64,0.31110
6293.5,0.30783
6270.35,0.31026
6247.21,0.30817
6224.06,0.31022
6200.92,0.30783
6177.77,0.30936
6154.63,0.30837
6131.48,0.30634
6108.34,0.30368
6085.19,0.30670
6062.05,0.30745
6038.9,0.30436
6015.76,0.30649
5992.61,0.30415
5969.47,0.30366
5946.32,0.30243
5923.18,0.28866
5900.03,0.27301
5876.89,0.26817
5853.74,0.25853
5830.6,0.26917
5807.45,0.25708
5784.31,0.25851
5761.16,0.25820
5738.02,0.27237
5714.87,0.27644
5691.73,0.27723
5668.58,0.27707
5645.44,0.27900
5622.29,0.28404
5599.15,0.28310
5576,0.28458
5552.86,0.28633
5529.71,0.28308
5506.57,0.28163
5483.42,0.28324
5460.28,0.28358
5437.13,0.28394
5413.99,0.28931
5390.84,0.28904
5367.7,0.29029
5344.55,0.28857
5321.41,0.29079
5298.26,0.29130
5275.12,0.29263
5251.97,0.29102
5228.83,0.29068
5205.68,0.29004
5182.54,0.29131
5159.39,0.29162
5136.25,0.29099
5113.1,0.29120
5089.96,0.29097
5066.81,0.28993
5043.67,0.28924
5020.52,0.29230
4997.38,0.29172
4974.23,0.29221
4951.09,0.29229
4927.94,0.29261
4904.8,0.29264
4881.65,0.29217
4858.51,0.29202
4835.36,0.29230
4812.22,0.29181
4789.07,0.29219
4765.93,0.29251
4742.78,0.29216
4719.64,0.29279
4696.49,0.29188
4673.35,0.29187
4650.2,0.29066
4627.06,0.28916
4603.92,0.28807
4580.77,0.28451
4557.63,0.28378
4534.48,0.28349
4511.34,0.28182
4488.19,0.28167
4465.05,0.27759
4441.9,0.26599
4418.76,0.22926
4395.61,0.18790
4372.47,0.20101
4349.32,0.19715
4326.18,0.14638
4303.03,0.16219
4279.89,0.17552
4256.74,0.16522
4233.6,0.15937
4210.45,0.17069
4187.31,0.18593
4164.16,0.17662
4141.02,0.18993
4117.87,0.18468
4094.73,0.19813
4071.58,0.17634
4048.44,0.18239
4025.29,0.20382
4002.15,0.21104
3979,0.21772
3955.86,0.22299
3932.71,0.22020
3909.57,0.22649
3886.42,0.22944
3863.28,0.23256
3840.13,0.23566
3816.99,0.23372
3793.84,0.23677
3770.7,0.23331
3747.55,0.23678
3724.41,0.24067
3701.26,0.24247
3678.12,0.24577
3654.97,0.25561
3631.83,0.25139
3608.68,0.25792
3585.54,0.25387
3562.39,0.25659
3539.25,0.25365
3516.1,0.25029
3492.96,0.24693
3469.81,0.24130
3446.67,0.23196
3423.52,0.22086
3400.38,0.21936
3377.23,0.21592
3354.09,0.20821
3330.94,0.20867
3307.8,0.17622
3284.65,0.18930
3261.51,0.20533
3238.36,0.20157
3215.22,0.17176
3192.07,0.15527
3168.93,0.16238
3145.78,0.15640
3122.64,0.16453
3099.49,0.16776
3076.35,0.16291
3053.2,0.15045
3030.06,0.13283
3006.91,0.08975
2983.77,0.03584
2960.62,0.02861
2937.48,0.03057
2914.33,0.03713
2891.19,0.03468
2868.04,0.03379
2844.9,0.03418
2821.75,0.04931
2798.61,0.07657
2775.46,0.11756
2752.32,0.13035
2729.17,0.10180
2706.03,0.12319
2682.88,0.13219
2659.74,0.13347
2636.59,0.14611
2613.45,0.12336
2590.3,0.11806
2567.16,0.12148
2544.02,0.12260
2520.87,0.08144
2497.73,0.10930
2474.58,0.17621
2451.44,0.19522
2428.29,0.18804
2405.15,0.19629
2382,0.20084
2358.86,0.19878
2335.71,0.20925
2312.57,0.22020
2289.42,0.22237
2266.28,0.21411
2243.13,0.21774
2219.99,0.21767
2196.84,0.21273
2173.7,0.20941
2150.55,0.21094
2127.41,0.20922
2104.26,0.23543
2081.12,0.24055
2057.97,0.24566
2034.83,0.24363
2011.68,0.24471
1988.54,0.24329
1965.39,0.24192
1942.25,0.24218
1919.1,0.23617
1895.96,0.22921
1872.81,0.23343
1849.67,0.22446
1826.52,0.21056
1803.38,0.12556
1780.23,0.17004
1757.09,0.16757
1733.94,0.13975
1710.8,0.16447
1687.65,0.16527
1664.51,0.16556
1641.36,0.12268
1618.22,0.14960
1595.07,0.14758
1571.93,0.14803
1548.78,0.14108
1525.64,0.11531
1502.49,0.08247
1479.35,0.05233
1456.2,0.04024
1433.06,0.04721
1409.91,0.06076
1386.77,0.05662
1363.62,0.06522
1340.48,0.10578
1317.33,0.12250
1294.19,0.13159
1271.04,0.16338
1247.9,0.15820
1224.75,0.16772
1201.61,0.17393
1178.46,0.12964
1155.32,0.09637
1132.17,0.20735
1109.03,0.18514
1085.88,0.20830
1062.74,0.21231
1039.59,0.18314
1016.45,0.17305
993.304,0.09343
970.159,0.07526
947.014,0.19618
923.869,0.22929
900.724,0.14130
877.579,0.04852
854.434,0.17073
831.289,0.17024
808.144,0.12791
784.999,0.21830
761.854,0.24240
738.709,0.23602
715.565,0.07839
692.42,0.23677
669.275,0.24409
646.13,0.23587
622.985,0.22447
599.84,0.20644