Folder: fsri_materials_database/01_Data/Polyester_Bed_Skirt/FTIR/IS (part 2)

File: Polyester_Bed_Skirt_IS_S_220822_R5.dpt
7497.03,0.31789
7473.89,0.31351
7450.74,0.31917
7427.6,0.31572
7404.45,0.31500
7381.31,0.31120
7358.16,0.30582
7335.02,0.30922
7311.87,0.30551
7288.73,0.31784
7265.58,0.31013
7242.44,0.31403
7219.29,0.30872
7196.15,0.31336
7173,0.30958
7149.86,0.31270
7126.71,0.31097
7103.57,0.30684
7080.42,0.30582
7057.28,0.30641
7034.13,0.30932
7010.99,0.31687
6987.84,0.31123
6964.7,0.30611
6941.55,0.31113
6918.41,0.31023
6895.26,0.30873
6872.12,0.30577
6848.97,0.30849
6825.83,0.31383
6802.68,0.30753
6779.54,0.31467
6756.39,0.31257
6733.25,0.31151
6710.1,0.30987
6686.96,0.31077
6663.82,0.31115
6640.67,0.31237
6617.53,0.31052
6594.38,0.31508
6571.24,0.31212
6548.09,0.30959
6524.95,0.31014
6501.8,0.31163
6478.66,0.31012
6455.51,0.31125
6432.37,0.31225
6409.22,0.31081
6386.08,0.30904
6362.93,0.31197
6339.79,0.31080
6316.64,0.31004
6293.5,0.30844
6270.35,0.31110
6247.21,0.30756
6224.06,0.30699
6200.92,0.30739
6177.77,0.30671
6154.63,0.30788
6131.48,0.30582
6108.34,0.31000
6085.19,0.30681
6062.05,0.30642
6038.9,0.30855
6015.76,0.30557
5992.61,0.30466
5969.47,0.30331
5946.32,0.29928
5923.18,0.28871
5900.03,0.27279
5876.89,0.26601
5853.74,0.25746
5830.6,0.26698
5807.45,0.25935
5784.31,0.25859
5761.16,0.25582
5738.02,0.26943
5714.87,0.27592
5691.73,0.27884
5668.58,0.28018
5645.44,0.27866
5622.29,0.28281
5599.15,0.28360
5576,0.28251
5552.86,0.28455
5529.71,0.28542
5506.57,0.28395
5483.42,0.28227
5460.28,0.28410
5437.13,0.28394
5413.99,0.28751
5390.84,0.28904
5367.7,0.29064
5344.55,0.29052
5321.41,0.28994
5298.26,0.29028
5275.12,0.28977
5251.97,0.29215
5228.83,0.29032
5205.68,0.29046
5182.54,0.29104
5159.39,0.29042
5136.25,0.29075
5113.1,0.29116
5089.96,0.28821
5066.81,0.28918
5043.67,0.28944
5020.52,0.28974
4997.38,0.29188
4974.23,0.29155
4951.09,0.29185
4927.94,0.29208
4904.8,0.29358
4881.65,0.29188
4858.51,0.29103
4835.36,0.29222
4812.22,0.29315
4789.07,0.29122
4765.93,0.29208
4742.78,0.29182
4719.64,0.29222
4696.49,0.29203
4673.35,0.29102
4650.2,0.28962
4627.06,0.28854
4603.92,0.28670
4580.77,0.28442
4557.63,0.28362
4534.48,0.28312
4511.34,0.28211
4488.19,0.28060
4465.05,0.27617
4441.9,0.26525
4418.76,0.22897
4395.61,0.18839
4372.47,0.20067
4349.32,0.19859
4326.18,0.14674
4303.03,0.16169
4279.89,0.17583
4256.74,0.16552
4233.6,0.15938
4210.45,0.17018
4187.31,0.18638
4164.16,0.17680
4141.02,0.19020
4117.87,0.18475
4094.73,0.19845
4071.58,0.17661
4048.44,0.18210
4025.29,0.20320
4002.15,0.21060
3979,0.21750
3955.86,0.22296
3932.71,0.22023
3909.57,0.22637
3886.42,0.22860
3863.28,0.23172
3840.13,0.23537
3816.99,0.23357
3793.84,0.23654
3770.7,0.23326
3747.55,0.23606
3724.41,0.24093
3701.26,0.24213
3678.12,0.24514
3654.97,0.25459
3631.83,0.25128
3608.68,0.25668
3585.54,0.25441
3562.39,0.25638
3539.25,0.25283
3516.1,0.25013
3492.96,0.24725
3469.81,0.24106
3446.67,0.23120
3423.52,0.22038
3400.38,0.22010
3377.23,0.21644
3354.09,0.20759
3330.94,0.20765
3307.8,0.17618
3284.65,0.18955
3261.51,0.20397
3238.36,0.20115
3215.22,0.17106
3192.07,0.15511
3168.93,0.16184
3145.78,0.15580
3122.64,0.16414
3099.49,0.16731
3076.35,0.16258
3053.2,0.15002
3030.06,0.13301
3006.91,0.09045
2983.77,0.03631
2960.62,0.02900
2937.48,0.03005
2914.33,0.03695
2891.19,0.03461
2868.04,0.03445
2844.9,0.03416
2821.75,0.04968
2798.61,0.07716
2775.46,0.11735
2752.32,0.13006
2729.17,0.10162
2706.03,0.12286
2682.88,0.13248
2659.74,0.13306
2636.59,0.14606
2613.45,0.12219
2590.3,0.11772
2567.16,0.12060
2544.02,0.12255
2520.87,0.08156
2497.73,0.10931
2474.58,0.17584
2451.44,0.19481
2428.29,0.18742
2405.15,0.19580
2382,0.20022
2358.86,0.19874
2335.71,0.20948
2312.57,0.21929
2289.42,0.22196
2266.28,0.21320
2243.13,0.21788
2219.99,0.21760
2196.84,0.21210
2173.7,0.20856
2150.55,0.21047
2127.41,0.20864
2104.26,0.23530
2081.12,0.23973
2057.97,0.24559
2034.83,0.24336
2011.68,0.24449
1988.54,0.24337
1965.39,0.24122
1942.25,0.24171
1919.1,0.23600
1895.96,0.22910
1872.81,0.23275
1849.67,0.22429
1826.52,0.21013
1803.38,0.12520
1780.23,0.16982
1757.09,0.16736
1733.94,0.13971
1710.8,0.16398
1687.65,0.16521
1664.51,0.16531
1641.36,0.12236
1618.22,0.14981
1595.07,0.14762
1571.93,0.14755
1548.78,0.14116
1525.64,0.11546
1502.49,0.08229
1479.35,0.05223
1456.2,0.04052
1433.06,0.04695
1409.91,0.06080
1386.77,0.05703
1363.62,0.06547
1340.48,0.10575
1317.33,0.12294
1294.19,0.13177
1271.04,0.16350
1247.9,0.15821
1224.75,0.16754
1201.61,0.17380
1178.46,0.12931
1155.32,0.09673
1132.17,0.20742
1109.03,0.18362
1085.88,0.20801
1062.74,0.21198
1039.59,0.18251
1016.45,0.17293
993.304,0.09318
970.159,0.07614
947.014,0.19549
923.869,0.22865
900.724,0.14166
877.579,0.04865
854.434,0.17113
831.289,0.16976
808.144,0.12758
784.999,0.21833
761.854,0.24221
738.709,0.23605
715.565,0.07804
692.42,0.23638
669.275,0.24423
646.13,0.23655
622.985,0.22522
599.84,0.20652

File: Polyester_Bed_Skirt_IS_S_220822_R6.dpt
7497.03,0.31653
7473.89,0.31463
7450.74,0.31508
7427.6,0.31296
7404.45,0.32226
7381.31,0.31112
7358.16,0.31761
7335.02,0.30721
7311.87,0.30479
7288.73,0.31179
7265.58,0.31043
7242.44,0.30913
7219.29,0.31215
7196.15,0.30953
7173,0.31519
7149.86,0.30700
7126.71,0.31483
7103.57,0.31239
7080.42,0.30708
7057.28,0.31199
7034.13,0.31380
7010.99,0.31493
6987.84,0.31577
6964.7,0.31174
6941.55,0.31268
6918.41,0.31102
6895.26,0.31487
6872.12,0.31068
6848.97,0.31135
6825.83,0.30738
6802.68,0.31119
6779.54,0.31276
6756.39,0.31098
6733.25,0.31308
6710.1,0.30961
6686.96,0.31244
6663.82,0.31056
6640.67,0.31392
6617.53,0.31565
6594.38,0.30959
6571.24,0.31146
6548.09,0.31429
6524.95,0.31112
6501.8,0.31419
6478.66,0.31169
6455.51,0.31462
6432.37,0.31205
6409.22,0.31134
6386.08,0.31233
6362.93,0.31256
6339.79,0.31164
6316.64,0.31146
6293.5,0.31126
6270.35,0.30966
6247.21,0.30930
6224.06,0.30969
6200.92,0.31014
6177.77,0.30963
6154.63,0.30564
6131.48,0.30921
6108.34,0.30750
6085.19,0.30608
6062.05,0.30710
6038.9,0.30594
6015.76,0.30744
5992.61,0.30437
5969.47,0.30401
5946.32,0.29992
5923.18,0.29140
5900.03,0.27208
5876.89,0.26888
5853.74,0.25663
5830.6,0.26780
5807.45,0.25770
5784.31,0.25875
5761.16,0.26035
5738.02,0.27203
5714.87,0.27612
5691.73,0.27597
5668.58,0.27681
5645.44,0.27908
5622.29,0.28247
5599.15,0.28390
5576,0.28721
5552.86,0.28447
5529.71,0.28512
5506.57,0.28223
5483.42,0.28389
5460.28,0.28290
5437.13,0.28576
5413.99,0.28944
5390.84,0.29190
5367.7,0.29136
5344.55,0.29214
5321.41,0.29188
5298.26,0.29109
5275.12,0.28994
5251.97,0.29335
5228.83,0.29262
5205.68,0.29155
5182.54,0.29135
5159.39,0.29150
5136.25,0.29167
5113.1,0.29074
5089.96,0.29017
5066.81,0.29072
5043.67,0.29108
5020.52,0.29129
4997.38,0.29359
4974.23,0.29149
4951.09,0.29316
4927.94,0.29309
4904.8,0.29312
4881.65,0.29340
4858.51,0.29352
4835.36,0.29227
4812.22,0.29214
4789.07,0.29214
4765.93,0.29246
4742.78,0.29390
4719.64,0.29175
4696.49,0.29353
4673.35,0.29217
4650.2,0.29072
4627.06,0.28969
4603.92,0.28849
4580.77,0.28622
4557.63,0.28314
4534.48,0.28484
4511.34,0.28238
4488.19,0.28132
4465.05,0.27809
4441.9,0.26571
4418.76,0.22982
4395.61,0.18769
4372.47,0.20204
4349.32,0.19907
4326.18,0.14783
4303.03,0.16254
4279.89,0.17594
4256.74,0.16436
4233.6,0.15991
4210.45,0.17218
4187.31,0.18611
4164.16,0.17729
4141.02,0.19001
4117.87,0.18520
4094.73,0.19854
4071.58,0.17667
4048.44,0.18245
4025.29,0.20429
4002.15,0.21156
3979,0.21771
3955.86,0.22339
3932.71,0.22108
3909.57,0.22726
3886.42,0.23021
3863.28,0.23299
3840.13,0.23607
3816.99,0.23430
3793.84,0.23683
3770.7,0.23362
3747.55,0.23672
3724.41,0.24218
3701.26,0.24198
3678.12,0.24577
3654.97,0.25674
3631.83,0.25219
3608.68,0.25795
3585.54,0.25472
3562.39,0.25701
3539.25,0.25375
3516.1,0.25098
3492.96,0.24783
3469.81,0.24137
3446.67,0.23259
3423.52,0.22133
3400.38,0.22009
3377.23,0.21702
3354.09,0.20843
3330.94,0.20793
3307.8,0.17678
3284.65,0.18959
3261.51,0.20443
3238.36,0.20172
3215.22,0.17222
3192.07,0.15484
3168.93,0.16215
3145.78,0.15718
3122.64,0.16406
3099.49,0.16739
3076.35,0.16328
3053.2,0.15039
3030.06,0.13339
3006.91,0.09075
2983.77,0.03591
2960.62,0.02871
2937.48,0.03016
2914.33,0.03691
2891.19,0.03459
2868.04,0.03428
2844.9,0.03359
2821.75,0.04987
2798.61,0.07724
2775.46,0.11802
2752.32,0.13073
2729.17,0.10204
2706.03,0.12350
2682.88,0.13271
2659.74,0.13323
2636.59,0.14632
2613.45,0.12313
2590.3,0.11812
2567.16,0.12152
2544.02,0.12288
2520.87,0.08204
2497.73,0.10961
2474.58,0.17606
2451.44,0.19558
2428.29,0.18823
2405.15,0.19653
2382,0.20089
2358.86,0.19930
2335.71,0.20969
2312.57,0.22019
2289.42,0.22219
2266.28,0.21421
2243.13,0.21817
2219.99,0.21843
2196.84,0.21325
2173.7,0.20939
2150.55,0.21096
2127.41,0.20940
2104.26,0.23588
2081.12,0.24089
2057.97,0.24620
2034.83,0.24445
2011.68,0.24541
1988.54,0.24401
1965.39,0.24209
1942.25,0.24233
1919.1,0.23669
1895.96,0.22978
1872.81,0.23409
1849.67,0.22525
1826.52,0.21110
1803.38,0.12543
1780.23,0.17051
1757.09,0.16794
1733.94,0.13960
1710.8,0.16440
1687.65,0.16513
1664.51,0.16606
1641.36,0.12256
1618.22,0.14968
1595.07,0.14772
1571.93,0.14795
1548.78,0.14123
1525.64,0.11501
1502.49,0.08242
1479.35,0.05240
1456.2,0.03995
1433.06,0.04741
1409.91,0.06076
1386.77,0.05669
1363.62,0.06521
1340.48,0.10596
1317.33,0.12294
1294.19,0.13212
1271.04,0.16384
1247.9,0.15852
1224.75,0.16786
1201.61,0.17382
1178.46,0.12937
1155.32,0.09725
1132.17,0.20839
1109.03,0.18463
1085.88,0.20894
1062.74,0.21319
1039.59,0.18258
1016.45,0.17339
993.304,0.09316
970.159,0.07578
947.014,0.19604
923.869,0.22937
900.724,0.14200
877.579,0.04838
854.434,0.17038
831.289,0.16981
808.144,0.12794
784.999,0.21807
761.854,0.24179
738.709,0.23596
715.565,0.07886
692.42,0.23665
669.275,0.24484
646.13,0.23665
622.985,0.22539
599.84,0.20462

File: Polyester_Bed_Skirt_IS_S_220822_R7.dpt
7497.03,0.31263
7473.89,0.31997
7450.74,0.31666
7427.6,0.31567
7404.45,0.31903
7381.31,0.30696
7358.16,0.31203
7335.02,0.31568
7311.87,0.30771
7288.73,0.31023
7265.58,0.30565
7242.44,0.30996
7219.29,0.31005
7196.15,0.31150
7173,0.31233
7149.86,0.30418
7126.71,0.30504
7103.57,0.31772
7080.42,0.30648
7057.28,0.31268
7034.13,0.31219
7010.99,0.31275
6987.84,0.30474
6964.7,0.30716
6941.55,0.31005
6918.41,0.30730
6895.26,0.31021
6872.12,0.31214
6848.97,0.31097
6825.83,0.30647
6802.68,0.30737
6779.54,0.31026
6756.39,0.31192
6733.25,0.31363
6710.1,0.30840
6686.96,0.31193
6663.82,0.30859
6640.67,0.31069
6617.53,0.31084
6594.38,0.30800
6571.24,0.31403
6548.09,0.31011
6524.95,0.31298
6501.8,0.31082
6478.66,0.31238
6455.51,0.31229
6432.37,0.31037
6409.22,0.31360
6386.08,0.30802
6362.93,0.30910
6339.79,0.31030
6316.64,0.31041
6293.5,0.31087
6270.35,0.30976
6247.21,0.31154
6224.06,0.31085
6200.92,0.30683
6177.77,0.30532
6154.63,0.30702
6131.48,0.30797
6108.34,0.30758
6085.19,0.30854
6062.05,0.30568
6038.9,0.30731
6015.76,0.30635
5992.61,0.30743
5969.47,0.30322
5946.32,0.30034
5923.18,0.28780
5900.03,0.27204
5876.89,0.26668
5853.74,0.25654
5830.6,0.26674
5807.45,0.25830
5784.31,0.26046
5761.16,0.25922
5738.02,0.26733
5714.87,0.27688
5691.73,0.27747
5668.58,0.27949
5645.44,0.27853
5622.29,0.28184
5599.15,0.28539
5576,0.28403
5552.86,0.28399
5529.71,0.28389
5506.57,0.28248
5483.42,0.28302
5460.28,0.28396
5437.13,0.28611
5413.99,0.28891
5390.84,0.29081
5367.7,0.29010
5344.55,0.29193
5321.41,0.29107
5298.26,0.29207
5275.12,0.29046
5251.97,0.29058
5228.83,0.29020
5205.68,0.28943
5182.54,0.29006
5159.39,0.29014
5136.25,0.29038
5113.1,0.29122
5089.96,0.29028
5066.81,0.28858
5043.67,0.28932
5020.52,0.29206
4997.38,0.29224
4974.23,0.29236
4951.09,0.29266
4927.94,0.29293
4904.8,0.29418
4881.65,0.29209
4858.51,0.29278
4835.36,0.29238
4812.22,0.29249
4789.07,0.29208
4765.93,0.29178
4742.78,0.29191
4719.64,0.29146
4696.49,0.29207
4673.35,0.29092
4650.2,0.28920
4627.06,0.28941
4603.92,0.28785
4580.77,0.28587
4557.63,0.28398
4534.48,0.28371
4511.34,0.28193
4488.19,0.28112
4465.05,0.27719
4441.9,0.26549
4418.76,0.22847
4395.61,0.18886
4372.47,0.20039
4349.32,0.19765
4326.18,0.14666
4303.03,0.16301
4279.89,0.17569
4256.74,0.16553
4233.6,0.15924
4210.45,0.17141
4187.31,0.18560
4164.16,0.17710
4141.02,0.19035
4117.87,0.18523
4094.73,0.19807
4071.58,0.17615
4048.44,0.18279
4025.29,0.20339
4002.15,0.21146
3979,0.21726
3955.86,0.22274
3932.71,0.22032
3909.57,0.22669
3886.42,0.22864
3863.28,0.23239
3840.13,0.23507
3816.99,0.23325
3793.84,0.23592
3770.7,0.23309
3747.55,0.23712
3724.41,0.24091
3701.26,0.24162
3678.12,0.24495
3654.97,0.25539
3631.83,0.25049
3608.68,0.25676
3585.54,0.25412
3562.39,0.25646
3539.25,0.25358
3516.1,0.25092
3492.96,0.24671
3469.81,0.24033
3446.67,0.23126
3423.52,0.22076
3400.38,0.21991
3377.23,0.21637
3354.09,0.20830
3330.94,0.20734
3307.8,0.17686
3284.65,0.18971
3261.51,0.20401
3238.36,0.20118
3215.22,0.17079
3192.07,0.15527
3168.93,0.16203
3145.78,0.15705
3122.64,0.16403
3099.49,0.16722
3076.35,0.16240
3053.2,0.15087
3030.06,0.13317
3006.91,0.09016
2983.77,0.03654
2960.62,0.02847
2937.48,0.03062
2914.33,0.03753
2891.19,0.03459
2868.04,0.03388
2844.9,0.03370
2821.75,0.04952
2798.61,0.07709
2775.46,0.11715
2752.32,0.13038
2729.17,0.10153
2706.03,0.12285
2682.88,0.13208
2659.74,0.13301
2636.59,0.14609
2613.45,0.12262
2590.3,0.11796
2567.16,0.12091
2544.02,0.12239
2520.87,0.08214
2497.73,0.10918
2474.58,0.17585
2451.44,0.19559
2428.29,0.18787
2405.15,0.19633
2382,0.20060
2358.86,0.19904
2335.71,0.20906
2312.57,0.21973
2289.42,0.22162
2266.28,0.21337
2243.13,0.21785
2219.99,0.21772
2196.84,0.21275
2173.7,0.20925
2150.55,0.21033
2127.41,0.20891
2104.26,0.23536
2081.12,0.24082
2057.97,0.24539
2034.83,0.24405
2011.68,0.24494
1988.54,0.24314
1965.39,0.24168
1942.25,0.24179
1919.1,0.23620
1895.96,0.22893
1872.81,0.23332
1849.67,0.22475
1826.52,0.21069
1803.38,0.12525
1780.23,0.17014
1757.09,0.16731
1733.94,0.13952
1710.8,0.16459
1687.65,0.16534
1664.51,0.16550
1641.36,0.12227
1618.22,0.14979
1595.07,0.14742
1571.93,0.14743
1548.78,0.14101
1525.64,0.11520
1502.49,0.08188
1479.35,0.05259
1456.2,0.04015
1433.06,0.04761
1409.91,0.06091
1386.77,0.05716
1363.62,0.06529
1340.48,0.10561
1317.33,0.12255
1294.19,0.13169
1271.04,0.16329
1247.9,0.15780
1224.75,0.16746
1201.61,0.17380
1178.46,0.12941
1155.32,0.09612
1132.17,0.20748
1109.03,0.18446
1085.88,0.20831
1062.74,0.21196
1039.59,0.18273
1016.45,0.17369
993.304,0.09379
970.159,0.07540
947.014,0.19574
923.869,0.22917
900.724,0.14132
877.579,0.04718
854.434,0.16997
831.289,0.16967
808.144,0.12694
784.999,0.21842
761.854,0.24237
738.709,0.23640
715.565,0.07822
692.42,0.23623
669.275,0.24446
646.13,0.23730
622.985,0.22536
599.84,0.20872

File: Polyester_Bed_Skirt_IS_S_220822_R8.dpt
7497.03,0.32170
7473.89,0.31039
7450.74,0.31559
7427.6,0.30726
7404.45,0.32496
7381.31,0.31879
7358.16,0.31121
7335.02,0.31828
7311.87,0.30319
7288.73,0.30772
7265.58,0.30857
7242.44,0.31301
7219.29,0.30123
7196.15,0.30737
7173,0.30854
7149.86,0.30812
7126.71,0.30788
7103.57,0.31471
7080.42,0.30637
7057.28,0.30849
7034.13,0.31476
7010.99,0.30917
6987.84,0.30720
6964.7,0.30937
6941.55,0.30886
6918.41,0.31194
6895.26,0.31327
6872.12,0.30939
6848.97,0.31380
6825.83,0.30890
6802.68,0.31340
6779.54,0.31334
6756.39,0.31085
6733.25,0.31152
6710.1,0.30960
6686.96,0.31167
6663.82,0.31113
6640.67,0.30929
6617.53,0.30975
6594.38,0.31342
6571.24,0.31168
6548.09,0.31457
6524.95,0.30985
6501.8,0.31262
6478.66,0.31151
6455.51,0.31047
6432.37,0.31251
6409.22,0.31110
6386.08,0.31277
6362.93,0.30912
6339.79,0.30806
6316.64,0.30665
6293.5,0.31132
6270.35,0.31197
6247.21,0.31204
6224.06,0.31126
6200.92,0.30790
6177.77,0.30760
6154.63,0.30957
6131.48,0.30562
6108.34,0.30523
6085.19,0.30701
6062.05,0.30757
6038.9,0.30583
6015.76,0.30499
5992.61,0.30191
5969.47,0.30695
5946.32,0.29861
5923.18,0.28827
5900.03,0.27153
5876.89,0.27024
5853.74,0.25677
5830.6,0.26635
5807.45,0.26021
5784.31,0.25897
5761.16,0.25855
5738.02,0.26982
5714.87,0.27625
5691.73,0.27603
5668.58,0.27779
5645.44,0.28008
5622.29,0.28248
5599.15,0.28334
5576,0.28442
5552.86,0.28454
5529.71,0.28404
5506.57,0.28424
5483.42,0.28251
5460.28,0.28377
5437.13,0.28628
5413.99,0.28883
5390.84,0.29300
5367.7,0.29120
5344.55,0.29236
5321.41,0.28990
5298.26,0.29139
5275.12,0.29060
5251.97,0.29234
5228.83,0.29021
5205.68,0.29035
5182.54,0.29066
5159.39,0.29031
5136.25,0.29001
5113.1,0.29151
5089.96,0.29010
5066.81,0.29044
5043.67,0.28989
5020.52,0.29159
4997.38,0.29213
4974.23,0.29171
4951.09,0.29213
4927.94,0.29273
4904.8,0.29212
4881.65,0.29350
4858.51,0.29181
4835.36,0.29380
4812.22,0.29232
4789.07,0.29229
4765.93,0.29281
4742.78,0.29343
4719.64,0.29258
4696.49,0.29153
4673.35,0.29115
4650.2,0.29176
4627.06,0.29006
4603.92,0.28769
4580.77,0.28480
4557.63,0.28414
4534.48,0.28331
4511.34,0.28254
4488.19,0.28113
4465.05,0.27796
4441.9,0.26627
4418.76,0.22955
4395.61,0.18873
4372.47,0.20110
4349.32,0.19814
4326.18,0.14600
4303.03,0.16235
4279.89,0.17646
4256.74,0.16572
4233.6,0.15894
4210.45,0.17071
4187.31,0.18598
4164.16,0.17705
4141.02,0.19001
4117.87,0.18499
4094.73,0.19810
4071.58,0.17654
4048.44,0.18264
4025.29,0.20406
4002.15,0.21056
3979,0.21743
3955.86,0.22272
3932.71,0.22065
3909.57,0.22726
3886.42,0.22969
3863.28,0.23251
3840.13,0.23559
3816.99,0.23323
3793.84,0.23594
3770.7,0.23310
3747.55,0.23706
3724.41,0.24158
3701.26,0.24174
3678.12,0.24572
3654.97,0.25586
3631.83,0.25149
3608.68,0.25747
3585.54,0.25378
3562.39,0.25671
3539.25,0.25349
3516.1,0.25069
3492.96,0.24791
3469.81,0.24187
3446.67,0.23232
3423.52,0.22095
3400.38,0.22003
3377.23,0.21660
3354.09,0.20864
3330.94,0.20805
3307.8,0.17749
3284.65,0.19008
3261.51,0.20510
3238.36,0.20117
3215.22,0.17204
3192.07,0.15514
3168.93,0.16176
3145.78,0.15684
3122.64,0.16476
3099.49,0.16708
3076.35,0.16243
3053.2,0.15080
3030.06,0.13349
3006.91,0.09026
2983.77,0.03650
2960.62,0.02897
2937.48,0.03041
2914.33,0.03670
2891.19,0.03424
2868.04,0.03429
2844.9,0.03349
2821.75,0.04960
2798.61,0.07747
2775.46,0.11742
2752.32,0.13070
2729.17,0.10160
2706.03,0.12341
2682.88,0.13293
2659.74,0.13343
2636.59,0.14657
2613.45,0.12259
2590.3,0.11816
2567.16,0.12078
2544.02,0.12315
2520.87,0.08180
2497.73,0.10921
2474.58,0.17633
2451.44,0.19517
2428.29,0.18798
2405.15,0.19623
2382,0.20050
2358.86,0.19904
2335.71,0.20966
2312.57,0.21968
2289.42,0.22241
2266.28,0.21401
2243.13,0.21839
2219.99,0.21805
2196.84,0.21284
2173.7,0.20913
2150.55,0.21071
2127.41,0.20896
2104.26,0.23513
2081.12,0.24074
2057.97,0.24593
2034.83,0.24444
2011.68,0.24544
1988.54,0.24367
1965.39,0.24157
1942.25,0.24204
1919.1,0.23655
1895.96,0.22936
1872.81,0.23364
1849.67,0.22501
1826.52,0.21085
1803.38,0.12514
1780.23,0.17017
1757.09,0.16761
1733.94,0.13991
1710.8,0.16457
1687.65,0.16541
1664.51,0.16555
1641.36,0.12249
1618.22,0.14973
1595.07,0.14739
1571.93,0.14773
1548.78,0.14112
1525.64,0.11520
1502.49,0.08237
1479.35,0.05255
1456.2,0.04019
1433.06,0.04717
1409.91,0.06098
1386.77,0.05675
1363.62,0.06498
1340.48,0.10560
1317.33,0.12257
1294.19,0.13199
1271.04,0.16359
1247.9,0.15868
1224.75,0.16756
1201.61,0.17472
1178.46,0.12931
1155.32,0.09654
1132.17,0.20758
1109.03,0.18447
1085.88,0.20811
1062.74,0.21188
1039.59,0.18282
1016.45,0.17326
993.304,0.09360
970.159,0.07562
947.014,0.19588
923.869,0.22948
900.724,0.14164
877.579,0.04744
854.434,0.17059
831.289,0.16946
808.144,0.12714
784.999,0.21811
761.854,0.24230
738.709,0.23571
715.565,0.07868
692.42,0.23653
669.275,0.24501
646.13,0.23564
622.985,0.22398
599.84,0.20662

File: Polyester_Bed_Skirt_IS_T_220822_R1.dpt
7497.03,0.02175
7473.89,0.02069
7450.74,0.01845
7427.6,0.02078
7404.45,0.02678
7381.31,0.01718
7358.16,0.02131
7335.02,0.01935
7311.87,0.02433
7288.73,0.01896
7265.58,0.02416
7242.44,0.02581
7219.29,0.02153
7196.15,0.02182
7173,0.02333
7149.86,0.01799
7126.71,0.02043
7103.57,0.01784
7080.42,0.01849
7057.28,0.02865
7034.13,0.02813
7010.99,0.02167
6987.84,0.01955
6964.7,0.02693
6941.55,0.02263
6918.41,0.01521
6895.26,0.02166
6872.12,0.01808
6848.97,0.02145
6825.83,0.02186
6802.68,0.02021
6779.54,0.02085
6756.39,0.01965
6733.25,0.02499
6710.1,0.02062
6686.96,0.02280
6663.82,0.01920
6640.67,0.02147
6617.53,0.02396
6594.38,0.01930
6571.24,0.02224
6548.09,0.01864
6524.95,0.02204
6501.8,0.02203
6478.66,0.02418
6455.51,0.02003
6432.37,0.01467
6409.22,0.02183
6386.08,0.01464
6362.93,0.01870
6339.79,0.02250
6316.64,0.02156
6293.5,0.01838
6270.35,0.01932
6247.21,0.02097
6224.06,0.02115
6200.92,0.01904
6177.77,0.02016
6154.63,0.01747
6131.48,0.01543
6108.34,0.01751
6085.19,0.01957
6062.05,0.02156
6038.9,0.01954
6015.76,0.01574
5992.61,0.02049
5969.47,0.02043
5946.32,0.01670
5923.18,0.01705
5900.03,0.01983
5876.89,0.01650
5853.74,0.01679
5830.6,0.01873
5807.45,0.01936
5784.31,0.01791
5761.16,0.01972
5738.02,0.01800
5714.87,0.01888
5691.73,0.01681
5668.58,0.01839
5645.44,0.01748
5622.29,0.02072
5599.15,0.01854
5576,0.01887
5552.86,0.02121
5529.71,0.01860
5506.57,0.01977
5483.42,0.01929
5460.28,0.02033
5437.13,0.01982
5413.99,0.01812
5390.84,0.01998
5367.7,0.02106
5344.55,0.01990
5321.41,0.01896
5298.26,0.01883
5275.12,0.01888
5251.97,0.01995
5228.83,0.01926
5205.68,0.02007
5182.54,0.01799
5159.39,0.01858
5136.25,0.01961
5113.1,0.01919
5089.96,0.01838
5066.81,0.01876
5043.67,0.01926
5020.52,0.01916
4997.38,0.01839
4974.23,0.01996
4951.09,0.01912
4927.94,0.01861
4904.8,0.02007
4881.65,0.01918
4858.51,0.01828
4835.36,0.01923
4812.22,0.01824
4789.07,0.01932
4765.93,0.01935
4742.78,0.01904
4719.64,0.01814
4696.49,0.01986
4673.35,0.01949
4650.2,0.01860
4627.06,0.01984
4603.92,0.01897
4580.77,0.01850
4557.63,0.01913
4534.48,0.02016
4511.34,0.01927
4488.19,0.01960
4465.05,0.01857
4441.9,0.01945
4418.76,0.01888
4395.61,0.02004
4372.47,0.01886
4349.32,0.01888
4326.18,0.01877
4303.03,0.01845
4279.89,0.01880
4256.74,0.01855
4233.6,0.01899
4210.45,0.01898
4187.31,0.01896
4164.16,0.01909
4141.02,0.01946
4117.87,0.01937
4094.73,0.01911
4071.58,0.01987
4048.44,0.01973
4025.29,0.01928
4002.15,0.02010
3979,0.01915
3955.86,0.01922
3932.71,0.01912
3909.57,0.01885
3886.42,0.01985
3863.28,0.01895
3840.13,0.01968
3816.99,0.01965
3793.84,0.01977
3770.7,0.01947
3747.55,0.01951
3724.41,0.01894
3701.26,0.01896
3678.12,0.01855
3654.97,0.01917
3631.83,0.01891
3608.68,0.01832
3585.54,0.01814
3562.39,0.01834
3539.25,0.01792
3516.1,0.01875
3492.96,0.01766
3469.81,0.01748
3446.67,0.01813
3423.52,0.01830
3400.38,0.01708
3377.23,0.01756
3354.09,0.01721
3330.94,0.01688
3307.8,0.01708
3284.65,0.01704
3261.51,0.01799
3238.36,0.01777
3215.22,0.01745
3192.07,0.01759
3168.93,0.01775
3145.78,0.01781
3122.64,0.01758
3099.49,0.01771
3076.35,0.01797
3053.2,0.01768
3030.06,0.01746
3006.91,0.01717
2983.77,0.01657
2960.62,0.01674
2937.48,0.01635
2914.33,0.01760
2891.19,0.01744
2868.04,0.01671
2844.9,0.01791
2821.75,0.01819
2798.61,0.01804
2775.46,0.01808
2752.32,0.01825
2729.17,0.01827
2706.03,0.01805
2682.88,0.01816
2659.74,0.01799
2636.59,0.01815
2613.45,0.01800
2590.3,0.01791
2567.16,0.01784
2544.02,0.01803
2520.87,0.01783
2497.73,0.01789
2474.58,0.01809
2451.44,0.01819
2428.29,0.01789
2405.15,0.01846
2382,0.01826
2358.86,0.01757
2335.71,0.01792
2312.57,0.01817
2289.42,0.01781
2266.28,0.01764
2243.13,0.01801
2219.99,0.01797
2196.84,0.01786
2173.7,0.01803
2150.55,0.01762
2127.41,0.01771
2104.26,0.01741
2081.12,0.01779
2057.97,0.01786
2034.83,0.01794
2011.68,0.01767
1988.54,0.01802
1965.39,0.01738
1942.25,0.01779
1919.1,0.01750
1895.96,0.01738
1872.81,0.01756
1849.67,0.01736
1826.52,0.01695
1803.38,0.01663
1780.23,0.01560
1757.09,0.01429
1733.94,0.01654
1710.8,0.01750
1687.65,0.01616
1664.51,0.01593
1641.36,0.01528
1618.22,0.01569
1595.07,0.01580
1571.93,0.01507
1548.78,0.01507
1525.64,0.01555
1502.49,0.01553
1479.35,0.01569
1456.2,0.01578
1433.06,0.01570
1409.91,0.01529
1386.77,0.01480
1363.62,0.01579
1340.48,0.01456
1317.33,0.01402
1294.19,0.01504
1271.04,0.01606
1247.9,0.01686
1224.75,0.01685
1201.61,0.01516
1178.46,0.01489
1155.32,0.01450
1132.17,0.01530
1109.03,0.01586
1085.88,0.01477
1062.74,0.01682
1039.59,0.01606
1016.45,0.01658
993.304,0.01825
970.159,0.01749
947.014,0.01706
923.869,0.01649
900.724,0.01589
877.579,0.01645
854.434,0.01597
831.289,0.01567
808.144,0.01545
784.999,0.01548
761.854,0.01554
738.709,0.01538
715.565,0.01491
692.42,0.01505
669.275,0.01433
646.13,0.01306
622.985,0.01266
599.84,0.01326