Folder: fsri_materials_database/01_Data/Basswood_Panel/Cone (part 2)

File: Basswood_Panel_HRRPUA_75.csv
Time after Ignition,Basswood_Panel_R1,Basswood_Panel_R2,Basswood_Panel_R3,Mean,Std. Dev.
0.0,6.3,3.5,6.9,5.5,1.8
2.0,6.9,4.7,7.2,6.2,1.4
4.0,6.7,5.9,7.0,6.5,0.5
6.0,7.0,6.6,6.7,6.7,0.2
8.0,7.6,6.9,6.9,7.1,0.4
10.0,23.4,19.5,12.0,18.3,5.8
12.0,79.2,57.7,42.5,59.8,18.5
14.0,169.9,134.8,102.6,135.8,33.7
16.0,237.5,224.8,177.8,213.3,31.4
18.0,297.8,292.9,240.1,276.9,32.0
20.0,335.7,330.6,295.1,320.5,22.1
22.0,352.8,356.6,318.0,342.5,21.3
24.0,368.2,368.4,336.6,357.8,18.3
26.0,378.1,385.1,353.6,372.2,16.6
28.0,375.4,383.5,363.5,374.1,10.1
30.0,368.3,380.1,362.6,370.4,8.9
32.0,368.9,380.2,368.8,372.6,6.6
34.0,377.7,382.2,364.4,374.8,9.3
36.0,359.4,372.2,352.4,361.3,10.0
38.0,360.3,364.6,349.9,358.3,7.5
40.0,356.9,358.2,347.7,354.2,5.7
42.0,340.2,349.0,345.8,345.0,4.5
44.0,338.9,342.1,328.7,336.6,7.0
46.0,335.9,333.2,336.8,335.3,1.9
48.0,329.9,328.2,324.5,327.5,2.8
50.0,319.5,331.6,316.1,322.4,8.2
52.0,313.5,321.3,315.9,316.9,4.0
54.0,310.0,311.6,309.7,310.4,1.0
56.0,303.8,308.4,310.6,307.6,3.5
58.0,299.2,302.9,302.7,301.6,2.1
60.0,297.0,293.3,289.9,293.4,3.5
62.0,290.2,294.5,295.3,293.3,2.7
64.0,286.3,289.9,287.6,287.9,1.8
66.0,279.1,289.7,281.3,283.4,5.6
68.0,276.5,283.1,274.2,277.9,4.6
70.0,265.7,286.9,273.5,275.4,10.8
72.0,267.5,278.3,271.7,272.5,5.4
74.0,266.3,278.7,268.3,271.1,6.7
76.0,261.6,275.1,269.3,268.7,6.8
78.0,261.1,276.8,270.3,269.4,7.9
80.0,255.6,274.9,262.2,264.3,9.8
82.0,252.2,267.6,263.9,261.2,8.0
84.0,248.9,270.8,258.1,259.3,11.0
86.0,252.5,266.1,255.2,258.0,7.2
88.0,242.9,260.1,257.6,253.6,9.3
90.0,249.8,263.2,256.4,256.5,6.7
92.0,241.0,263.0,256.5,253.5,11.3
94.0,237.1,263.8,259.3,253.4,14.3
96.0,239.3,263.5,249.5,250.8,12.1
98.0,237.0,260.1,251.2,249.4,11.6
100.0,234.4,258.2,245.2,245.9,11.9
102.0,234.3,257.7,240.2,244.0,12.2
104.0,229.1,251.3,243.3,241.2,11.2
106.0,223.5,254.7,238.9,239.0,15.6
108.0,228.7,249.5,239.2,239.1,10.4
110.0,227.7,248.9,241.2,239.3,10.7
112.0,228.6,250.2,234.5,237.8,11.2
114.0,221.0,250.4,234.3,235.2,14.7
116.0,220.8,245.5,233.8,233.4,12.3
118.0,222.9,243.7,234.3,233.6,10.4
120.0,221.1,241.0,229.5,230.5,10.0
122.0,217.5,239.4,229.0,228.7,11.0
124.0,216.1,236.0,232.2,228.1,10.6
126.0,214.7,236.7,229.3,226.9,11.2
128.0,214.0,232.0,224.3,223.5,9.0
130.0,211.8,232.4,225.8,223.3,10.5
132.0,212.6,228.0,224.4,221.7,8.0
134.0,209.9,229.6,224.9,221.5,10.3
136.0,208.6,228.2,223.8,220.2,10.3
138.0,207.7,227.6,221.4,218.9,10.2
140.0,209.2,233.2,220.6,221.0,12.0
142.0,206.2,227.1,217.9,217.1,10.5
144.0,202.8,230.1,215.2,216.0,13.7
146.0,206.2,224.6,219.9,216.9,9.6
148.0,203.9,224.8,216.1,215.0,10.5
150.0,204.6,221.7,212.7,213.0,8.6
152.0,208.8,223.6,211.4,214.6,7.9
154.0,203.7,221.3,212.2,212.4,8.8
156.0,200.4,222.6,213.2,212.0,11.2
158.0,203.6,214.8,210.5,209.6,5.7
160.0,197.6,218.4,212.4,209.5,10.7
162.0,199.0,223.7,208.5,210.4,12.4
164.0,199.7,219.1,213.0,210.6,9.9
166.0,199.0,221.8,206.4,209.1,11.6
168.0,198.1,217.7,207.1,207.7,9.8
170.0,195.5,215.3,209.7,206.9,10.2
172.0,195.6,213.6,205.2,204.8,9.0
174.0,195.5,220.5,206.6,207.5,12.5
176.0,196.2,213.7,206.5,205.5,8.8
178.0,197.2,212.4,206.6,205.4,7.6
180.0,198.8,215.9,201.0,205.2,9.3
182.0,194.9,212.0,205.7,204.2,8.7
184.0,193.6,212.7,199.4,201.9,9.8
186.0,196.5,218.1,202.9,205.8,11.1
188.0,193.0,214.7,203.6,203.8,10.9
190.0,196.1,212.4,203.7,204.1,8.1
192.0,191.0,210.1,204.8,202.0,9.9
194.0,193.0,208.6,201.1,200.9,7.8
196.0,195.2,208.4,197.9,200.5,6.9
198.0,192.7,209.2,200.5,200.8,8.3
200.0,191.4,209.6,199.9,200.3,9.1
202.0,197.7,208.5,197.5,201.2,6.3
204.0,189.4,213.0,198.6,200.3,11.9
206.0,187.9,208.6,201.6,199.4,10.5
208.0,190.0,212.0,196.6,199.5,11.3
210.0,193.9,209.9,198.2,200.6,8.3
212.0,192.9,209.0,198.9,200.2,8.1
214.0,196.9,210.3,198.8,202.0,7.3
216.0,192.1,207.0,197.2,198.8,7.6
218.0,193.5,206.3,195.2,198.3,7.0
220.0,195.0,208.8,200.4,201.4,7.0
222.0,193.1,207.9,199.0,200.0,7.5
224.0,193.3,208.6,201.2,201.0,7.7
226.0,192.8,210.9,197.1,200.3,9.5
228.0,193.2,207.0,197.8,199.3,7.1
230.0,191.1,204.5,198.6,198.1,6.7
232.0,193.4,212.5,198.7,201.5,9.9
234.0,192.4,204.5,198.9,198.6,6.1
236.0,193.9,208.5,196.4,199.6,7.8
238.0,193.3,201.9,197.4,197.5,4.3
240.0,194.9,207.4,200.2,200.9,6.3
242.0,191.0,203.2,197.8,197.3,6.1
244.0,193.0,202.8,201.7,199.2,5.4
246.0,193.0,204.1,196.8,198.0,5.7
248.0,193.2,204.1,202.9,200.1,6.0
250.0,192.6,204.0,202.3,199.7,6.1
252.0,191.6,202.2,197.6,197.1,5.3
254.0,187.6,204.0,200.6,197.4,8.6
256.0,192.0,203.0,200.3,198.4,5.7
258.0,193.7,203.6,201.1,199.5,5.2
260.0,192.4,204.2,199.7,198.7,5.9
262.0,193.6,203.0,204.0,200.2,5.7
264.0,196.6,205.0,204.0,201.9,4.6
266.0,193.2,205.8,202.9,200.6,6.6
268.0,196.5,205.1,203.6,201.7,4.6
270.0,197.0,208.9,201.9,202.6,5.9
272.0,196.3,206.3,200.8,201.2,5.0
274.0,191.0,212.2,203.2,202.1,10.6
276.0,195.0,207.2,202.9,201.7,6.1
278.0,199.0,207.5,202.9,203.1,4.3
280.0,195.5,206.5,202.7,201.6,5.6
282.0,195.8,209.5,204.8,203.4,7.0
284.0,193.9,205.6,205.8,201.8,6.8
286.0,196.5,204.1,206.0,202.2,5.0
288.0,197.0,207.4,201.7,202.0,5.2
290.0,198.5,204.6,207.5,203.5,4.6
292.0,199.4,207.4,204.6,203.8,4.0
294.0,193.2,213.2,206.0,204.1,10.1
296.0,196.0,205.9,206.7,202.9,6.0
298.0,199.5,208.5,210.6,206.2,5.9
300.0,204.8,205.4,205.5,205.2,0.3
302.0,199.0,207.3,205.6,204.0,4.4
304.0,198.8,204.7,206.1,203.2,3.9
306.0,202.7,205.8,204.7,204.4,1.6
308.0,200.5,206.6,205.0,204.0,3.2
310.0,200.3,209.0,203.2,204.1,4.4
312.0,200.4,204.5,205.5,203.5,2.7
314.0,203.6,208.2,204.5,205.4,2.4
316.0,204.9,206.2,203.8,205.0,1.2
318.0,203.5,204.6,206.1,204.7,1.3
320.0,202.7,207.1,210.0,206.6,3.6
322.0,205.1,203.0,207.3,205.1,2.1
324.0,201.2,204.6,205.2,203.7,2.2
326.0,207.8,207.9,207.4,207.7,0.3
328.0,204.1,210.8,206.7,207.2,3.4
330.0,203.2,207.6,207.9,206.2,2.7
332.0,202.9,210.0,207.6,206.8,3.6
334.0,205.4,208.7,208.2,207.4,1.8
336.0,209.0,206.6,206.4,207.3,1.4
338.0,207.0,207.1,206.3,206.8,0.5
340.0,207.2,209.4,210.6,209.1,1.7
342.0,209.3,211.7,212.2,211.1,1.5
344.0,206.1,205.3,206.3,205.9,0.5
346.0,209.0,213.4,209.4,210.6,2.4
348.0,212.1,212.0,206.7,210.3,3.1
350.0,211.0,216.5,207.8,211.8,4.4
352.0,211.0,215.2,205.0,210.4,5.1
354.0,208.8,219.9,206.0,211.6,7.3
356.0,209.1,216.1,210.6,211.9,3.7
358.0,213.9,216.3,208.0,212.7,4.3
360.0,214.1,213.7,210.9,212.9,1.7
362.0,217.8,217.1,210.8,215.2,3.9
364.0,221.3,218.4,210.0,216.6,5.8
366.0,216.1,223.5,206.9,215.5,8.3
368.0,216.5,223.7,210.4,216.9,6.6
370.0,217.5,224.6,208.8,217.0,7.9
372.0,220.2,224.8,212.2,219.0,6.4
374.0,223.8,222.4,208.4,218.2,8.5
376.0,223.6,225.0,212.7,220.4,6.8
378.0,222.2,225.2,212.4,219.9,6.7
380.0,220.8,228.5,210.9,220.1,8.8
382.0,222.8,227.4,210.9,220.4,8.5
384.0,223.3,232.0,212.3,222.5,9.9
386.0,223.6,236.3,208.2,222.7,14.1
388.0,225.5,235.2,211.7,224.1,11.8
390.0,220.9,233.8,214.8,223.2,9.7
392.0,221.0,234.8,212.1,222.6,11.5
394.0,224.3,233.8,219.4,225.8,7.3
396.0,227.1,237.1,216.7,227.0,10.2
398.0,225.0,236.0,215.4,225.5,10.3
400.0,225.6,235.8,210.1,223.8,12.9
402.0,229.7,236.2,216.4,227.4,10.1
404.0,226.8,242.2,217.2,228.7,12.6
406.0,229.4,238.2,222.0,229.9,8.1
408.0,228.8,239.8,221.0,229.9,9.4
410.0,229.9,237.3,217.9,228.4,9.8
412.0,232.9,242.2,218.4,231.2,12.0
414.0,234.1,246.0,222.6,234.2,11.7
416.0,234.2,242.7,223.7,233.5,9.5
418.0,235.7,242.8,222.9,233.8,10.1
420.0,234.5,239.5,223.8,232.6,8.0
422.0,242.5,235.0,225.4,234.3,8.6
424.0,240.7,235.2,223.7,233.2,8.7
426.0,238.9,235.3,225.5,233.2,7.0
428.0,237.5,226.3,225.5,229.8,6.7
430.0,237.5,223.6,230.0,230.3,7.0
432.0,241.6,213.3,224.4,226.4,14.3
434.0,242.5,207.4,226.1,225.3,17.5
436.0,241.7,197.4,225.9,221.7,22.5
438.0,243.1,185.2,227.2,218.5,29.9
440.0,244.6,172.1,228.3,215.0,38.1
442.0,245.7,154.0,227.0,208.9,48.5
444.0,248.9,140.3,228.6,205.9,57.7
446.0,246.3,120.4,229.8,198.9,68.4
448.0,248.8,104.3,225.8,193.0,77.6
450.0,245.7,92.1,219.2,185.7,82.1
452.0,246.5,83.2,221.8,183.8,88.0
454.0,243.3,74.1,221.7,179.7,92.1
456.0,240.5,66.0,220.0,175.5,95.3
458.0,240.2,60.2,222.3,174.2,99.1
460.0,241.9,58.8,220.5,173.7,100.1
462.0,240.3,57.0,216.8,171.4,99.7
464.0,239.6,54.8,221.4,172.0,101.9
466.0,235.2,53.9,215.4,168.2,99.5
468.0,226.3,51.4,211.8,163.1,97.1
470.0,221.9,51.1,210.0,161.0,95.4
472.0,218.2,50.5,211.8,160.1,95.0
474.0,206.1,50.7,204.6,153.8,89.3
476.0,198.8,50.0,205.5,151.4,87.9
478.0,186.9,50.3,208.6,148.6,85.8
480.0,175.3,50.0,203.1,142.8,81.5
482.0,163.0,48.7,204.0,138.6,80.5
484.0,145.1,,201.3,173.2,39.7
486.0,129.7,,197.1,163.4,47.7
488.0,113.0,,195.9,154.4,58.6
490.0,102.2,,191.6,146.9,63.3
492.0,90.0,,189.7,139.8,70.5
494.0,79.5,,184.4,132.0,74.2
496.0,71.9,,183.6,127.7,79.0
498.0,66.5,,177.5,122.0,78.5
500.0,64.0,,174.4,119.2,78.1
502.0,60.0,,166.3,113.1,75.2
504.0,57.7,,162.0,109.8,73.7
506.0,56.6,,154.9,105.7,69.5
508.0,54.7,,148.0,101.4,65.9
510.0,53.6,,135.1,94.3,57.7
512.0,53.1,,129.1,91.1,53.7
514.0,52.4,,118.0,85.2,46.3
516.0,51.6,,104.9,78.2,37.7
518.0,51.1,,95.2,73.1,31.2
520.0,50.1,,84.8,67.4,24.6
522.0,49.3,,76.7,63.0,19.4
524.0,48.7,,68.4,58.5,13.9
526.0,47.3,,65.0,56.1,12.5
528.0,47.4,,60.8,54.1,9.5
530.0,48.2,,57.8,53.0,6.8
530.75,48.2,,54.7,51.4,4.6