Folder: fsri_materials_database/01_Data/Basswood_Panel/Cone

Note: README.md
# Materials and Products Database
### Repository of materials and products properties and fire test data to improve fire modeling and fire investigation.

This project was supported in part by Award No. 2019-DU-BX-0018, awarded by the National Institute of Justice, Office of Justice Programs, U.S. Department of Justice. The opinions, findings, and conclusions or recommendations expressed in this publication / program / exhibition are those of the author(s) and do not necessarily reflect those of the Department of Justice.

***
***

__Cite this database:__ "McKinnon, M., Weinschenk, C., Dow, N., DiDomizio, M., and Madrzykowski, D. Materials and Products Database (Version 1.0.0), Fire Safety Research Institute, UL Research Institutes. Columbia, MD 21045, 2023."

__Cite the Technical Reference Guide:__ "McKinnon, M., Weinschenk, C., and Madrzykowski, D. Materials and Products Database - Technical Reference Guide, Fire Safety Research Institute, UL Research Institutes. Columbia, MD 21045, 2023."

__Cite the User Guide:__ "McKinnon, M., and Weinschenk, C. Materials and Products Database - User Guide, Fire Safety Research Institute, UL Research Institutes. Columbia, MD 21045, 2023."

***
***

## Database Structure

## 01_Data/
Raw data generated from each apparatus are included here in plain-text format. The data is organized first by material, next by the short name of test apparatus used, and where applicable additional filtering by test settings.

### Test Apparatus and Data File Structure
- __Cone Calorimeter__ (Cone)
    + Data file structure includes the material, the short name for the apparatus, heat flux setting and scan/scalar, date of test, and replicate number. Scan is for the raw output data and scalar is for the initial conditions and high-level test parameters. 
        * Example: __MDF_Cone_HF25scalar_210323_R1__ stands for the first replicate of scalar data generated from a medium density fiber board test in cone calorimeter exposed to 25 kW/m<sup>2</sup> on March 23, 2021.
    + A _Cone_Notes.csv_ is generated for each material from the __plot_Cone_data.py__ script. For materials whose experiments deviated from typical behavior relevant pictures are included in the respective material directory.
- __Fourier Transform Infrared Spectrometer__ (FTIR)
    + The FTIR directory contains subdirectories for the Attenuated Total Reflectance method (ATR) and the Integrating Sphere (IS)
    + Data file structure for the ATR experiment files includes the material, the abbreviated name for the apparatus, date of test, and replicate number. 
        * Example: __MDF_ATR_210323_R5__ stands for the fifth replicate of data collected with the ATR accessory conducted on June 8, 2021.
    + Data file structure for the IS experiment files includes the material, the abbreviated name for the apparatus, the measurand, whether the test is a sample measurement or standard reference, date of test, and replicate number.
        * Example: __OSB_IS_REFLECT_MEAS_2

File: Basswood_Panel_HRRPUA_25.csv
Time after Ignition,Basswood_Panel_R1,Basswood_Panel_R2,Basswood_Panel_R3,Basswood_Panel_R4,Mean,Std. Dev.
0.0,16.7,6.1,4.0,2.6,7.3,6.4
3.0,84.5,64.9,70.7,2.4,55.6,36.4
6.0,156.8,136.0,137.1,2.4,108.0,71.1
9.0,208.6,175.5,182.3,10.6,144.3,90.2
12.0,224.2,200.4,211.6,74.2,177.6,69.6
15.0,232.8,212.0,230.0,140.2,203.8,43.3
18.0,238.3,223.9,237.9,181.9,220.5,26.6
21.0,236.1,224.3,244.4,209.0,228.5,15.4
24.0,226.7,224.1,247.8,224.1,230.7,11.4
27.0,217.5,222.2,241.7,232.1,228.4,10.8
30.0,210.7,223.2,231.8,240.2,226.5,12.6
33.0,202.2,219.4,219.2,239.9,220.2,15.4
36.0,193.3,217.9,210.6,234.2,214.0,17.0
39.0,187.1,205.4,197.4,227.9,204.5,17.3
42.0,180.2,200.9,191.8,221.4,198.6,17.4
45.0,173.1,194.2,178.9,209.0,188.8,16.1
48.0,168.2,182.8,171.3,199.2,180.4,14.0
51.0,161.3,174.7,168.4,188.5,173.2,11.5
54.0,156.9,170.5,164.6,179.7,167.9,9.6
57.0,154.2,165.5,165.8,172.6,164.5,7.6
60.0,147.8,163.2,157.5,165.2,158.4,7.8
63.0,145.8,158.9,156.2,160.0,155.2,6.5
66.0,143.1,154.7,150.0,154.6,150.6,5.4
69.0,140.4,149.9,146.9,148.6,146.4,4.2
72.0,136.1,148.1,144.4,145.6,143.5,5.2
75.0,135.7,144.3,143.1,143.6,141.7,4.0
78.0,132.4,143.4,141.9,143.3,140.2,5.3
81.0,130.4,142.2,138.3,141.4,138.1,5.4
84.0,127.5,138.3,137.0,140.9,135.9,5.9
87.0,125.6,136.4,134.6,139.0,133.9,5.8
90.0,126.0,133.1,133.9,137.7,132.7,4.9
93.0,124.5,130.0,132.9,136.7,131.0,5.2
96.0,123.6,129.0,133.4,132.4,129.6,4.4
99.0,122.4,126.6,131.2,130.1,127.6,4.0
102.0,120.4,124.9,129.5,127.7,125.6,4.0
105.0,121.8,123.1,126.3,127.7,124.7,2.7
108.0,120.4,120.6,126.3,125.0,123.1,3.0
111.0,117.7,120.4,126.3,124.5,122.2,3.9
114.0,117.3,120.5,122.8,124.3,121.2,3.1
117.0,116.9,119.2,122.4,123.1,120.4,2.9
120.0,117.5,118.9,121.8,121.3,119.9,2.1
123.0,116.2,119.0,121.0,122.3,119.6,2.6
126.0,116.7,119.6,121.0,119.3,119.2,1.8
129.0,117.8,119.3,121.6,118.6,119.3,1.6
132.0,114.2,116.8,120.0,117.1,117.0,2.3
135.0,116.8,117.1,117.9,117.1,117.2,0.5
138.0,116.9,117.4,118.6,116.6,117.4,0.9
141.0,115.5,114.4,115.7,115.9,115.4,0.6
144.0,113.2,112.8,112.9,116.3,113.8,1.7
147.0,114.8,112.4,112.0,115.7,113.7,1.8
150.0,114.8,111.2,111.0,113.2,112.6,1.8
153.0,115.8,109.4,110.2,113.5,112.2,3.0
156.0,114.1,109.9,111.0,112.5,111.9,1.8
159.0,114.5,109.0,109.2,110.7,110.8,2.6
162.0,113.6,111.5,107.2,111.9,111.0,2.7
165.0,113.7,109.5,107.2,110.2,110.2,2.7
168.0,116.0,107.7,107.6,108.0,109.8,4.1
171.0,113.7,108.7,106.8,108.8,109.5,3.0
174.0,112.9,108.7,107.0,107.0,108.9,2.8
177.0,110.1,106.7,105.7,105.6,107.0,2.1
180.0,108.9,108.4,103.7,109.7,107.7,2.7
183.0,108.4,107.4,105.7,107.2,107.2,1.1
186.0,108.3,107.1,104.6,106.9,106.7,1.6
189.0,107.1,106.9,104.9,106.3,106.3,1.0
192.0,105.6,105.8,105.9,105.7,105.7,0.1
195.0,105.5,105.5,104.0,107.5,105.6,1.4
198.0,103.6,106.6,102.3,108.3,105.2,2.7
201.0,104.0,105.7,102.6,109.4,105.5,2.9
204.0,103.9,106.8,101.3,107.8,105.0,2.9
207.0,102.9,105.1,101.0,107.3,104.1,2.8
210.0,98.7,106.3,102.3,105.6,103.2,3.5
213.0,102.4,106.9,102.5,106.4,104.6,2.4
216.0,101.2,105.9,103.0,105.0,103.8,2.1
219.0,99.5,104.3,101.7,106.6,103.0,3.1
222.0,99.4,104.5,101.8,105.6,102.8,2.8
225.0,99.8,104.9,101.2,104.5,102.6,2.5
228.0,97.5,104.1,100.3,105.6,101.9,3.7
231.0,99.3,104.3,99.5,103.9,101.8,2.7
234.0,98.0,104.6,101.9,105.2,102.4,3.3
237.0,97.0,101.4,99.5,105.8,100.9,3.7
240.0,97.2,102.8,99.9,104.9,101.2,3.4
243.0,97.0,102.2,98.8,104.9,100.7,3.5
246.0,95.4,102.3,97.7,105.4,100.2,4.5
249.0,95.5,101.2,100.4,106.1,100.8,4.3
252.0,94.8,99.5,99.5,105.7,99.9,4.5
255.0,95.0,99.9,99.9,104.2,99.8,3.8
258.0,94.4,99.4,100.7,104.3,99.7,4.1
261.0,95.4,100.2,99.7,103.9,99.8,3.5
264.0,96.6,99.2,98.8,101.4,99.0,2.0
267.0,95.7,98.2,98.6,103.3,98.9,3.2
270.0,95.8,97.3,97.3,103.8,98.5,3.6
273.0,96.0,96.0,96.8,102.8,97.9,3.3
276.0,97.6,97.1,99.2,100.8,98.7,1.7
279.0,96.4,97.6,98.8,101.7,98.6,2.3
282.0,95.9,97.6,99.1,101.5,98.5,2.4
285.0,95.2,98.3,99.8,100.2,98.4,2.3
288.0,95.9,97.5,100.8,99.7,98.5,2.2
291.0,96.1,98.1,98.4,99.9,98.1,1.6
294.0,96.1,98.2,98.7,98.2,97.8,1.2
297.0,97.1,96.9,98.4,97.6,97.5,0.7
300.0,95.9,95.5,99.8,97.4,97.2,1.9
303.0,95.7,95.1,97.3,98.3,96.6,1.5
306.0,95.5,94.4,97.9,97.6,96.3,1.7
309.0,95.0,93.9,98.4,100.3,96.9,3.0
312.0,96.2,94.2,100.0,98.5,97.2,2.6
315.0,95.9,93.9,98.3,100.0,97.0,2.7
318.0,95.8,95.4,99.4,96.7,96.8,1.8
321.0,95.1,94.6,98.6,96.8,96.3,1.8
324.0,94.3,94.8,99.4,97.9,96.6,2.5
327.0,96.6,92.2,99.5,96.5,96.2,3.0
330.0,95.9,95.2,99.2,96.0,96.6,1.8
333.0,96.3,93.7,99.3,95.5,96.2,2.3
336.0,96.1,95.5,98.6,95.5,96.4,1.5
339.0,95.4,95.4,98.9,96.7,96.6,1.7
342.0,95.5,95.6,98.4,97.0,96.6,1.4
345.0,94.8,96.8,98.2,95.3,96.3,1.5
348.0,95.6,96.0,99.2,95.9,96.7,1.7
351.0,97.1,94.9,98.7,95.8,96.6,1.6
354.0,97.7,96.0,98.1,96.4,97.0,1.0
357.0,99.1,95.9,98.3,94.9,97.1,2.0
360.0,100.0,97.6,99.3,95.3,98.1,2.1
363.0,97.8,97.3,99.3,97.1,97.9,1.0
366.0,98.0,95.6,97.6,95.7,96.7,1.3
369.0,97.6,95.4,99.7,98.3,97.8,1.8
372.0,97.4,98.4,100.6,96.2,98.1,1.8
375.0,98.0,98.2,99.2,95.8,97.8,1.4
378.0,97.4,98.3,99.0,98.7,98.4,0.7
381.0,99.1,98.5,97.1,98.0,98.2,0.9
384.0,99.1,98.2,99.6,98.9,98.9,0.6
387.0,99.3,101.1,99.6,98.2,99.5,1.2
390.0,100.1,101.1,100.5,98.6,100.1,1.1
393.0,100.2,98.5,100.5,100.4,99.9,0.9
396.0,99.7,100.3,101.5,99.9,100.4,0.8
399.0,98.3,100.7,102.4,99.8,100.3,1.7
402.0,98.8,101.1,100.9,99.3,100.1,1.1
405.0,98.1,100.3,101.3,100.2,100.0,1.3
408.0,100.3,99.8,101.0,101.3,100.6,0.7
411.0,101.0,100.4,98.9,101.9,100.5,1.2
414.0,99.8,102.0,102.2,103.4,101.9,1.5
417.0,99.6,102.0,101.4,102.6,101.4,1.3
420.0,101.1,102.4,102.5,104.5,102.6,1.4
423.0,102.0,104.4,101.0,104.5,103.0,1.7
426.0,101.7,104.6,101.2,105.8,103.3,2.2
429.0,101.5,104.9,101.9,108.0,104.1,3.0
432.0,101.0,104.8,102.3,107.9,104.0,3.0
435.0,101.8,103.4,101.6,108.8,103.9,3.4
438.0,102.5,104.8,101.3,107.2,104.0,2.6
441.0,104.7,105.9,103.3,108.4,105.6,2.2
444.0,105.0,104.3,103.9,109.8,105.8,2.8
447.0,105.4,105.5,103.6,109.0,105.9,2.3
450.0,104.4,106.2,104.7,110.3,106.4,2.7
453.0,106.4,106.9,104.3,111.0,107.1,2.8
456.0,108.0,109.1,103.4,112.5,108.2,3.8
459.0,110.5,108.4,103.5,110.6,108.2,3.3
462.0,110.3,109.4,103.8,110.2,108.4,3.1
465.0,108.6,109.3,104.3,111.8,108.5,3.1
468.0,109.9,108.7,104.6,113.5,109.2,3.7
471.0,111.0,109.7,107.1,114.0,110.5,2.9
474.0,115.0,110.9,105.8,113.8,111.4,4.1
477.0,113.2,113.3,106.8,114.4,111.9,3.5
480.0,114.0,114.5,106.2,116.2,112.7,4.5
483.0,113.8,114.3,106.7,115.6,112.6,4.0
486.0,113.7,112.9,107.8,117.4,113.0,3.9
489.0,116.2,113.8,107.5,115.4,113.2,4.0
492.0,119.7,114.2,107.2,115.7,114.2,5.2
495.0,121.8,115.4,108.5,118.0,115.9,5.6
498.0,120.3,118.9,109.7,117.6,116.6,4.8
501.0,121.6,121.2,110.0,117.8,117.7,5.4
504.0,123.2,118.4,110.4,122.5,118.6,5.9
507.0,124.5,120.8,111.3,122.4,119.7,5.8
510.0,128.3,120.7,112.4,122.9,121.1,6.6
513.0,129.1,122.9,113.4,122.7,122.0,6.5
516.0,130.1,124.0,114.2,124.0,123.1,6.6
519.0,131.4,123.0,113.3,123.3,122.8,7.4
522.0,133.1,124.2,115.1,129.6,125.5,7.8
525.0,135.6,125.8,113.6,128.3,125.8,9.2
528.0,137.9,127.3,115.2,128.7,127.3,9.3
531.0,137.0,126.2,115.3,128.0,126.6,8.9
534.0,140.9,128.1,117.3,132.4,129.7,9.8
537.0,141.2,129.2,118.9,131.7,130.3,9.1
540.0,143.4,128.6,119.9,132.0,131.0,9.7
543.0,148.4,130.8,121.2,136.2,134.2,11.3
546.0,150.3,134.4,122.0,139.4,136.5,11.8
549.0,149.3,133.6,124.5,136.7,136.0,10.3
552.0,151.3,137.1,126.0,141.2,138.9,10.5
555.0,153.4,137.7,126.5,143.6,140.3,11.2
558.0,157.0,136.6,127.1,142.0,140.7,12.5
561.0,158.5,142.6,129.6,141.5,143.1,11.9
564.0,162.7,142.2,131.7,143.9,145.1,12.9
567.0,164.2,144.1,132.1,147.5,147.0,13.2
570.0,165.2,145.2,134.1,149.7,148.6,12.9
573.0,165.5,150.7,135.8,149.5,150.4,12.1
576.0,168.9,151.0,135.7,150.9,151.6,13.6
579.0,174.5,151.7,136.8,148.4,152.9,15.8
582.0,174.2,150.1,140.6,152.4,154.3,14.2
585.0,177.3,154.6,142.0,153.6,156.9,14.8
588.0,179.2,156.8,142.2,153.6,158.0,15.5
591.0,176.6,157.3,142.7,157.6,158.5,13.9
594.0,184.7,156.4,145.7,158.4,161.3,16.6
597.0,183.5,158.0,146.3,159.7,161.9,15.6
600.0,184.6,160.2,149.6,162.4,164.2,14.7
603.0,184.0,161.8,150.6,166.1,165.6,13.9
606.0,188.4,166.4,152.0,165.2,168.0,15.1
609.0,185.9,167.4,153.4,170.2,169.2,13.3
612.0,182.9,167.9,157.0,168.3,169.0,10.6
615.0,188.6,167.0,158.5,172.5,171.6,12.7
618.0,191.4,169.8,161.7,170.6,173.4,12.7
621.0,192.4,170.2,161.3,173.8,174.4,13.1
624.0,193.0,174.0,166.4,175.4,177.2,11.3
627.0,188.0,174.9,162.7,174.7,175.1,10.3
630.0,189.7,174.6,167.4,180.3,178.0,9.4
633.0,187.5,178.0,165.0,187.4,179.5,10.6
636.0,186.3,179.1,166.6,185.9,179.5,9.2
639.0,186.5,181.1,171.1,186.7,181.3,7.3
642.0,189.9,175.9,173.9,186.0,181.4,7.7
645.0,188.8,175.3,172.8,188.3,181.3,8.4
648.0,186.6,179.7,174.5,193.5,183.6,8.3
651.0,187.8,178.8,171.7,192.3,182.6,9.2
654.0,192.5,178.8,174.5,190.4,184.1,8.8
657.0,190.4,176.6,174.5,192.3,183.5,9.2
660.0,195.3,175.3,176.5,190.4,184.4,10.0
663.0,201.7,179.3,181.9,191.0,188.5,10.1
666.0,202.6,179.9,178.6,190.8,188.0,11.2
669.0,209.5,178.2,178.8,191.5,189.5,14.7
672.0,211.9,181.2,179.8,189.4,190.6,14.9
675.0,211.2,180.2,177.7,186.3,188.9,15.3
678.0,204.9,180.1,184.2,185.1,188.6,11.1
681.0,192.9,182.2,188.2,186.2,187.4,4.4
684.0,184.3,177.6,188.2,189.1,184.8,5.2
687.0,169.4,172.8,194.2,190.3,181.7,12.4
690.0,154.0,168.2,193.4,186.5,175.5,17.8
693.0,141.3,167.4,195.2,188.4,173.1,24.3
696.0,132.5,162.6,194.9,186.8,169.2,28.1
699.0,129.6,157.4,194.2,185.7,166.7,29.3
702.0,122.4,150.0,194.8,180.9,162.0,32.4
705.0,114.2,147.8,191.5,179.5,158.2,34.7
708.0,104.2,140.9,185.5,171.9,150.6,36.1
711.0,96.0,132.2,183.6,160.9,143.2,37.9
714.0,88.5,127.0,175.7,152.1,135.8,37.3
717.0,80.7,121.7,172.3,149.7,131.1,39.5
720.0,74.6,114.6,162.1,136.9,122.1,37.1
723.0,70.5,106.6,152.1,128.2,114.4,34.6
726.0,67.2,100.3,147.4,120.0,108.7,33.8
729.0,66.0,92.5,136.8,110.7,101.5,29.8
732.0,65.3,87.4,128.9,102.0,95.9,26.7
735.0,66.8,81.1,120.5,95.3,90.9,22.9
738.0,65.3,74.8,113.1,84.7,84.5,20.7
741.0,64.6,65.4,104.7,76.8,77.9,18.7
744.0,64.2,59.8,95.4,70.0,72.3,15.9
744.25,64.1,60.4,95.6,68.6,72.2,16.0

File: Basswood_Panel_HRRPUA_50.csv
Time after Ignition,Basswood_Panel_R1,Basswood_Panel_R2,Basswood_Panel_R3,Mean,Std. Dev.
0.0,2.7,3.7,4.2,3.5,0.8
2.25,2.6,2.7,3.4,2.9,0.4
4.5,2.5,2.4,3.0,2.6,0.3
6.75,1.4,2.9,3.0,2.4,0.9
9.0,1.6,4.6,3.5,3.2,1.5
11.25,27.5,23.3,22.1,24.3,2.8
13.5,80.1,74.7,69.6,74.8,5.2
15.75,136.7,140.8,125.1,134.2,8.1
18.0,190.7,187.7,180.6,186.3,5.2
20.25,220.9,221.9,213.0,218.6,4.9
22.5,252.3,238.3,228.0,239.5,12.2
24.75,268.6,261.4,242.1,257.4,13.7
27.0,278.6,271.6,258.6,269.6,10.2
29.25,276.6,271.9,261.1,269.9,7.9
31.5,286.3,281.2,263.4,277.0,12.1
33.75,279.5,271.0,263.4,271.3,8.0
36.0,281.8,283.3,265.0,276.7,10.1
38.25,279.1,277.1,264.1,273.4,8.1
40.5,274.2,270.7,273.0,272.6,1.8
42.75,282.8,267.8,264.3,271.6,9.9
45.0,272.9,273.1,272.8,272.9,0.2
47.25,266.9,266.3,266.2,266.4,0.4
49.5,266.0,265.9,260.1,264.0,3.4
51.75,259.6,255.6,257.7,257.6,2.0
54.0,258.6,252.5,247.3,252.8,5.7
56.25,251.9,247.8,250.8,250.1,2.1
58.5,249.3,241.9,246.0,245.7,3.7
60.75,241.0,246.1,241.2,242.8,2.9
63.0,240.7,238.3,244.5,241.2,3.1
65.25,244.7,235.4,237.7,239.3,4.8
67.5,235.1,236.0,228.7,233.3,4.0
69.75,231.9,231.1,226.7,229.9,2.8
72.0,226.9,221.9,228.0,225.6,3.3
74.25,233.6,225.3,219.2,226.0,7.2
76.5,222.1,220.3,219.6,220.7,1.3
78.75,221.6,220.9,217.1,219.9,2.4
81.0,219.2,220.3,218.2,219.2,1.1
83.25,218.1,219.7,216.4,218.0,1.7
85.5,213.8,212.1,213.9,213.3,1.0
87.75,215.1,207.7,212.4,211.7,3.8
90.0,211.9,207.8,213.0,210.9,2.7
92.25,209.7,202.9,209.0,207.2,3.7
94.5,206.2,203.9,210.1,206.7,3.1
96.75,207.0,199.0,207.9,204.6,4.9
99.0,200.6,203.8,205.9,203.4,2.6
101.25,204.0,201.5,203.6,203.0,1.3
103.5,196.5,199.1,204.9,200.2,4.3
105.75,196.5,199.0,200.9,198.8,2.2
108.0,195.5,196.7,193.5,195.2,1.7
110.25,194.5,198.7,193.5,195.6,2.7
112.5,190.4,192.3,194.6,192.4,2.1
114.75,191.4,193.3,192.2,192.3,0.9
117.0,188.6,187.7,189.6,188.6,1.0
119.25,189.8,193.3,190.3,191.1,1.9
121.5,189.0,189.9,186.7,188.5,1.7
123.75,187.8,183.8,182.3,184.6,2.9
126.0,183.9,184.9,183.8,184.2,0.6
128.25,181.4,181.1,184.4,182.3,1.8
130.5,181.2,181.0,182.5,181.6,0.8
132.75,179.0,181.2,178.3,179.5,1.5
135.0,181.3,181.4,179.3,180.7,1.2
137.25,178.8,174.7,176.8,176.8,2.0
139.5,176.4,177.4,175.5,176.4,0.9
141.75,174.6,180.3,174.5,176.4,3.3
144.0,170.8,175.6,174.3,173.6,2.5
146.25,169.5,175.1,172.2,172.2,2.8
148.5,173.1,172.3,171.4,172.3,0.8
150.75,171.6,173.6,169.4,171.5,2.1
153.0,168.4,170.2,168.3,169.0,1.0
155.25,168.0,170.8,165.7,168.2,2.6
157.5,169.8,168.4,166.6,168.3,1.6
159.75,167.7,168.3,163.3,166.5,2.8
162.0,165.7,167.4,162.2,165.1,2.7
164.25,164.2,167.8,160.4,164.1,3.7
166.5,164.4,165.2,160.5,163.3,2.5
168.75,160.9,167.7,160.8,163.1,4.0
171.0,163.0,167.8,159.7,163.5,4.1
173.25,160.8,164.9,158.1,161.3,3.4
175.5,162.6,167.8,157.7,162.7,5.1
177.75,160.6,164.4,159.5,161.5,2.6
180.0,161.7,163.5,156.2,160.5,3.8
182.25,161.2,164.0,159.4,161.5,2.3
184.5,159.1,165.7,157.2,160.6,4.5
186.75,160.8,166.7,156.3,161.3,5.2
189.0,159.2,165.1,154.3,159.5,5.4
191.25,159.8,164.5,153.4,159.2,5.6
193.5,159.4,165.5,154.2,159.7,5.6
195.75,158.4,163.5,152.5,158.1,5.5
198.0,156.4,162.2,153.3,157.3,4.5
200.25,156.2,161.1,152.2,156.5,4.4
202.5,154.2,159.2,152.8,155.4,3.4
204.75,155.8,159.2,152.8,155.9,3.2
207.0,154.6,160.7,154.0,156.4,3.7
209.25,157.1,159.0,151.2,155.8,4.1
211.5,155.5,160.2,152.1,155.9,4.1
213.75,157.5,157.6,151.7,155.6,3.4
216.0,155.5,156.9,154.1,155.5,1.4
218.25,158.7,156.5,151.4,155.5,3.7
220.5,157.7,156.1,153.8,155.8,1.9
222.75,155.6,158.1,153.7,155.8,2.2
225.0,156.5,154.3,153.4,154.7,1.6
227.25,156.7,156.8,152.1,155.2,2.7
229.5,154.7,157.3,152.1,154.7,2.6
231.75,156.2,156.2,150.9,154.4,3.1
234.0,155.8,155.9,149.7,153.8,3.6
236.25,154.2,153.3,150.0,152.5,2.2
238.5,155.9,153.8,151.8,153.8,2.0
240.75,155.0,152.9,149.8,152.5,2.6
243.0,157.5,154.2,150.8,154.1,3.3
245.25,155.1,154.5,151.3,153.6,2.1
247.5,156.3,154.1,151.7,154.0,2.3
249.75,155.4,154.7,151.5,153.9,2.1
252.0,154.0,157.3,148.3,153.2,4.6
254.25,155.7,154.5,148.6,152.9,3.8
256.5,154.2,155.7,150.1,153.3,2.9
258.75,154.3,153.3,148.1,151.9,3.3
261.0,155.5,155.7,147.7,153.0,4.6
263.25,158.7,151.8,147.9,152.8,5.5
265.5,154.8,155.6,149.2,153.2,3.5
267.75,157.4,154.6,148.3,153.4,4.7
270.0,156.9,153.4,149.7,153.3,3.6
272.25,153.0,155.2,151.5,153.2,1.9
274.5,159.2,158.6,148.3,155.4,6.1
276.75,157.7,153.8,150.5,154.0,3.6
279.0,155.9,153.9,153.4,154.4,1.3
281.25,158.6,157.4,151.5,155.8,3.8
283.5,156.9,154.8,150.4,154.0,3.3
285.75,157.7,155.9,150.1,154.6,4.0
288.0,157.1,153.6,148.6,153.1,4.3
290.25,160.3,154.2,149.7,154.7,5.3
292.5,158.6,154.8,152.3,155.2,3.2
294.75,159.0,154.3,149.6,154.3,4.7
297.0,158.5,154.0,152.2,154.9,3.2
299.25,159.5,155.7,150.9,155.4,4.3
301.5,156.4,154.7,150.6,153.9,2.9
303.75,156.0,155.1,149.7,153.6,3.5
306.0,158.2,155.5,150.3,154.7,4.0
308.25,154.2,157.8,148.4,153.5,4.8
310.5,159.0,153.8,148.9,153.9,5.0
312.75,161.7,157.3,150.4,156.5,5.7
315.0,160.1,155.4,150.6,155.3,4.7
317.25,160.4,157.3,150.6,156.1,5.0
319.5,159.8,155.4,152.4,155.9,3.7
321.75,157.9,156.1,149.1,154.4,4.7
324.0,161.7,157.5,148.9,156.1,6.5
326.25,159.8,155.5,148.5,154.6,5.7
328.5,158.9,156.2,147.7,154.3,5.9
330.75,159.7,154.7,148.6,154.3,5.5
333.0,161.9,157.0,145.8,154.9,8.3
335.25,158.6,160.0,149.7,156.1,5.5
337.5,160.7,155.7,150.8,155.7,4.9
339.75,157.1,157.9,151.8,155.6,3.3
342.0,161.7,158.5,149.2,156.5,6.5
344.25,162.8,158.4,151.7,157.6,5.6
346.5,159.6,159.7,150.3,156.5,5.4
348.75,163.2,157.6,149.5,156.8,6.9
351.0,160.0,157.6,153.9,157.1,3.1
353.25,163.4,160.1,150.9,158.1,6.4
355.5,161.1,158.2,149.3,156.2,6.2
357.75,161.7,163.9,149.9,158.5,7.5
360.0,162.0,158.2,152.9,157.7,4.6
362.25,163.4,162.3,152.8,159.5,5.9
364.5,163.4,162.2,155.5,160.4,4.3
366.75,161.0,164.7,157.4,161.0,3.6
369.0,161.7,163.6,155.7,160.3,4.1
371.25,164.0,161.0,156.4,160.5,3.9
373.5,165.5,164.1,151.8,160.5,7.5
375.75,161.7,160.1,153.2,158.3,4.5
378.0,164.9,161.6,155.0,160.5,5.0
380.25,164.7,163.1,157.0,161.6,4.1
382.5,163.5,162.6,157.4,161.2,3.3
384.75,163.1,163.1,157.1,161.1,3.5
387.0,164.6,166.7,159.2,163.5,3.9
389.25,160.9,166.3,159.3,162.1,3.7
391.5,161.1,165.3,162.2,162.8,2.2
393.75,165.0,164.6,162.3,164.0,1.4
396.0,163.5,166.5,166.5,165.5,1.7
398.25,166.0,167.5,162.8,165.4,2.4
400.5,163.9,167.2,166.6,165.9,1.8
402.75,165.7,167.8,164.5,166.0,1.7
405.0,163.0,166.4,165.7,165.1,1.8
407.25,167.8,166.5,165.2,166.5,1.3
409.5,167.4,168.4,168.6,168.1,0.6
411.75,164.5,168.9,170.1,167.8,3.0
414.0,165.6,170.8,170.1,168.8,2.8
416.25,168.2,170.7,168.9,169.3,1.3
418.5,165.6,172.0,172.2,170.0,3.7
420.75,170.0,171.9,173.1,171.6,1.5
423.0,170.2,172.8,173.1,172.1,1.6
425.25,170.8,168.6,175.6,171.7,3.6
427.5,168.0,172.2,173.5,171.2,2.9
429.75,168.7,171.5,173.7,171.3,2.5
432.0,167.4,175.7,176.3,173.1,5.0
434.25,168.3,176.6,176.2,173.7,4.7
436.5,173.7,173.0,178.5,175.1,3.0
438.75,172.5,177.1,177.6,175.7,2.8
441.0,170.9,175.2,183.1,176.4,6.2
443.25,172.4,174.1,182.8,176.4,5.6
445.5,172.9,174.9,185.4,177.7,6.7
447.75,176.3,177.7,183.0,179.0,3.6
450.0,171.3,180.6,185.1,179.0,7.0
452.25,175.5,181.5,189.2,182.1,6.8
454.5,177.0,182.5,187.4,182.3,5.2
456.75,182.3,181.8,189.8,184.7,4.5
459.0,178.6,184.2,189.3,184.0,5.3
461.25,178.6,184.9,187.4,183.6,4.5
463.5,181.0,187.1,188.1,185.4,3.8
465.75,181.7,186.3,190.8,186.3,4.5
468.0,182.6,186.7,196.5,188.6,7.1
470.25,180.9,191.4,190.1,187.5,5.8
472.5,185.3,189.6,196.0,190.3,5.4
474.75,181.7,192.1,193.5,189.1,6.5
477.0,181.8,193.6,195.3,190.2,7.4
479.25,182.9,194.5,196.3,191.2,7.2
481.5,188.9,194.8,197.6,193.8,4.4
483.75,189.3,194.4,199.8,194.5,5.2
486.0,187.1,196.2,202.4,195.2,7.7
488.25,186.8,198.8,203.5,196.4,8.6
490.5,189.8,202.1,208.0,199.9,9.3
492.75,191.8,204.3,208.9,201.7,8.9
495.0,191.9,205.6,208.8,202.1,9.0
497.25,194.0,209.1,209.2,204.1,8.7
499.5,194.0,206.9,211.3,204.1,9.0
501.75,195.5,205.0,211.2,203.9,7.9
504.0,194.6,211.7,214.5,206.9,10.8
506.25,194.7,210.0,212.2,205.6,9.5
508.5,198.9,214.1,210.5,207.8,8.0
510.75,197.5,211.2,212.6,207.1,8.4
513.0,198.5,210.9,218.8,209.4,10.2
515.25,198.9,209.4,217.9,208.7,9.5
517.5,196.9,209.9,222.1,209.6,12.6
519.75,199.1,211.1,222.6,210.9,11.7
522.0,199.2,212.5,220.1,210.6,10.6
524.25,195.9,211.2,222.9,210.0,13.6
526.5,198.5,213.0,222.7,211.4,12.2
528.75,198.0,209.7,220.2,209.3,11.1
531.0,200.0,209.2,219.4,209.5,9.7
533.25,202.1,207.2,224.6,211.3,11.8
535.5,200.5,209.2,220.2,209.9,9.9
537.75,201.7,206.2,223.0,210.3,11.2
540.0,203.2,200.9,220.2,208.1,10.6
542.25,200.0,198.0,216.5,204.8,10.2
544.5,196.2,194.1,214.9,201.7,11.5
546.75,194.6,188.5,216.8,199.9,14.9
549.0,196.0,187.3,215.5,199.6,14.4
551.25,190.7,184.6,212.6,196.0,14.7
553.5,190.3,177.3,214.6,194.1,18.9
555.75,189.9,172.1,212.2,191.4,20.1
558.0,184.9,163.3,211.6,186.6,24.2
560.25,179.2,154.1,210.7,181.3,28.4
562.5,171.6,145.3,213.2,176.7,34.3
564.75,163.0,132.9,212.2,169.4,40.1
567.0,152.3,118.0,210.2,160.2,46.6
569.25,141.2,106.5,212.6,153.4,54.1
571.5,129.5,95.2,205.4,143.4,56.4
573.75,115.3,87.2,205.6,136.0,61.9
576.0,104.9,79.1,206.8,130.3,67.5
578.25,91.8,71.9,206.7,123.5,72.7
580.5,82.5,64.6,205.5,117.5,76.7
582.75,74.3,61.3,202.0,112.5,77.7
585.0,67.3,57.7,201.8,108.9,80.6
587.25,61.1,55.1,201.1,105.8,82.6
589.5,58.1,53.8,198.4,103.4,82.3
591.75,54.2,52.8,197.3,101.4,83.1
594.0,52.2,51.9,194.0,99.4,82.0
596.25,51.5,49.9,189.3,96.9,80.0
598.5,51.5,48.8,185.4,95.2,78.1
600.75,51.4,49.4,182.8,94.5,76.4
603.0,52.1,48.4,182.5,94.3,76.4
605.25,50.9,47.7,177.1,91.9,73.8
607.5,50.6,47.1,176.0,91.2,73.4
609.75,49.1,46.5,166.1,87.2,68.3
612.0,47.1,46.4,160.0,84.5,65.4
614.25,46.6,45.7,155.2,82.5,63.0
615.25,46.7,47.0,151.2,81.6,60.2