Folder: fsri_materials_database/01_Data/Asphalt_Shingle/FTIR/IS (part 2)

File: Asphalt_Shingle_IS_S_220831_R5.dpt
7497.03,0.05875
7473.89,0.05302
7450.74,0.05484
7427.6,0.05522
7404.45,0.05940
7381.31,0.05828
7358.16,0.05986
7335.02,0.05201
7311.87,0.05669
7288.73,0.05702
7265.58,0.05247
7242.44,0.05349
7219.29,0.05838
7196.15,0.05699
7173,0.05388
7149.86,0.05737
7126.71,0.05221
7103.57,0.05985
7080.42,0.05353
7057.28,0.06098
7034.13,0.05738
7010.99,0.05932
6987.84,0.06178
6964.7,0.05480
6941.55,0.05293
6918.41,0.05809
6895.26,0.05972
6872.12,0.05479
6848.97,0.05956
6825.83,0.05895
6802.68,0.05702
6779.54,0.05441
6756.39,0.05611
6733.25,0.05819
6710.1,0.05591
6686.96,0.05620
6663.82,0.05870
6640.67,0.05946
6617.53,0.05676
6594.38,0.05661
6571.24,0.05263
6548.09,0.05753
6524.95,0.05611
6501.8,0.05632
6478.66,0.05452
6455.51,0.05950
6432.37,0.05945
6409.22,0.05917
6386.08,0.05531
6362.93,0.05288
6339.79,0.05032
6316.64,0.05701
6293.5,0.05662
6270.35,0.05664
6247.21,0.05618
6224.06,0.06121
6200.92,0.05874
6177.77,0.05380
6154.63,0.05871
6131.48,0.05794
6108.34,0.05367
6085.19,0.06073
6062.05,0.05665
6038.9,0.05788
6015.76,0.05950
5992.61,0.06079
5969.47,0.06085
5946.32,0.06080
5923.18,0.05829
5900.03,0.05932
5876.89,0.05826
5853.74,0.06035
5830.6,0.06243
5807.45,0.05651
5784.31,0.06080
5761.16,0.05988
5738.02,0.06089
5714.87,0.05791
5691.73,0.06007
5668.58,0.05983
5645.44,0.06087
5622.29,0.05951
5599.15,0.06039
5576,0.06149
5552.86,0.06078
5529.71,0.06034
5506.57,0.06268
5483.42,0.06255
5460.28,0.06369
5437.13,0.06254
5413.99,0.06196
5390.84,0.06128
5367.7,0.06201
5344.55,0.06191
5321.41,0.06072
5298.26,0.06315
5275.12,0.06212
5251.97,0.06303
5228.83,0.06312
5205.68,0.06250
5182.54,0.06342
5159.39,0.06362
5136.25,0.06340
5113.1,0.06250
5089.96,0.06425
5066.81,0.06357
5043.67,0.06431
5020.52,0.06403
4997.38,0.06442
4974.23,0.06407
4951.09,0.06441
4927.94,0.06496
4904.8,0.06419
4881.65,0.06442
4858.51,0.06466
4835.36,0.06553
4812.22,0.06458
4789.07,0.06509
4765.93,0.06514
4742.78,0.06517
4719.64,0.06521
4696.49,0.06480
4673.35,0.06450
4650.2,0.06604
4627.06,0.06609
4603.92,0.06644
4580.77,0.06552
4557.63,0.06514
4534.48,0.06468
4511.34,0.06522
4488.19,0.06499
4465.05,0.06371
4441.9,0.06074
4418.76,0.06135
4395.61,0.06280
4372.47,0.06201
4349.32,0.06064
4326.18,0.05925
4303.03,0.05751
4279.89,0.05713
4256.74,0.05764
4233.6,0.06051
4210.45,0.06144
4187.31,0.06222
4164.16,0.06301
4141.02,0.06311
4117.87,0.06382
4094.73,0.06346
4071.58,0.06314
4048.44,0.06185
4025.29,0.06171
4002.15,0.06137
3979,0.06178
3955.86,0.06172
3932.71,0.06231
3909.57,0.06166
3886.42,0.06147
3863.28,0.06152
3840.13,0.06167
3816.99,0.06203
3793.84,0.06247
3770.7,0.06176
3747.55,0.06177
3724.41,0.05815
3701.26,0.05157
3678.12,0.04525
3654.97,0.04345
3631.83,0.04315
3608.68,0.04111
3585.54,0.04035
3562.39,0.03901
3539.25,0.03899
3516.1,0.03950
3492.96,0.03881
3469.81,0.03874
3446.67,0.03793
3423.52,0.03873
3400.38,0.03837
3377.23,0.03789
3354.09,0.03884
3330.94,0.03877
3307.8,0.03984
3284.65,0.03952
3261.51,0.04072
3238.36,0.04159
3215.22,0.04155
3192.07,0.04226
3168.93,0.04387
3145.78,0.04442
3122.64,0.04521
3099.49,0.04647
3076.35,0.04661
3053.2,0.04711
3030.06,0.04759
3006.91,0.04808
2983.77,0.04669
2960.62,0.04282
2937.48,0.04146
2914.33,0.04487
2891.19,0.04705
2868.04,0.04666
2844.9,0.04891
2821.75,0.05336
2798.61,0.05494
2775.46,0.05623
2752.32,0.05682
2729.17,0.05668
2706.03,0.05733
2682.88,0.05813
2659.74,0.05831
2636.59,0.05867
2613.45,0.05831
2590.3,0.05873
2567.16,0.05916
2544.02,0.05911
2520.87,0.05856
2497.73,0.05911
2474.58,0.05921
2451.44,0.05992
2428.29,0.06009
2405.15,0.05964
2382,0.05942
2358.86,0.05859
2335.71,0.05802
2312.57,0.05815
2289.42,0.05750
2266.28,0.05672
2243.13,0.05573
2219.99,0.05493
2196.84,0.05368
2173.7,0.05165
2150.55,0.05038
2127.41,0.04987
2104.26,0.04873
2081.12,0.04764
2057.97,0.04678
2034.83,0.04551
2011.68,0.04505
1988.54,0.04546
1965.39,0.04531
1942.25,0.04487
1919.1,0.04467
1895.96,0.04395
1872.81,0.04407
1849.67,0.04376
1826.52,0.04318
1803.38,0.04192
1780.23,0.04078
1757.09,0.04057
1733.94,0.03967
1710.8,0.03882
1687.65,0.03816
1664.51,0.03931
1641.36,0.03969
1618.22,0.04016
1595.07,0.04150
1571.93,0.04491
1548.78,0.04907
1525.64,0.04832
1502.49,0.04594
1479.35,0.04301
1456.2,0.03992
1433.06,0.04057
1409.91,0.03950
1386.77,0.03806
1363.62,0.03796
1340.48,0.03832
1317.33,0.03735
1294.19,0.03715
1271.04,0.03563
1247.9,0.03364
1224.75,0.03455
1201.61,0.03581
1178.46,0.03637
1155.32,0.03873
1132.17,0.04508
1109.03,0.05300
1085.88,0.06145
1062.74,0.06382
1039.59,0.06915
1016.45,0.06975
993.304,0.07535
970.159,0.07288
947.014,0.07205
923.869,0.06376
900.724,0.06273
877.579,0.05903
854.434,0.05443
831.289,0.04942
808.144,0.04606
784.999,0.04572
761.854,0.04536
738.709,0.04618
715.565,0.04604
692.42,0.04462
669.275,0.04427
646.13,0.04853
622.985,0.04420
599.84,0.04254

File: Asphalt_Shingle_IS_S_220831_R6.dpt
7497.03,0.06421
7473.89,0.05931
7450.74,0.05544
7427.6,0.06244
7404.45,0.05218
7381.31,0.05678
7358.16,0.05389
7335.02,0.04934
7311.87,0.05234
7288.73,0.05603
7265.58,0.04755
7242.44,0.05601
7219.29,0.05853
7196.15,0.05296
7173,0.05461
7149.86,0.05583
7126.71,0.05710
7103.57,0.05480
7080.42,0.05942
7057.28,0.05183
7034.13,0.06083
7010.99,0.05471
6987.84,0.05670
6964.7,0.05828
6941.55,0.05805
6918.41,0.05935
6895.26,0.05795
6872.12,0.05767
6848.97,0.05421
6825.83,0.05554
6802.68,0.05637
6779.54,0.05533
6756.39,0.05393
6733.25,0.05768
6710.1,0.05462
6686.96,0.05371
6663.82,0.05976
6640.67,0.05523
6617.53,0.05726
6594.38,0.05799
6571.24,0.05691
6548.09,0.05950
6524.95,0.05499
6501.8,0.05972
6478.66,0.05637
6455.51,0.05696
6432.37,0.05787
6409.22,0.05291
6386.08,0.05855
6362.93,0.05792
6339.79,0.05336
6316.64,0.06009
6293.5,0.05848
6270.35,0.05613
6247.21,0.05820
6224.06,0.05982
6200.92,0.05811
6177.77,0.05865
6154.63,0.05452
6131.48,0.05679
6108.34,0.05629
6085.19,0.05772
6062.05,0.05980
6038.9,0.06135
6015.76,0.05915
5992.61,0.05818
5969.47,0.05871
5946.32,0.06008
5923.18,0.05745
5900.03,0.05693
5876.89,0.05998
5853.74,0.06137
5830.6,0.05940
5807.45,0.06159
5784.31,0.06016
5761.16,0.05987
5738.02,0.05857
5714.87,0.05829
5691.73,0.05977
5668.58,0.06115
5645.44,0.06221
5622.29,0.06126
5599.15,0.05984
5576,0.06178
5552.86,0.06200
5529.71,0.06155
5506.57,0.06165
5483.42,0.06015
5460.28,0.06362
5437.13,0.06163
5413.99,0.06166
5390.84,0.06243
5367.7,0.06353
5344.55,0.06202
5321.41,0.06134
5298.26,0.06330
5275.12,0.06261
5251.97,0.06249
5228.83,0.06200
5205.68,0.06276
5182.54,0.06244
5159.39,0.06294
5136.25,0.06311
5113.1,0.06289
5089.96,0.06367
5066.81,0.06352
5043.67,0.06471
5020.52,0.06320
4997.38,0.06277
4974.23,0.06370
4951.09,0.06409
4927.94,0.06530
4904.8,0.06518
4881.65,0.06423
4858.51,0.06434
4835.36,0.06436
4812.22,0.06604
4789.07,0.06703
4765.93,0.06585
4742.78,0.06471
4719.64,0.06538
4696.49,0.06567
4673.35,0.06521
4650.2,0.06625
4627.06,0.06546
4603.92,0.06578
4580.77,0.06562
4557.63,0.06584
4534.48,0.06536
4511.34,0.06540
4488.19,0.06579
4465.05,0.06411
4441.9,0.06134
4418.76,0.06181
4395.61,0.06189
4372.47,0.06121
4349.32,0.05986
4326.18,0.05864
4303.03,0.05746
4279.89,0.05637
4256.74,0.05792
4233.6,0.06058
4210.45,0.06144
4187.31,0.06190
4164.16,0.06326
4141.02,0.06322
4117.87,0.06414
4094.73,0.06331
4071.58,0.06274
4048.44,0.06271
4025.29,0.06171
4002.15,0.06178
3979,0.06177
3955.86,0.06158
3932.71,0.06157
3909.57,0.06194
3886.42,0.06210
3863.28,0.06157
3840.13,0.06228
3816.99,0.06283
3793.84,0.06192
3770.7,0.06160
3747.55,0.06091
3724.41,0.05898
3701.26,0.05102
3678.12,0.04517
3654.97,0.04380
3631.83,0.04283
3608.68,0.04139
3585.54,0.04092
3562.39,0.03949
3539.25,0.04009
3516.1,0.03942
3492.96,0.03930
3469.81,0.03871
3446.67,0.03851
3423.52,0.03826
3400.38,0.03871
3377.23,0.03820
3354.09,0.03795
3330.94,0.03920
3307.8,0.03977
3284.65,0.03951
3261.51,0.03996
3238.36,0.04084
3215.22,0.04140
3192.07,0.04274
3168.93,0.04309
3145.78,0.04366
3122.64,0.04500
3099.49,0.04619
3076.35,0.04666
3053.2,0.04729
3030.06,0.04758
3006.91,0.04734
2983.77,0.04647
2960.62,0.04312
2937.48,0.04224
2914.33,0.04534
2891.19,0.04762
2868.04,0.04736
2844.9,0.04938
2821.75,0.05359
2798.61,0.05472
2775.46,0.05626
2752.32,0.05681
2729.17,0.05676
2706.03,0.05731
2682.88,0.05801
2659.74,0.05869
2636.59,0.05888
2613.45,0.05840
2590.3,0.05912
2567.16,0.05906
2544.02,0.05870
2520.87,0.05831
2497.73,0.05877
2474.58,0.05968
2451.44,0.05997
2428.29,0.06014
2405.15,0.06009
2382,0.05918
2358.86,0.05892
2335.71,0.05849
2312.57,0.05819
2289.42,0.05758
2266.28,0.05678
2243.13,0.05607
2219.99,0.05453
2196.84,0.05340
2173.7,0.05168
2150.55,0.05078
2127.41,0.04962
2104.26,0.04889
2081.12,0.04786
2057.97,0.04711
2034.83,0.04534
2011.68,0.04497
1988.54,0.04524
1965.39,0.04521
1942.25,0.04531
1919.1,0.04432
1895.96,0.04409
1872.81,0.04380
1849.67,0.04377
1826.52,0.04336
1803.38,0.04209
1780.23,0.04091
1757.09,0.04011
1733.94,0.03975
1710.8,0.03907
1687.65,0.03863
1664.51,0.03947
1641.36,0.04007
1618.22,0.04016
1595.07,0.04131
1571.93,0.04465
1548.78,0.04930
1525.64,0.04806
1502.49,0.04561
1479.35,0.04300
1456.2,0.04005
1433.06,0.04048
1409.91,0.04030
1386.77,0.03784
1363.62,0.03827
1340.48,0.03790
1317.33,0.03725
1294.19,0.03703
1271.04,0.03538
1247.9,0.03326
1224.75,0.03475
1201.61,0.03634
1178.46,0.03694
1155.32,0.03955
1132.17,0.04518
1109.03,0.05417
1085.88,0.06142
1062.74,0.06431
1039.59,0.06953
1016.45,0.06981
993.304,0.07488
970.159,0.07292
947.014,0.07174
923.869,0.06402
900.724,0.06298
877.579,0.05898
854.434,0.05389
831.289,0.04886
808.144,0.04564
784.999,0.04568
761.854,0.04651
738.709,0.04724
715.565,0.04438
692.42,0.04386
669.275,0.04401
646.13,0.04672
622.985,0.04240
599.84,0.04308

File: Asphalt_Shingle_IS_S_220831_R7.dpt
7497.03,0.05587
7473.89,0.06118
7450.74,0.05359
7427.6,0.05853
7404.45,0.04764
7381.31,0.06041
7358.16,0.06086
7335.02,0.05719
7311.87,0.05521
7288.73,0.05479
7265.58,0.05462
7242.44,0.05146
7219.29,0.05158
7196.15,0.06200
7173,0.05601
7149.86,0.05756
7126.71,0.05322
7103.57,0.05909
7080.42,0.05366
7057.28,0.05863
7034.13,0.05684
7010.99,0.05485
6987.84,0.05541
6964.7,0.05703
6941.55,0.06028
6918.41,0.05314
6895.26,0.05482
6872.12,0.05809
6848.97,0.05186
6825.83,0.05582
6802.68,0.05966
6779.54,0.05634
6756.39,0.05474
6733.25,0.06210
6710.1,0.05557
6686.96,0.05389
6663.82,0.05790
6640.67,0.05739
6617.53,0.05350
6594.38,0.05813
6571.24,0.05929
6548.09,0.05821
6524.95,0.05614
6501.8,0.05789
6478.66,0.05553
6455.51,0.05478
6432.37,0.05548
6409.22,0.05528
6386.08,0.05577
6362.93,0.06036
6339.79,0.05713
6316.64,0.05515
6293.5,0.05652
6270.35,0.05868
6247.21,0.05880
6224.06,0.05691
6200.92,0.05578
6177.77,0.06034
6154.63,0.05734
6131.48,0.05868
6108.34,0.05778
6085.19,0.05495
6062.05,0.05822
6038.9,0.05681
6015.76,0.05919
5992.61,0.05900
5969.47,0.05899
5946.32,0.06219
5923.18,0.05838
5900.03,0.05773
5876.89,0.06129
5853.74,0.05778
5830.6,0.06209
5807.45,0.05811
5784.31,0.05950
5761.16,0.06054
5738.02,0.06153
5714.87,0.05978
5691.73,0.06060
5668.58,0.06268
5645.44,0.05969
5622.29,0.06089
5599.15,0.06088
5576,0.06244
5552.86,0.05976
5529.71,0.06253
5506.57,0.06143
5483.42,0.06315
5460.28,0.06156
5437.13,0.06295
5413.99,0.06280
5390.84,0.06357
5367.7,0.06071
5344.55,0.06306
5321.41,0.06267
5298.26,0.06211
5275.12,0.06251
5251.97,0.06302
5228.83,0.06315
5205.68,0.06459
5182.54,0.06298
5159.39,0.06489
5136.25,0.06461
5113.1,0.06335
5089.96,0.06359
5066.81,0.06344
5043.67,0.06426
5020.52,0.06378
4997.38,0.06452
4974.23,0.06318
4951.09,0.06575
4927.94,0.06486
4904.8,0.06503
4881.65,0.06509
4858.51,0.06529
4835.36,0.06574
4812.22,0.06485
4789.07,0.06695
4765.93,0.06599
4742.78,0.06698
4719.64,0.06476
4696.49,0.06575
4673.35,0.06588
4650.2,0.06686
4627.06,0.06642
4603.92,0.06604
4580.77,0.06673
4557.63,0.06578
4534.48,0.06610
4511.34,0.06568
4488.19,0.06424
4465.05,0.06369
4441.9,0.06225
4418.76,0.06174
4395.61,0.06311
4372.47,0.06167
4349.32,0.06083
4326.18,0.05908
4303.03,0.05886
4279.89,0.05718
4256.74,0.05822
4233.6,0.06044
4210.45,0.06275
4187.31,0.06242
4164.16,0.06297
4141.02,0.06427
4117.87,0.06387
4094.73,0.06350
4071.58,0.06341
4048.44,0.06264
4025.29,0.06295
4002.15,0.06253
3979,0.06235
3955.86,0.06155
3932.71,0.06209
3909.57,0.06244
3886.42,0.06237
3863.28,0.06223
3840.13,0.06252
3816.99,0.06227
3793.84,0.06215
3770.7,0.06218
3747.55,0.06188
3724.41,0.05951
3701.26,0.05173
3678.12,0.04579
3654.97,0.04346
3631.83,0.04306
3608.68,0.04165
3585.54,0.04094
3562.39,0.03951
3539.25,0.03966
3516.1,0.03909
3492.96,0.03868
3469.81,0.03847
3446.67,0.03833
3423.52,0.03819
3400.38,0.03887
3377.23,0.03798
3354.09,0.03869
3330.94,0.03863
3307.8,0.03827
3284.65,0.04061
3261.51,0.04035
3238.36,0.04119
3215.22,0.04158
3192.07,0.04293
3168.93,0.04375
3145.78,0.04454
3122.64,0.04537
3099.49,0.04611
3076.35,0.04708
3053.2,0.04740
3030.06,0.04803
3006.91,0.04806
2983.77,0.04774
2960.62,0.04371
2937.48,0.04224
2914.33,0.04559
2891.19,0.04776
2868.04,0.04763
2844.9,0.04947
2821.75,0.05420
2798.61,0.05533
2775.46,0.05680
2752.32,0.05700
2729.17,0.05732
2706.03,0.05798
2682.88,0.05834
2659.74,0.05857
2636.59,0.05861
2613.45,0.05932
2590.3,0.05919
2567.16,0.05941
2544.02,0.05964
2520.87,0.05878
2497.73,0.05941
2474.58,0.05974
2451.44,0.06057
2428.29,0.06043
2405.15,0.06014
2382,0.06020
2358.86,0.05921
2335.71,0.05882
2312.57,0.05841
2289.42,0.05824
2266.28,0.05701
2243.13,0.05629
2219.99,0.05552
2196.84,0.05411
2173.7,0.05214
2150.55,0.05112
2127.41,0.04980
2104.26,0.04915
2081.12,0.04774
2057.97,0.04731
2034.83,0.04569
2011.68,0.04543
1988.54,0.04595
1965.39,0.04552
1942.25,0.04540
1919.1,0.04488
1895.96,0.04457
1872.81,0.04414
1849.67,0.04440
1826.52,0.04367
1803.38,0.04241
1780.23,0.04119
1757.09,0.04060
1733.94,0.03979
1710.8,0.03897
1687.65,0.03866
1664.51,0.03885
1641.36,0.03976
1618.22,0.04011
1595.07,0.04166
1571.93,0.04493
1548.78,0.04937
1525.64,0.04861
1502.49,0.04610
1479.35,0.04372
1456.2,0.04034
1433.06,0.04032
1409.91,0.03982
1386.77,0.03845
1363.62,0.03827
1340.48,0.03841
1317.33,0.03769
1294.19,0.03738
1271.04,0.03556
1247.9,0.03415
1224.75,0.03493
1201.61,0.03626
1178.46,0.03694
1155.32,0.03903
1132.17,0.04528
1109.03,0.05397
1085.88,0.06193
1062.74,0.06367
1039.59,0.06954
1016.45,0.07026
993.304,0.07500
970.159,0.07330
947.014,0.07234
923.869,0.06324
900.724,0.06269
877.579,0.05860
854.434,0.05419
831.289,0.04925
808.144,0.04593
784.999,0.04594
761.854,0.04596
738.709,0.04659
715.565,0.04550
692.42,0.04400
669.275,0.04435
646.13,0.04614
622.985,0.04262
599.84,0.04052

File: Asphalt_Shingle_IS_S_220831_R8.dpt
7497.03,0.05671
7473.89,0.05447
7450.74,0.06008
7427.6,0.05307
7404.45,0.06196
7381.31,0.06131
7358.16,0.05853
7335.02,0.05288
7311.87,0.05550
7288.73,0.05476
7265.58,0.05785
7242.44,0.05522
7219.29,0.05456
7196.15,0.05659
7173,0.05149
7149.86,0.05412
7126.71,0.05546
7103.57,0.05639
7080.42,0.05869
7057.28,0.05418
7034.13,0.05452
7010.99,0.05228
6987.84,0.05457
6964.7,0.05867
6941.55,0.05597
6918.41,0.05925
6895.26,0.05079
6872.12,0.05697
6848.97,0.05687
6825.83,0.05944
6802.68,0.05570
6779.54,0.05885
6756.39,0.05733
6733.25,0.05743
6710.1,0.05487
6686.96,0.05777
6663.82,0.05808
6640.67,0.05423
6617.53,0.05626
6594.38,0.05500
6571.24,0.05840
6548.09,0.05514
6524.95,0.06037
6501.8,0.05776
6478.66,0.05720
6455.51,0.05803
6432.37,0.05752
6409.22,0.06087
6386.08,0.05661
6362.93,0.05743
6339.79,0.05791
6316.64,0.05748
6293.5,0.05740
6270.35,0.05489
6247.21,0.05905
6224.06,0.05836
6200.92,0.05787
6177.77,0.06123
6154.63,0.05739
6131.48,0.05773
6108.34,0.06145
6085.19,0.06061
6062.05,0.05968
6038.9,0.05774
6015.76,0.05744
5992.61,0.05962
5969.47,0.05784
5946.32,0.05931
5923.18,0.05783
5900.03,0.05946
5876.89,0.05920
5853.74,0.06048
5830.6,0.05962
5807.45,0.05771
5784.31,0.06002
5761.16,0.06215
5738.02,0.05941
5714.87,0.05998
5691.73,0.05851
5668.58,0.06029
5645.44,0.06224
5622.29,0.06285
5599.15,0.06274
5576,0.06166
5552.86,0.06090
5529.71,0.06105
5506.57,0.06211
5483.42,0.06167
5460.28,0.06322
5437.13,0.06070
5413.99,0.06094
5390.84,0.06308
5367.7,0.06199
5344.55,0.06120
5321.41,0.06278
5298.26,0.06203
5275.12,0.06437
5251.97,0.06371
5228.83,0.06354
5205.68,0.06337
5182.54,0.06349
5159.39,0.06276
5136.25,0.06267
5113.1,0.06272
5089.96,0.06237
5066.81,0.06301
5043.67,0.06399
5020.52,0.06395
4997.38,0.06318
4974.23,0.06451
4951.09,0.06529
4927.94,0.06448
4904.8,0.06422
4881.65,0.06448
4858.51,0.06547
4835.36,0.06570
4812.22,0.06562
4789.07,0.06550
4765.93,0.06488
4742.78,0.06630
4719.64,0.06541
4696.49,0.06555
4673.35,0.06602
4650.2,0.06577
4627.06,0.06609
4603.92,0.06643
4580.77,0.06603
4557.63,0.06685
4534.48,0.06579
4511.34,0.06555
4488.19,0.06580
4465.05,0.06381
4441.9,0.06185
4418.76,0.06263
4395.61,0.06221
4372.47,0.06185
4349.32,0.06130
4326.18,0.05907
4303.03,0.05831
4279.89,0.05654
4256.74,0.05792
4233.6,0.06076
4210.45,0.06161
4187.31,0.06236
4164.16,0.06298
4141.02,0.06342
4117.87,0.06363
4094.73,0.06399
4071.58,0.06328
4048.44,0.06300
4025.29,0.06222
4002.15,0.06245
3979,0.06253
3955.86,0.06237
3932.71,0.06155
3909.57,0.06186
3886.42,0.06174
3863.28,0.06255
3840.13,0.06236
3816.99,0.06243
3793.84,0.06271
3770.7,0.06206
3747.55,0.06192
3724.41,0.05915
3701.26,0.05179
3678.12,0.04590
3654.97,0.04432
3631.83,0.04268
3608.68,0.04273
3585.54,0.04121
3562.39,0.03970
3539.25,0.03960
3516.1,0.03980
3492.96,0.03873
3469.81,0.03935
3446.67,0.03883
3423.52,0.03837
3400.38,0.03831
3377.23,0.03788
3354.09,0.03865
3330.94,0.03910
3307.8,0.03904
3284.65,0.03960
3261.51,0.03982
3238.36,0.04053
3215.22,0.04198
3192.07,0.04257
3168.93,0.04375
3145.78,0.04410
3122.64,0.04555
3099.49,0.04607
3076.35,0.04646
3053.2,0.04735
3030.06,0.04797
3006.91,0.04839
2983.77,0.04715
2960.62,0.04322
2937.48,0.04258
2914.33,0.04514
2891.19,0.04758
2868.04,0.04706
2844.9,0.04964
2821.75,0.05421
2798.61,0.05576
2775.46,0.05660
2752.32,0.05680
2729.17,0.05733
2706.03,0.05792
2682.88,0.05836
2659.74,0.05885
2636.59,0.05913
2613.45,0.05890
2590.3,0.05935
2567.16,0.05968
2544.02,0.05932
2520.87,0.05851
2497.73,0.05904
2474.58,0.06014
2451.44,0.06070
2428.29,0.06033
2405.15,0.05990
2382,0.05997
2358.86,0.05939
2335.71,0.05835
2312.57,0.05867
2289.42,0.05803
2266.28,0.05741
2243.13,0.05659
2219.99,0.05545
2196.84,0.05400
2173.7,0.05199
2150.55,0.05076
2127.41,0.04971
2104.26,0.04916
2081.12,0.04765
2057.97,0.04687
2034.83,0.04602
2011.68,0.04570
1988.54,0.04576
1965.39,0.04541
1942.25,0.04534
1919.1,0.04475
1895.96,0.04420
1872.81,0.04421
1849.67,0.04427
1826.52,0.04390
1803.38,0.04227
1780.23,0.04154
1757.09,0.04093
1733.94,0.03996
1710.8,0.03892
1687.65,0.03848
1664.51,0.03917
1641.36,0.03974
1618.22,0.04073
1595.07,0.04153
1571.93,0.04495
1548.78,0.04983
1525.64,0.04840
1502.49,0.04641
1479.35,0.04332
1456.2,0.04028
1433.06,0.04053
1409.91,0.04040
1386.77,0.03816
1363.62,0.03817
1340.48,0.03827
1317.33,0.03756
1294.19,0.03750
1271.04,0.03568
1247.9,0.03349
1224.75,0.03495
1201.61,0.03608
1178.46,0.03699
1155.32,0.03902
1132.17,0.04520
1109.03,0.05410
1085.88,0.06204
1062.74,0.06499
1039.59,0.06963
1016.45,0.07076
993.304,0.07569
970.159,0.07337
947.014,0.07293
923.869,0.06395
900.724,0.06330
877.579,0.05927
854.434,0.05430
831.289,0.04917
808.144,0.04656
784.999,0.04531
761.854,0.04560
738.709,0.04667
715.565,0.04524
692.42,0.04446
669.275,0.04443
646.13,0.04673
622.985,0.04396
599.84,0.04279

File: Asphalt_Shingle_IS_T_220831_R8.dpt
7497.03,0.02454
7473.89,0.02277
7450.74,0.00966
7427.6,0.03019
7404.45,0.02966
7381.31,0.02260
7358.16,0.02820
7335.02,0.01767
7311.87,0.01777
7288.73,0.02147
7265.58,0.02088
7242.44,0.02056
7219.29,0.01560
7196.15,0.02238
7173,0.02686
7149.86,0.02606
7126.71,0.02269
7103.57,0.02026
7080.42,0.02456
7057.28,0.02631
7034.13,0.02519
7010.99,0.01921
6987.84,0.02667
6964.7,0.02832
6941.55,0.02537
6918.41,0.02539
6895.26,0.03035
6872.12,0.02586
6848.97,0.02355
6825.83,0.02552
6802.68,0.02574
6779.54,0.02730
6756.39,0.02509
6733.25,0.02169
6710.1,0.02377
6686.96,0.02069
6663.82,0.02482
6640.67,0.02451
6617.53,0.02350
6594.38,0.02649
6571.24,0.02375
6548.09,0.02309
6524.95,0.01920
6501.8,0.02328
6478.66,0.02231
6455.51,0.02252
6432.37,0.02197
6409.22,0.02400
6386.08,0.02317
6362.93,0.02404
6339.79,0.01712
6316.64,0.02026
6293.5,0.02121
6270.35,0.02200
6247.21,0.02048
6224.06,0.02159
6200.92,0.02204
6177.77,0.01703
6154.63,0.02399
6131.48,0.02184
6108.34,0.02106
6085.19,0.02118
6062.05,0.02239
6038.9,0.02425
6015.76,0.01908
5992.61,0.02191
5969.47,0.02059
5946.32,0.02036
5923.18,0.02208
5900.03,0.02148
5876.89,0.02244
5853.74,0.02024
5830.6,0.02114
5807.45,0.02331
5784.31,0.02227
5761.16,0.02108
5738.02,0.02175
5714.87,0.02159
5691.73,0.02363
5668.58,0.02221
5645.44,0.01923
5622.29,0.02166
5599.15,0.02181
5576,0.02078
5552.86,0.01924
5529.71,0.02136
5506.57,0.02053
5483.42,0.02272
5460.28,0.02289
5437.13,0.02334
5413.99,0.02270
5390.84,0.02157
5367.7,0.02231
5344.55,0.02174
5321.41,0.02232
5298.26,0.02433
5275.12,0.02171
5251.97,0.01976
5228.83,0.02155
5205.68,0.02115
5182.54,0.02287
5159.39,0.02354
5136.25,0.02226
5113.1,0.02179
5089.96,0.02101
5066.81,0.02111
5043.67,0.02203
5020.52,0.02305
4997.38,0.02273
4974.23,0.02135
4951.09,0.02293
4927.94,0.02286
4904.8,0.02179
4881.65,0.02183
4858.51,0.02241
4835.36,0.02161
4812.22,0.02272
4789.07,0.02359
4765.93,0.02151
4742.78,0.02099
4719.64,0.02206
4696.49,0.02145
4673.35,0.02318
4650.2,0.02164
4627.06,0.02136
4603.92,0.02239
4580.77,0.02261
4557.63,0.02216
4534.48,0.02267
4511.34,0.02212
4488.19,0.02240
4465.05,0.02245
4441.9,0.02239
4418.76,0.02242
4395.61,0.02275
4372.47,0.02258
4349.32,0.02214
4326.18,0.02166
4303.03,0.02235
4279.89,0.02233
4256.74,0.02208
4233.6,0.02189
4210.45,0.02243
4187.31,0.02211
4164.16,0.02276
4141.02,0.02248
4117.87,0.02227
4094.73,0.02247
4071.58,0.02303
4048.44,0.02251
4025.29,0.02200
4002.15,0.02294
3979,0.02218
3955.86,0.02284
3932.71,0.02316
3909.57,0.02277
3886.42,0.02275
3863.28,0.02256
3840.13,0.02281
3816.99,0.02280
3793.84,0.02195
3770.7,0.02239
3747.55,0.02320
3724.41,0.02261
3701.26,0.02210
3678.12,0.02279
3654.97,0.02227
3631.83,0.02235
3608.68,0.02177
3585.54,0.02155
3562.39,0.02165
3539.25,0.02103
3516.1,0.02112
3492.96,0.02124
3469.81,0.02194
3446.67,0.02091
3423.52,0.02032
3400.38,0.02016
3377.23,0.02105
3354.09,0.02032
3330.94,0.01967
3307.8,0.02057
3284.65,0.02044
3261.51,0.02095
3238.36,0.02077
3215.22,0.02121
3192.07,0.02128
3168.93,0.02030
3145.78,0.02076
3122.64,0.02092
3099.49,0.02111
3076.35,0.02084
3053.2,0.02052
3030.06,0.02012
3006.91,0.02009
2983.77,0.01983
2960.62,0.01957
2937.48,0.01943
2914.33,0.02009
2891.19,0.02053
2868.04,0.02020
2844.9,0.02077
2821.75,0.02110
2798.61,0.02095
2775.46,0.02162
2752.32,0.02127
2729.17,0.02098
2706.03,0.02132
2682.88,0.02166
2659.74,0.02144
2636.59,0.02100
2613.45,0.02138
2590.3,0.02122
2567.16,0.02133
2544.02,0.02114
2520.87,0.02156
2497.73,0.02087
2474.58,0.02137
2451.44,0.02080
2428.29,0.02136
2405.15,0.02118
2382,0.02125
2358.86,0.02152
2335.71,0.02102
2312.57,0.02141
2289.42,0.02108
2266.28,0.02134
2243.13,0.02129
2219.99,0.02110
2196.84,0.02104
2173.7,0.02097
2150.55,0.02110
2127.41,0.02116
2104.26,0.02091
2081.12,0.02106
2057.97,0.02068
2034.83,0.02081
2011.68,0.02078
1988.54,0.02090
1965.39,0.02062
1942.25,0.02091
1919.1,0.02053
1895.96,0.02066
1872.81,0.02030
1849.67,0.02048
1826.52,0.01995
1803.38,0.01982
1780.23,0.01899
1757.09,0.01773
1733.94,0.01951
1710.8,0.02086
1687.65,0.01933
1664.51,0.01817
1641.36,0.01881
1618.22,0.01913
1595.07,0.01942
1571.93,0.01832
1548.78,0.01871
1525.64,0.01852
1502.49,0.01901
1479.35,0.01905
1456.2,0.01885
1433.06,0.01884
1409.91,0.01849
1386.77,0.01804
1363.62,0.01822
1340.48,0.01821
1317.33,0.01700
1294.19,0.01808
1271.04,0.01956
1247.9,0.02070
1224.75,0.01959
1201.61,0.01869
1178.46,0.01816
1155.32,0.01714
1132.17,0.01810
1109.03,0.01874
1085.88,0.01824
1062.74,0.01920
1039.59,0.01981
1016.45,0.01962
993.304,0.02143
970.159,0.02114
947.014,0.02019
923.869,0.02015
900.724,0.01923
877.579,0.01891
854.434,0.01874
831.289,0.01867
808.144,0.01884
784.999,0.01903
761.854,0.01862
738.709,0.01821
715.565,0.01836
692.42,0.01747
669.275,0.01875
646.13,0.01876
622.985,0.01430
599.84,0.01527