Folder: fsri_materials_database/01_Data/Asphalt_Shingle/FTIR/IS

Note: README.md
# Materials and Products Database
### Repository of materials and products properties and fire test data to improve fire modeling and fire investigation.

This project was supported in part by Award No. 2019-DU-BX-0018, awarded by the National Institute of Justice, Office of Justice Programs, U.S. Department of Justice. The opinions, findings, and conclusions or recommendations expressed in this publication / program / exhibition are those of the author(s) and do not necessarily reflect those of the Department of Justice.

***
***

__Cite this database:__ "McKinnon, M., Weinschenk, C., Dow, N., DiDomizio, M., and Madrzykowski, D. Materials and Products Database (Version 1.0.0), Fire Safety Research Institute, UL Research Institutes. Columbia, MD 21045, 2023."

__Cite the Technical Reference Guide:__ "McKinnon, M., Weinschenk, C., and Madrzykowski, D. Materials and Products Database - Technical Reference Guide, Fire Safety Research Institute, UL Research Institutes. Columbia, MD 21045, 2023."

__Cite the User Guide:__ "McKinnon, M., and Weinschenk, C. Materials and Products Database - User Guide, Fire Safety Research Institute, UL Research Institutes. Columbia, MD 21045, 2023."

***
***

## Database Structure

## 01_Data/
Raw data generated from each apparatus are included here in plain-text format. The data is organized first by material, next by the short name of test apparatus used, and where applicable additional filtering by test settings.

### Test Apparatus and Data File Structure
- __Cone Calorimeter__ (Cone)
    + Data file structure includes the material, the short name for the apparatus, heat flux setting and scan/scalar, date of test, and replicate number. Scan is for the raw output data and scalar is for the initial conditions and high-level test parameters. 
        * Example: __MDF_Cone_HF25scalar_210323_R1__ stands for the first replicate of scalar data generated from a medium density fiber board test in cone calorimeter exposed to 25 kW/m<sup>2</sup> on March 23, 2021.
    + A _Cone_Notes.csv_ is generated for each material from the __plot_Cone_data.py__ script. For materials whose experiments deviated from typical behavior relevant pictures are included in the respective material directory.
- __Fourier Transform Infrared Spectrometer__ (FTIR)
    + The FTIR directory contains subdirectories for the Attenuated Total Reflectance method (ATR) and the Integrating Sphere (IS)
    + Data file structure for the ATR experiment files includes the material, the abbreviated name for the apparatus, date of test, and replicate number. 
        * Example: __MDF_ATR_210323_R5__ stands for the fifth replicate of data collected with the ATR accessory conducted on June 8, 2021.
    + Data file structure for the IS experiment files includes the material, the abbreviated name for the apparatus, the measurand, whether the test is a sample measurement or standard reference, date of test, and replicate number.
        * Example: __OSB_IS_REFLECT_MEAS_2

File: Asphalt_Shingle_IS_S_220831_R1.dpt
7497.03,0.04942
7473.89,0.05963
7450.74,0.05248
7427.6,0.05191
7404.45,0.05556
7381.31,0.05483
7358.16,0.05971
7335.02,0.06126
7311.87,0.05922
7288.73,0.05648
7265.58,0.05083
7242.44,0.04933
7219.29,0.05462
7196.15,0.05640
7173,0.05313
7149.86,0.05209
7126.71,0.04993
7103.57,0.05224
7080.42,0.05896
7057.28,0.05659
7034.13,0.06027
7010.99,0.05804
6987.84,0.05454
6964.7,0.04955
6941.55,0.05872
6918.41,0.05748
6895.26,0.05404
6872.12,0.05288
6848.97,0.05849
6825.83,0.05325
6802.68,0.05477
6779.54,0.05880
6756.39,0.05671
6733.25,0.05630
6710.1,0.04808
6686.96,0.05762
6663.82,0.05349
6640.67,0.05537
6617.53,0.05610
6594.38,0.05820
6571.24,0.05845
6548.09,0.05517
6524.95,0.05650
6501.8,0.05441
6478.66,0.05842
6455.51,0.05325
6432.37,0.05906
6409.22,0.05465
6386.08,0.05625
6362.93,0.05423
6339.79,0.05822
6316.64,0.06122
6293.5,0.05728
6270.35,0.05642
6247.21,0.05538
6224.06,0.05756
6200.92,0.05502
6177.77,0.05819
6154.63,0.05901
6131.48,0.05769
6108.34,0.06108
6085.19,0.05980
6062.05,0.05951
6038.9,0.06009
6015.76,0.06108
5992.61,0.06194
5969.47,0.05885
5946.32,0.05851
5923.18,0.05847
5900.03,0.06076
5876.89,0.06115
5853.74,0.06094
5830.6,0.05946
5807.45,0.06027
5784.31,0.06054
5761.16,0.06220
5738.02,0.05881
5714.87,0.06096
5691.73,0.06080
5668.58,0.06052
5645.44,0.06002
5622.29,0.06211
5599.15,0.06076
5576,0.06148
5552.86,0.06130
5529.71,0.06319
5506.57,0.06045
5483.42,0.06188
5460.28,0.06094
5437.13,0.06159
5413.99,0.06180
5390.84,0.06204
5367.7,0.06130
5344.55,0.06148
5321.41,0.06165
5298.26,0.06304
5275.12,0.06244
5251.97,0.06291
5228.83,0.06190
5205.68,0.06141
5182.54,0.06345
5159.39,0.06320
5136.25,0.06082
5113.1,0.06227
5089.96,0.06368
5066.81,0.06395
5043.67,0.06352
5020.52,0.06293
4997.38,0.06356
4974.23,0.06450
4951.09,0.06289
4927.94,0.06473
4904.8,0.06410
4881.65,0.06536
4858.51,0.06528
4835.36,0.06431
4812.22,0.06621
4789.07,0.06526
4765.93,0.06563
4742.78,0.06571
4719.64,0.06619
4696.49,0.06592
4673.35,0.06561
4650.2,0.06565
4627.06,0.06617
4603.92,0.06627
4580.77,0.06572
4557.63,0.06555
4534.48,0.06633
4511.34,0.06531
4488.19,0.06491
4465.05,0.06317
4441.9,0.06141
4418.76,0.06154
4395.61,0.06180
4372.47,0.06113
4349.32,0.06067
4326.18,0.05875
4303.03,0.05742
4279.89,0.05720
4256.74,0.05702
4233.6,0.06050
4210.45,0.06184
4187.31,0.06183
4164.16,0.06275
4141.02,0.06286
4117.87,0.06468
4094.73,0.06414
4071.58,0.06326
4048.44,0.06275
4025.29,0.06199
4002.15,0.06174
3979,0.06225
3955.86,0.06180
3932.71,0.06195
3909.57,0.06195
3886.42,0.06156
3863.28,0.06221
3840.13,0.06250
3816.99,0.06214
3793.84,0.06192
3770.7,0.06179
3747.55,0.06115
3724.41,0.05909
3701.26,0.05143
3678.12,0.04528
3654.97,0.04330
3631.83,0.04316
3608.68,0.04211
3585.54,0.04045
3562.39,0.04000
3539.25,0.03915
3516.1,0.03917
3492.96,0.03874
3469.81,0.03892
3446.67,0.03838
3423.52,0.03836
3400.38,0.03841
3377.23,0.03791
3354.09,0.03751
3330.94,0.03929
3307.8,0.03965
3284.65,0.03954
3261.51,0.04042
3238.36,0.04147
3215.22,0.04233
3192.07,0.04271
3168.93,0.04327
3145.78,0.04389
3122.64,0.04564
3099.49,0.04655
3076.35,0.04681
3053.2,0.04668
3030.06,0.04756
3006.91,0.04771
2983.77,0.04686
2960.62,0.04311
2937.48,0.04193
2914.33,0.04496
2891.19,0.04729
2868.04,0.04709
2844.9,0.04949
2821.75,0.05332
2798.61,0.05488
2775.46,0.05623
2752.32,0.05690
2729.17,0.05693
2706.03,0.05732
2682.88,0.05796
2659.74,0.05795
2636.59,0.05864
2613.45,0.05847
2590.3,0.05878
2567.16,0.05903
2544.02,0.05896
2520.87,0.05829
2497.73,0.05883
2474.58,0.05974
2451.44,0.06030
2428.29,0.06020
2405.15,0.05972
2382,0.05963
2358.86,0.05846
2335.71,0.05816
2312.57,0.05819
2289.42,0.05755
2266.28,0.05660
2243.13,0.05594
2219.99,0.05510
2196.84,0.05359
2173.7,0.05178
2150.55,0.05057
2127.41,0.04964
2104.26,0.04874
2081.12,0.04737
2057.97,0.04690
2034.83,0.04588
2011.68,0.04520
1988.54,0.04523
1965.39,0.04508
1942.25,0.04498
1919.1,0.04470
1895.96,0.04398
1872.81,0.04405
1849.67,0.04385
1826.52,0.04362
1803.38,0.04168
1780.23,0.04110
1757.09,0.04030
1733.94,0.03951
1710.8,0.03914
1687.65,0.03845
1664.51,0.03908
1641.36,0.03949
1618.22,0.04024
1595.07,0.04121
1571.93,0.04484
1548.78,0.04973
1525.64,0.04811
1502.49,0.04566
1479.35,0.04313
1456.2,0.04019
1433.06,0.04024
1409.91,0.03989
1386.77,0.03810
1363.62,0.03842
1340.48,0.03791
1317.33,0.03747
1294.19,0.03734
1271.04,0.03578
1247.9,0.03356
1224.75,0.03480
1201.61,0.03566
1178.46,0.03650
1155.32,0.03938
1132.17,0.04480
1109.03,0.05362
1085.88,0.06219
1062.74,0.06441
1039.59,0.06966
1016.45,0.06987
993.304,0.07576
970.159,0.07219
947.014,0.07200
923.869,0.06372
900.724,0.06291
877.579,0.05882
854.434,0.05365
831.289,0.04839
808.144,0.04596
784.999,0.04570
761.854,0.04521
738.709,0.04586
715.565,0.04539
692.42,0.04412
669.275,0.04451
646.13,0.04652
622.985,0.04383
599.84,0.04305

File: Asphalt_Shingle_IS_S_220831_R2.dpt
7497.03,0.05544
7473.89,0.06425
7450.74,0.05376
7427.6,0.04971
7404.45,0.05423
7381.31,0.05458
7358.16,0.05233
7335.02,0.04676
7311.87,0.05148
7288.73,0.05966
7265.58,0.05787
7242.44,0.06954
7219.29,0.06038
7196.15,0.05481
7173,0.05769
7149.86,0.05371
7126.71,0.05639
7103.57,0.05868
7080.42,0.06069
7057.28,0.05865
7034.13,0.05588
7010.99,0.05939
6987.84,0.05648
6964.7,0.05759
6941.55,0.05536
6918.41,0.04886
6895.26,0.05669
6872.12,0.05398
6848.97,0.05677
6825.83,0.05369
6802.68,0.05682
6779.54,0.05387
6756.39,0.06101
6733.25,0.05521
6710.1,0.05659
6686.96,0.05228
6663.82,0.05531
6640.67,0.05465
6617.53,0.05917
6594.38,0.05916
6571.24,0.05786
6548.09,0.05747
6524.95,0.05769
6501.8,0.05929
6478.66,0.05535
6455.51,0.05774
6432.37,0.05610
6409.22,0.05798
6386.08,0.05945
6362.93,0.05334
6339.79,0.05627
6316.64,0.05604
6293.5,0.06075
6270.35,0.05580
6247.21,0.05754
6224.06,0.06041
6200.92,0.05714
6177.77,0.05721
6154.63,0.05692
6131.48,0.05753
6108.34,0.05845
6085.19,0.05903
6062.05,0.05730
6038.9,0.05861
6015.76,0.05877
5992.61,0.05827
5969.47,0.05848
5946.32,0.06206
5923.18,0.05694
5900.03,0.06052
5876.89,0.05988
5853.74,0.05916
5830.6,0.06164
5807.45,0.05879
5784.31,0.06061
5761.16,0.06013
5738.02,0.06052
5714.87,0.05933
5691.73,0.06045
5668.58,0.05869
5645.44,0.06201
5622.29,0.06169
5599.15,0.05985
5576,0.06186
5552.86,0.06060
5529.71,0.06222
5506.57,0.06129
5483.42,0.06106
5460.28,0.06025
5437.13,0.06296
5413.99,0.06269
5390.84,0.06290
5367.7,0.06214
5344.55,0.06259
5321.41,0.06196
5298.26,0.06235
5275.12,0.06193
5251.97,0.06315
5228.83,0.06268
5205.68,0.06197
5182.54,0.06343
5159.39,0.06329
5136.25,0.06318
5113.1,0.06256
5089.96,0.06365
5066.81,0.06289
5043.67,0.06331
5020.52,0.06403
4997.38,0.06359
4974.23,0.06392
4951.09,0.06420
4927.94,0.06493
4904.8,0.06543
4881.65,0.06458
4858.51,0.06590
4835.36,0.06468
4812.22,0.06566
4789.07,0.06498
4765.93,0.06507
4742.78,0.06573
4719.64,0.06551
4696.49,0.06561
4673.35,0.06603
4650.2,0.06670
4627.06,0.06589
4603.92,0.06542
4580.77,0.06655
4557.63,0.06564
4534.48,0.06665
4511.34,0.06512
4488.19,0.06487
4465.05,0.06391
4441.9,0.06064
4418.76,0.06181
4395.61,0.06234
4372.47,0.06198
4349.32,0.06044
4326.18,0.05919
4303.03,0.05841
4279.89,0.05679
4256.74,0.05758
4233.6,0.06081
4210.45,0.06216
4187.31,0.06267
4164.16,0.06209
4141.02,0.06332
4117.87,0.06337
4094.73,0.06385
4071.58,0.06308
4048.44,0.06216
4025.29,0.06201
4002.15,0.06164
3979,0.06140
3955.86,0.06207
3932.71,0.06203
3909.57,0.06172
3886.42,0.06231
3863.28,0.06180
3840.13,0.06199
3816.99,0.06179
3793.84,0.06149
3770.7,0.06148
3747.55,0.06105
3724.41,0.05916
3701.26,0.05180
3678.12,0.04528
3654.97,0.04380
3631.83,0.04258
3608.68,0.04196
3585.54,0.03983
3562.39,0.03975
3539.25,0.03984
3516.1,0.03919
3492.96,0.03895
3469.81,0.03912
3446.67,0.03851
3423.52,0.03785
3400.38,0.03798
3377.23,0.03905
3354.09,0.03787
3330.94,0.03807
3307.8,0.03947
3284.65,0.03941
3261.51,0.03991
3238.36,0.04113
3215.22,0.04223
3192.07,0.04226
3168.93,0.04304
3145.78,0.04476
3122.64,0.04553
3099.49,0.04595
3076.35,0.04639
3053.2,0.04754
3030.06,0.04767
3006.91,0.04790
2983.77,0.04661
2960.62,0.04286
2937.48,0.04220
2914.33,0.04539
2891.19,0.04753
2868.04,0.04691
2844.9,0.04953
2821.75,0.05361
2798.61,0.05490
2775.46,0.05576
2752.32,0.05664
2729.17,0.05676
2706.03,0.05764
2682.88,0.05811
2659.74,0.05861
2636.59,0.05907
2613.45,0.05892
2590.3,0.05853
2567.16,0.05962
2544.02,0.05873
2520.87,0.05873
2497.73,0.05923
2474.58,0.05952
2451.44,0.06013
2428.29,0.06008
2405.15,0.05975
2382,0.05986
2358.86,0.05913
2335.71,0.05838
2312.57,0.05837
2289.42,0.05818
2266.28,0.05706
2243.13,0.05596
2219.99,0.05513
2196.84,0.05386
2173.7,0.05174
2150.55,0.05021
2127.41,0.04981
2104.26,0.04858
2081.12,0.04740
2057.97,0.04704
2034.83,0.04571
2011.68,0.04541
1988.54,0.04555
1965.39,0.04534
1942.25,0.04502
1919.1,0.04485
1895.96,0.04458
1872.81,0.04380
1849.67,0.04397
1826.52,0.04371
1803.38,0.04198
1780.23,0.04130
1757.09,0.04057
1733.94,0.03937
1710.8,0.03897
1687.65,0.03847
1664.51,0.03934
1641.36,0.04006
1618.22,0.04017
1595.07,0.04126
1571.93,0.04502
1548.78,0.04977
1525.64,0.04856
1502.49,0.04608
1479.35,0.04345
1456.2,0.03983
1433.06,0.04033
1409.91,0.03973
1386.77,0.03800
1363.62,0.03798
1340.48,0.03824
1317.33,0.03767
1294.19,0.03687
1271.04,0.03584
1247.9,0.03352
1224.75,0.03506
1201.61,0.03626
1178.46,0.03641
1155.32,0.03944
1132.17,0.04590
1109.03,0.05366
1085.88,0.06252
1062.74,0.06421
1039.59,0.06915
1016.45,0.07039
993.304,0.07529
970.159,0.07284
947.014,0.07199
923.869,0.06416
900.724,0.06295
877.579,0.05934
854.434,0.05383
831.289,0.04875
808.144,0.04646
784.999,0.04528
761.854,0.04565
738.709,0.04674
715.565,0.04562
692.42,0.04453
669.275,0.04486
646.13,0.04782
622.985,0.04375
599.84,0.04208

File: Asphalt_Shingle_IS_S_220831_R3.dpt
7497.03,0.05238
7473.89,0.06820
7450.74,0.05011
7427.6,0.04966
7404.45,0.05476
7381.31,0.06062
7358.16,0.05722
7335.02,0.06147
7311.87,0.05360
7288.73,0.05708
7265.58,0.06362
7242.44,0.05994
7219.29,0.05383
7196.15,0.05119
7173,0.05283
7149.86,0.05452
7126.71,0.06129
7103.57,0.05093
7080.42,0.05202
7057.28,0.05235
7034.13,0.05707
7010.99,0.04962
6987.84,0.06075
6964.7,0.05307
6941.55,0.05531
6918.41,0.05591
6895.26,0.05522
6872.12,0.05977
6848.97,0.05945
6825.83,0.05642
6802.68,0.05351
6779.54,0.05690
6756.39,0.06310
6733.25,0.05449
6710.1,0.05524
6686.96,0.05215
6663.82,0.05712
6640.67,0.06025
6617.53,0.05843
6594.38,0.05621
6571.24,0.05687
6548.09,0.05754
6524.95,0.05682
6501.8,0.05779
6478.66,0.05204
6455.51,0.05507
6432.37,0.05906
6409.22,0.05539
6386.08,0.05971
6362.93,0.05898
6339.79,0.05893
6316.64,0.05868
6293.5,0.05603
6270.35,0.05674
6247.21,0.05725
6224.06,0.05436
6200.92,0.05770
6177.77,0.05671
6154.63,0.05624
6131.48,0.05815
6108.34,0.05807
6085.19,0.05889
6062.05,0.06023
6038.9,0.05900
6015.76,0.05976
5992.61,0.05696
5969.47,0.06031
5946.32,0.05887
5923.18,0.05850
5900.03,0.05779
5876.89,0.05757
5853.74,0.06146
5830.6,0.06194
5807.45,0.05822
5784.31,0.06117
5761.16,0.05910
5738.02,0.05923
5714.87,0.05938
5691.73,0.05990
5668.58,0.05914
5645.44,0.05998
5622.29,0.06231
5599.15,0.06180
5576,0.06024
5552.86,0.06166
5529.71,0.06185
5506.57,0.06168
5483.42,0.06318
5460.28,0.06124
5437.13,0.06258
5413.99,0.06300
5390.84,0.06184
5367.7,0.06150
5344.55,0.06121
5321.41,0.06197
5298.26,0.06318
5275.12,0.06217
5251.97,0.06226
5228.83,0.06332
5205.68,0.06318
5182.54,0.06360
5159.39,0.06292
5136.25,0.06226
5113.1,0.06263
5089.96,0.06322
5066.81,0.06342
5043.67,0.06351
5020.52,0.06340
4997.38,0.06477
4974.23,0.06341
4951.09,0.06505
4927.94,0.06476
4904.8,0.06398
4881.65,0.06421
4858.51,0.06516
4835.36,0.06494
4812.22,0.06487
4789.07,0.06569
4765.93,0.06594
4742.78,0.06595
4719.64,0.06574
4696.49,0.06606
4673.35,0.06490
4650.2,0.06707
4627.06,0.06646
4603.92,0.06641
4580.77,0.06579
4557.63,0.06507
4534.48,0.06569
4511.34,0.06477
4488.19,0.06563
4465.05,0.06427
4441.9,0.06103
4418.76,0.06238
4395.61,0.06203
4372.47,0.06185
4349.32,0.06061
4326.18,0.05911
4303.03,0.05793
4279.89,0.05656
4256.74,0.05727
4233.6,0.06049
4210.45,0.06176
4187.31,0.06325
4164.16,0.06262
4141.02,0.06267
4117.87,0.06361
4094.73,0.06368
4071.58,0.06280
4048.44,0.06225
4025.29,0.06199
4002.15,0.06243
3979,0.06214
3955.86,0.06112
3932.71,0.06162
3909.57,0.06196
3886.42,0.06178
3863.28,0.06230
3840.13,0.06185
3816.99,0.06197
3793.84,0.06232
3770.7,0.06223
3747.55,0.06184
3724.41,0.05907
3701.26,0.05076
3678.12,0.04564
3654.97,0.04360
3631.83,0.04248
3608.68,0.04200
3585.54,0.04013
3562.39,0.03952
3539.25,0.03967
3516.1,0.03956
3492.96,0.03878
3469.81,0.03883
3446.67,0.03821
3423.52,0.03828
3400.38,0.03788
3377.23,0.03833
3354.09,0.03833
3330.94,0.03839
3307.8,0.03971
3284.65,0.03934
3261.51,0.04054
3238.36,0.04107
3215.22,0.04169
3192.07,0.04230
3168.93,0.04336
3145.78,0.04390
3122.64,0.04519
3099.49,0.04585
3076.35,0.04625
3053.2,0.04716
3030.06,0.04785
3006.91,0.04819
2983.77,0.04691
2960.62,0.04330
2937.48,0.04176
2914.33,0.04500
2891.19,0.04699
2868.04,0.04703
2844.9,0.04959
2821.75,0.05392
2798.61,0.05543
2775.46,0.05652
2752.32,0.05690
2729.17,0.05678
2706.03,0.05760
2682.88,0.05734
2659.74,0.05822
2636.59,0.05855
2613.45,0.05856
2590.3,0.05898
2567.16,0.05908
2544.02,0.05915
2520.87,0.05839
2497.73,0.05903
2474.58,0.05972
2451.44,0.06004
2428.29,0.06004
2405.15,0.05977
2382,0.05929
2358.86,0.05896
2335.71,0.05808
2312.57,0.05821
2289.42,0.05729
2266.28,0.05702
2243.13,0.05619
2219.99,0.05490
2196.84,0.05375
2173.7,0.05180
2150.55,0.05056
2127.41,0.04953
2104.26,0.04889
2081.12,0.04770
2057.97,0.04674
2034.83,0.04606
2011.68,0.04541
1988.54,0.04540
1965.39,0.04537
1942.25,0.04477
1919.1,0.04452
1895.96,0.04413
1872.81,0.04379
1849.67,0.04389
1826.52,0.04364
1803.38,0.04204
1780.23,0.04113
1757.09,0.04048
1733.94,0.03978
1710.8,0.03919
1687.65,0.03847
1664.51,0.03894
1641.36,0.03963
1618.22,0.03981
1595.07,0.04120
1571.93,0.04493
1548.78,0.04934
1525.64,0.04801
1502.49,0.04576
1479.35,0.04332
1456.2,0.03985
1433.06,0.04038
1409.91,0.03982
1386.77,0.03809
1363.62,0.03830
1340.48,0.03795
1317.33,0.03689
1294.19,0.03674
1271.04,0.03555
1247.9,0.03345
1224.75,0.03451
1201.61,0.03581
1178.46,0.03659
1155.32,0.03914
1132.17,0.04495
1109.03,0.05349
1085.88,0.06179
1062.74,0.06431
1039.59,0.06914
1016.45,0.06964
993.304,0.07484
970.159,0.07256
947.014,0.07214
923.869,0.06408
900.724,0.06273
877.579,0.05889
854.434,0.05376
831.289,0.04859
808.144,0.04569
784.999,0.04654
761.854,0.04574
738.709,0.04621
715.565,0.04537
692.42,0.04347
669.275,0.04514
646.13,0.04706
622.985,0.04340
599.84,0.04338

File: Asphalt_Shingle_IS_S_220831_R4.dpt
7497.03,0.06475
7473.89,0.05539
7450.74,0.05784
7427.6,0.05322
7404.45,0.05480
7381.31,0.05377
7358.16,0.05241
7335.02,0.05456
7311.87,0.05816
7288.73,0.06097
7265.58,0.05373
7242.44,0.06400
7219.29,0.05853
7196.15,0.05070
7173,0.06103
7149.86,0.05353
7126.71,0.05456
7103.57,0.05558
7080.42,0.05559
7057.28,0.05300
7034.13,0.05313
7010.99,0.04997
6987.84,0.05497
6964.7,0.05365
6941.55,0.05943
6918.41,0.05311
6895.26,0.05540
6872.12,0.05759
6848.97,0.06602
6825.83,0.05496
6802.68,0.05527
6779.54,0.05534
6756.39,0.06004
6733.25,0.05748
6710.1,0.05428
6686.96,0.05349
6663.82,0.05628
6640.67,0.05661
6617.53,0.05498
6594.38,0.05994
6571.24,0.05447
6548.09,0.05761
6524.95,0.05848
6501.8,0.05619
6478.66,0.05314
6455.51,0.05838
6432.37,0.05438
6409.22,0.05817
6386.08,0.05729
6362.93,0.06149
6339.79,0.05526
6316.64,0.05984
6293.5,0.05611
6270.35,0.06009
6247.21,0.05867
6224.06,0.05877
6200.92,0.05996
6177.77,0.05739
6154.63,0.05942
6131.48,0.05706
6108.34,0.05758
6085.19,0.05715
6062.05,0.05659
6038.9,0.05761
6015.76,0.05912
5992.61,0.05957
5969.47,0.05979
5946.32,0.05982
5923.18,0.05901
5900.03,0.05922
5876.89,0.06055
5853.74,0.06057
5830.6,0.05967
5807.45,0.05860
5784.31,0.06212
5761.16,0.05989
5738.02,0.05990
5714.87,0.06195
5691.73,0.06254
5668.58,0.06201
5645.44,0.06343
5622.29,0.06105
5599.15,0.06291
5576,0.06143
5552.86,0.06005
5529.71,0.06154
5506.57,0.06110
5483.42,0.06249
5460.28,0.06277
5437.13,0.06141
5413.99,0.06160
5390.84,0.06255
5367.7,0.06355
5344.55,0.06370
5321.41,0.06370
5298.26,0.06288
5275.12,0.06319
5251.97,0.06287
5228.83,0.06249
5205.68,0.06430
5182.54,0.06396
5159.39,0.06374
5136.25,0.06309
5113.1,0.06427
5089.96,0.06325
5066.81,0.06360
5043.67,0.06371
5020.52,0.06344
4997.38,0.06531
4974.23,0.06327
4951.09,0.06338
4927.94,0.06512
4904.8,0.06429
4881.65,0.06514
4858.51,0.06610
4835.36,0.06637
4812.22,0.06603
4789.07,0.06556
4765.93,0.06597
4742.78,0.06581
4719.64,0.06618
4696.49,0.06603
4673.35,0.06720
4650.2,0.06580
4627.06,0.06560
4603.92,0.06618
4580.77,0.06674
4557.63,0.06597
4534.48,0.06611
4511.34,0.06577
4488.19,0.06640
4465.05,0.06339
4441.9,0.06243
4418.76,0.06197
4395.61,0.06288
4372.47,0.06292
4349.32,0.06104
4326.18,0.05951
4303.03,0.05832
4279.89,0.05728
4256.74,0.05800
4233.6,0.06078
4210.45,0.06215
4187.31,0.06230
4164.16,0.06342
4141.02,0.06438
4117.87,0.06426
4094.73,0.06402
4071.58,0.06373
4048.44,0.06302
4025.29,0.06229
4002.15,0.06271
3979,0.06282
3955.86,0.06291
3932.71,0.06294
3909.57,0.06242
3886.42,0.06209
3863.28,0.06215
3840.13,0.06298
3816.99,0.06247
3793.84,0.06288
3770.7,0.06193
3747.55,0.06166
3724.41,0.05956
3701.26,0.05205
3678.12,0.04562
3654.97,0.04382
3631.83,0.04316
3608.68,0.04268
3585.54,0.04078
3562.39,0.03992
3539.25,0.03973
3516.1,0.03901
3492.96,0.03909
3469.81,0.03903
3446.67,0.03913
3423.52,0.03862
3400.38,0.03834
3377.23,0.03791
3354.09,0.03815
3330.94,0.03952
3307.8,0.03985
3284.65,0.03989
3261.51,0.04039
3238.36,0.04096
3215.22,0.04145
3192.07,0.04315
3168.93,0.04321
3145.78,0.04455
3122.64,0.04550
3099.49,0.04608
3076.35,0.04686
3053.2,0.04741
3030.06,0.04824
3006.91,0.04829
2983.77,0.04759
2960.62,0.04296
2937.48,0.04245
2914.33,0.04498
2891.19,0.04747
2868.04,0.04717
2844.9,0.04970
2821.75,0.05440
2798.61,0.05589
2775.46,0.05656
2752.32,0.05790
2729.17,0.05759
2706.03,0.05770
2682.88,0.05882
2659.74,0.05933
2636.59,0.05938
2613.45,0.05874
2590.3,0.05935
2567.16,0.05960
2544.02,0.05957
2520.87,0.05910
2497.73,0.05930
2474.58,0.06069
2451.44,0.06059
2428.29,0.06043
2405.15,0.06015
2382,0.05980
2358.86,0.05928
2335.71,0.05872
2312.57,0.05833
2289.42,0.05812
2266.28,0.05768
2243.13,0.05657
2219.99,0.05588
2196.84,0.05422
2173.7,0.05219
2150.55,0.05099
2127.41,0.05017
2104.26,0.04930
2081.12,0.04790
2057.97,0.04701
2034.83,0.04627
2011.68,0.04560
1988.54,0.04577
1965.39,0.04599
1942.25,0.04562
1919.1,0.04513
1895.96,0.04432
1872.81,0.04413
1849.67,0.04455
1826.52,0.04373
1803.38,0.04253
1780.23,0.04115
1757.09,0.04074
1733.94,0.04013
1710.8,0.03937
1687.65,0.03902
1664.51,0.03957
1641.36,0.03993
1618.22,0.04044
1595.07,0.04150
1571.93,0.04513
1548.78,0.04974
1525.64,0.04866
1502.49,0.04603
1479.35,0.04356
1456.2,0.04059
1433.06,0.04057
1409.91,0.04025
1386.77,0.03828
1363.62,0.03861
1340.48,0.03842
1317.33,0.03763
1294.19,0.03721
1271.04,0.03611
1247.9,0.03370
1224.75,0.03504
1201.61,0.03619
1178.46,0.03708
1155.32,0.03915
1132.17,0.04501
1109.03,0.05392
1085.88,0.06167
1062.74,0.06443
1039.59,0.07047
1016.45,0.07015
993.304,0.07575
970.159,0.07275
947.014,0.07261
923.869,0.06448
900.724,0.06320
877.579,0.05887
854.434,0.05351
831.289,0.04895
808.144,0.04560
784.999,0.04665
761.854,0.04565
738.709,0.04628
715.565,0.04601
692.42,0.04454
669.275,0.04543
646.13,0.04832
622.985,0.04515
599.84,0.04405