Folder: fsri_materials_database/01_Data/Asphalt_Shingle/Cone

Note: README.md
# Materials and Products Database
### Repository of materials and products properties and fire test data to improve fire modeling and fire investigation.

This project was supported in part by Award No. 2019-DU-BX-0018, awarded by the National Institute of Justice, Office of Justice Programs, U.S. Department of Justice. The opinions, findings, and conclusions or recommendations expressed in this publication / program / exhibition are those of the author(s) and do not necessarily reflect those of the Department of Justice.

***
***

__Cite this database:__ "McKinnon, M., Weinschenk, C., Dow, N., DiDomizio, M., and Madrzykowski, D. Materials and Products Database (Version 1.0.0), Fire Safety Research Institute, UL Research Institutes. Columbia, MD 21045, 2023."

__Cite the Technical Reference Guide:__ "McKinnon, M., Weinschenk, C., and Madrzykowski, D. Materials and Products Database - Technical Reference Guide, Fire Safety Research Institute, UL Research Institutes. Columbia, MD 21045, 2023."

__Cite the User Guide:__ "McKinnon, M., and Weinschenk, C. Materials and Products Database - User Guide, Fire Safety Research Institute, UL Research Institutes. Columbia, MD 21045, 2023."

***
***

## Database Structure

## 01_Data/
Raw data generated from each apparatus are included here in plain-text format. The data is organized first by material, next by the short name of test apparatus used, and where applicable additional filtering by test settings.

### Test Apparatus and Data File Structure
- __Cone Calorimeter__ (Cone)
    + Data file structure includes the material, the short name for the apparatus, heat flux setting and scan/scalar, date of test, and replicate number. Scan is for the raw output data and scalar is for the initial conditions and high-level test parameters. 
        * Example: __MDF_Cone_HF25scalar_210323_R1__ stands for the first replicate of scalar data generated from a medium density fiber board test in cone calorimeter exposed to 25 kW/m<sup>2</sup> on March 23, 2021.
    + A _Cone_Notes.csv_ is generated for each material from the __plot_Cone_data.py__ script. For materials whose experiments deviated from typical behavior relevant pictures are included in the respective material directory.
- __Fourier Transform Infrared Spectrometer__ (FTIR)
    + The FTIR directory contains subdirectories for the Attenuated Total Reflectance method (ATR) and the Integrating Sphere (IS)
    + Data file structure for the ATR experiment files includes the material, the abbreviated name for the apparatus, date of test, and replicate number. 
        * Example: __MDF_ATR_210323_R5__ stands for the fifth replicate of data collected with the ATR accessory conducted on June 8, 2021.
    + Data file structure for the IS experiment files includes the material, the abbreviated name for the apparatus, the measurand, whether the test is a sample measurement or standard reference, date of test, and replicate number.
        * Example: __OSB_IS_REFLECT_MEAS_2

File: Asphalt_Shingle_HRRPUA_25.csv
Time after Ignition,Asphalt_Shingle_R1,Asphalt_Shingle_R2,Asphalt_Shingle_R3,Mean,Std. Dev.
0.0,15.8,16.7,26.0,19.5,5.6
1.25,20.2,23.5,31.3,25.0,5.7
2.5,24.1,30.7,36.5,30.4,6.2
3.75,29.7,38.0,41.1,36.3,5.9
5.0,36.9,43.8,45.8,42.2,4.7
6.25,42.6,49.8,49.1,47.2,4.0
7.5,47.3,55.6,54.2,52.4,4.4
8.75,53.5,61.6,59.5,58.2,4.2
10.0,56.3,66.9,66.4,63.2,5.9
11.25,61.7,75.5,74.1,70.4,7.6
12.5,64.2,85.2,82.4,77.3,11.4
13.75,67.0,93.2,92.3,84.2,14.9
15.0,69.4,101.6,103.2,91.4,19.1
16.25,73.9,111.5,112.5,99.3,22.0
17.5,78.7,118.8,121.1,106.2,23.8
18.75,84.1,126.8,130.4,113.8,25.7
20.0,90.0,133.0,137.6,120.2,26.3
21.25,94.6,140.3,142.9,125.9,27.1
22.5,98.1,150.0,145.4,131.2,28.7
23.75,100.0,156.5,146.2,134.2,30.1
25.0,98.1,162.7,143.2,134.7,33.1
26.25,98.3,164.8,133.9,132.4,33.3
27.5,98.1,165.9,129.0,131.0,33.9
28.75,96.9,170.3,126.5,131.2,36.9
30.0,96.3,170.7,125.7,130.9,37.5
31.25,98.2,176.4,128.1,134.2,39.5
32.5,96.8,179.8,129.6,135.4,41.8
33.75,97.3,181.9,134.2,137.8,42.4
35.0,99.1,186.9,143.3,143.1,43.9
36.25,98.8,189.3,148.8,145.6,45.4
37.5,102.7,193.3,153.9,150.0,45.4
38.75,110.7,207.4,159.9,159.3,48.4
40.0,114.0,217.1,166.7,166.0,51.6
41.25,119.1,221.2,171.5,170.6,51.0
42.5,124.4,230.6,177.5,177.5,53.1
43.75,132.4,236.3,184.4,184.4,52.0
45.0,142.1,240.6,192.1,191.6,49.2
46.25,146.6,249.4,196.7,197.6,51.4
47.5,154.5,257.5,198.0,203.3,51.7
48.75,156.8,251.8,207.8,205.5,47.5
50.0,162.3,255.6,209.2,209.0,46.6
51.25,171.2,257.4,214.5,214.4,43.1
52.5,176.7,263.2,216.8,218.9,43.3
53.75,184.0,261.3,219.9,221.7,38.7
55.0,188.8,256.5,224.2,223.1,33.8
56.25,189.8,253.5,227.9,223.7,32.0
57.5,193.8,256.2,227.8,225.9,31.2
58.75,198.6,262.1,226.5,229.1,31.8
60.0,203.3,252.3,225.9,227.2,24.5
61.25,207.7,250.9,225.8,228.1,21.7
62.5,213.5,247.6,229.7,230.3,17.1
63.75,217.3,242.4,221.7,227.2,13.4
65.0,216.7,234.3,222.8,224.6,9.0
66.25,216.1,238.2,220.9,225.0,11.6
67.5,213.1,227.2,215.4,218.6,7.6
68.75,210.4,227.3,212.8,216.8,9.2
70.0,207.7,226.0,213.1,215.6,9.4
71.25,204.7,217.9,209.9,210.8,6.7
72.5,199.1,217.0,206.6,207.6,9.0
73.75,200.2,213.0,212.8,208.7,7.3
75.0,191.5,210.9,210.2,204.2,11.0
76.25,190.0,207.3,210.4,202.6,11.0
77.5,179.8,201.9,211.1,197.6,16.1
78.75,175.1,199.2,208.8,194.4,17.4
80.0,170.1,192.1,210.7,191.0,20.3
81.25,165.2,188.4,206.3,186.6,20.6
82.5,155.3,180.6,204.9,180.3,24.8
83.75,149.8,177.0,202.5,176.4,26.3
85.0,143.5,170.3,201.8,171.9,29.2
86.25,135.2,166.6,198.8,166.9,31.8
87.5,132.2,159.4,193.2,161.6,30.6
88.75,128.6,150.7,192.9,157.4,32.7
90.0,120.8,147.2,187.1,151.7,33.4
91.25,116.5,140.5,184.3,147.1,34.4
92.5,114.4,134.0,182.4,143.6,35.0
93.75,109.1,128.0,177.8,138.3,35.5
95.0,107.3,122.0,174.1,134.5,35.1
96.25,105.1,117.9,173.6,132.2,36.4
97.5,104.7,112.0,168.3,128.3,34.8
98.75,101.7,109.1,165.5,125.4,34.9
100.0,101.5,106.3,161.7,123.2,33.5
101.25,101.6,101.5,157.3,120.1,32.2
102.5,98.9,97.7,153.0,116.5,31.6
103.75,99.4,98.2,151.3,116.3,30.3
105.0,97.0,93.5,144.0,111.5,28.2
106.25,95.9,90.5,141.8,109.4,28.2
107.5,95.1,86.0,137.4,106.2,27.4
108.75,92.8,81.6,133.3,102.6,27.2
110.0,93.2,79.8,129.6,100.8,25.8
111.25,91.2,76.2,125.5,97.6,25.3
112.5,91.1,74.4,120.1,95.2,23.1
113.75,90.3,71.0,116.2,92.5,22.7
115.0,90.5,69.0,111.7,90.4,21.3
116.25,89.8,64.1,105.8,86.6,21.0
117.5,89.6,61.8,101.8,84.4,20.5
118.75,90.7,57.8,95.3,81.3,20.5
120.0,89.8,56.1,90.7,78.9,19.7
121.25,90.3,53.3,86.7,76.8,20.4
122.5,90.3,51.1,83.7,75.0,21.0
123.75,89.4,47.6,78.8,71.9,21.7
125.0,89.8,45.4,74.3,69.8,22.5
126.25,87.6,44.1,70.9,67.6,22.0
127.5,88.4,42.0,66.4,65.6,23.2
128.75,86.2,39.5,63.5,63.1,23.3
130.0,85.0,38.8,59.4,61.0,23.2
131.25,83.6,36.8,55.9,58.8,23.6
132.5,82.5,36.1,52.7,57.1,23.5
133.75,82.1,35.1,50.1,55.8,24.0
135.0,82.5,34.2,47.6,54.7,24.9
136.25,81.2,33.7,45.6,53.5,24.7
137.5,81.0,33.8,43.1,52.7,25.0
138.75,80.0,33.9,41.6,51.8,24.7
140.0,79.3,33.6,39.3,50.7,24.9
141.25,77.8,33.0,37.7,49.5,24.6
142.5,76.5,32.4,35.8,48.2,24.6
143.75,75.1,31.8,34.4,47.1,24.3
145.0,73.4,30.9,32.5,45.6,24.1
146.25,73.4,29.5,30.2,44.4,25.1
147.5,71.6,29.0,28.4,43.0,24.8
148.75,71.2,27.6,27.1,42.0,25.3
150.0,69.4,25.6,25.9,40.3,25.2
151.25,67.7,24.5,25.0,39.1,24.8
152.5,66.9,24.0,24.3,38.4,24.7
153.75,65.1,23.3,23.5,37.3,24.1
155.0,63.0,22.8,21.9,35.9,23.5
156.25,60.6,21.7,21.3,34.6,22.6
157.5,58.9,20.7,20.7,33.4,22.0
158.75,56.8,20.6,20.4,32.6,21.0
160.0,56.1,20.5,19.6,32.1,20.8
161.25,54.5,19.4,19.1,31.0,20.3
162.5,53.8,18.6,18.5,30.3,20.3
163.75,51.2,17.8,17.8,28.9,19.3
165.0,49.3,16.9,17.1,27.7,18.6
166.25,48.6,16.3,16.1,27.0,18.7
167.5,47.9,16.0,15.2,26.4,18.6
168.75,47.1,15.7,14.1,25.6,18.6
170.0,45.9,15.5,13.6,25.0,18.1
171.25,43.9,15.0,13.1,24.0,17.3
172.5,44.2,14.5,12.9,23.9,17.7
173.75,43.6,13.9,12.6,23.4,17.6
175.0,43.4,13.7,12.2,23.1,17.6
176.25,43.7,13.4,11.9,23.0,17.9
177.5,43.0,13.3,12.0,22.8,17.5
178.75,42.0,12.7,11.9,22.2,17.2
180.0,41.4,12.4,11.7,21.8,16.9
181.25,41.8,12.3,11.2,21.8,17.4
182.5,40.5,11.8,11.1,21.1,16.8
183.75,39.5,11.6,10.5,20.6,16.4
185.0,39.3,11.3,10.2,20.3,16.5
186.25,39.7,11.0,9.8,20.1,16.9
187.5,38.7,10.4,9.6,19.5,16.6
188.75,38.5,10.3,9.8,19.6,16.4
190.0,38.6,10.2,10.5,19.7,16.3
191.25,38.0,10.2,10.9,19.7,15.9
192.5,37.8,10.1,11.7,19.9,15.6
193.75,38.0,10.2,,24.1,19.6
195.0,37.7,10.6,,24.1,19.1
196.25,37.0,10.8,,23.9,18.5
197.5,37.1,10.7,,23.9,18.7
198.75,36.0,10.5,,23.3,18.0
200.0,35.1,10.3,,22.7,17.5
201.25,35.2,10.2,,22.7,17.6
202.5,34.5,10.1,,22.3,17.3
203.75,35.0,10.2,,22.6,17.5
205.0,34.1,9.8,,21.9,17.2
206.25,32.9,9.4,,21.2,16.7
207.5,32.5,9.0,,20.7,16.6
208.75,32.0,8.8,,20.4,16.4
210.0,31.8,8.8,,20.3,16.2
211.25,31.1,8.7,,19.9,15.8
212.5,30.4,8.5,,19.5,15.5
213.75,30.3,8.5,,19.4,15.4
215.0,29.5,8.6,,19.0,14.8
216.25,29.1,8.5,,18.8,14.6
217.5,28.6,8.3,,18.4,14.3
218.75,27.7,8.3,,18.0,13.7
220.0,27.1,8.1,,17.6,13.5
221.25,26.5,8.2,,17.3,12.9
222.5,26.3,8.2,,17.3,12.8
223.75,25.2,7.8,,16.5,12.3
225.0,24.5,7.9,,16.2,11.7
226.25,23.8,8.0,,15.9,11.1
227.5,23.3,8.1,,15.7,10.7
228.75,22.4,8.4,,15.4,9.8
230.0,22.2,8.6,,15.4,9.7
231.25,21.3,8.8,,15.0,8.9
232.5,21.4,9.3,,15.4,8.6
233.75,21.1,9.6,,15.4,8.2
235.0,20.4,9.8,,15.1,7.5
236.25,20.3,9.9,,15.1,7.3
237.5,19.6,9.8,,14.7,6.9
238.75,19.1,9.6,,14.4,6.7
240.0,18.9,9.4,,14.1,6.7
241.25,18.6,9.4,,14.0,6.5
242.5,18.8,9.3,,14.1,6.7
243.75,17.9,9.3,,13.6,6.1
245.0,17.0,9.4,,13.2,5.4
246.25,16.6,9.3,,12.9,5.1
247.5,16.0,9.3,,12.7,4.7
248.75,15.5,9.2,,12.3,4.4
250.0,14.9,9.3,,12.1,4.0
251.25,14.9,9.3,,12.1,3.9
252.5,14.5,8.9,,11.7,3.9
253.75,14.3,8.8,,11.5,3.9
255.0,14.0,8.7,,11.4,3.8
256.25,13.9,8.7,,11.3,3.7
257.5,13.5,8.6,,11.0,3.5
258.75,13.1,8.5,,10.8,3.3
260.0,12.7,8.0,,10.4,3.3
261.25,12.6,7.5,,10.1,3.6
262.5,12.6,7.8,,10.2,3.4
263.75,12.2,8.0,,10.1,3.0
265.0,11.8,8.1,,9.9,2.7
266.25,11.9,8.1,,10.0,2.7
267.5,12.7,8.4,,10.5,3.1
268.75,12.9,8.9,,10.9,2.8
270.0,13.0,9.2,,11.1,2.7
271.25,12.7,9.4,,11.0,2.3
272.5,12.8,9.6,,11.2,2.3
273.75,12.9,9.7,,11.3,2.2
275.0,12.7,9.6,,11.2,2.2
276.25,12.6,9.6,,11.1,2.1
277.5,12.0,9.6,,10.8,1.7
278.75,12.0,9.6,,10.8,1.7
280.0,11.4,9.5,,10.5,1.4
281.25,11.6,9.5,,10.6,1.5
282.5,12.1,9.5,,10.8,1.8
283.75,12.0,9.5,,10.7,1.8
285.0,11.8,9.6,,10.7,1.5
286.25,11.7,9.6,,10.7,1.5
287.5,11.5,9.6,,10.6,1.4
288.75,11.8,9.6,,10.7,1.6
290.0,11.4,9.5,,10.5,1.4
291.25,11.3,9.7,,10.5,1.1
292.5,11.2,9.6,,10.4,1.1
293.75,11.4,9.5,,10.4,1.4
295.0,10.9,9.5,,10.2,1.0
296.25,10.5,9.5,,10.0,0.7
297.5,10.8,9.5,,10.2,0.9
298.75,11.0,10.1,,10.5,0.6
300.0,11.1,10.2,,10.6,0.7
301.25,11.1,10.7,,10.9,0.3
302.5,11.1,11.2,,11.2,0.1
303.75,10.9,11.3,,11.1,0.3
305.0,10.5,11.5,,11.0,0.7
306.25,10.2,11.5,,10.9,0.9
307.5,10.2,11.5,,10.9,0.9
308.0,10.4,11.6,,11.0,0.8

File: Asphalt_Shingle_HRRPUA_50.csv
Time after Ignition,Asphalt_Shingle_R1,Asphalt_Shingle_R2,Asphalt_Shingle_R3,Mean,Std. Dev.
0.0,30.8,8.3,23.1,20.8,11.4
0.25,33.6,9.8,25.3,22.9,12.0
0.5,36.4,10.9,28.8,25.4,13.1
0.75,38.9,11.9,31.2,27.3,13.9
1.0,42.6,12.7,34.1,29.8,15.4
1.25,46.1,14.6,36.6,32.4,16.2
1.5,49.4,15.9,40.1,35.1,17.3
1.75,53.4,17.1,44.3,38.3,18.9
2.0,58.0,18.3,47.7,41.3,20.6
2.25,62.0,23.5,50.7,45.4,19.8
2.5,65.1,25.9,51.9,47.7,20.0
2.75,69.9,25.9,55.4,50.4,22.4
3.0,76.0,27.9,60.0,54.6,24.5
3.25,82.5,32.4,64.5,59.8,25.4
3.5,87.2,36.5,67.6,63.8,25.6
3.75,97.0,39.9,72.1,69.7,28.7
4.0,105.4,42.8,74.4,74.2,31.3
4.25,114.3,50.6,79.6,81.5,31.9
4.5,120.6,58.1,86.9,88.5,31.3
4.75,128.1,62.8,90.7,93.9,32.7
5.0,135.3,69.0,99.8,101.4,33.2
5.25,147.1,76.8,106.5,110.1,35.3
5.5,156.0,83.8,115.5,118.4,36.2
5.75,161.7,90.4,123.0,125.1,35.7
6.0,175.1,95.4,134.3,134.9,39.8
6.25,179.5,102.1,143.2,141.6,38.7
6.5,184.9,108.5,151.8,148.4,38.3
6.75,194.1,113.6,161.9,156.5,40.5
7.0,201.6,120.9,171.1,164.5,40.8
7.25,205.4,129.1,184.7,173.1,39.5
7.5,213.5,130.1,190.5,178.1,43.1
7.75,219.6,140.1,185.9,181.9,39.9
8.0,229.1,147.2,195.4,190.6,41.2
8.25,227.2,151.6,206.0,194.9,39.0
8.5,238.0,158.3,214.1,203.5,40.9
8.75,240.8,158.8,221.7,207.1,42.9
9.0,246.0,165.4,232.8,214.7,43.3
9.25,250.3,168.9,236.4,218.5,43.6
9.5,256.6,176.1,240.5,224.4,42.6
9.75,261.0,180.5,247.3,229.6,43.0
10.0,267.1,186.1,259.3,237.5,44.7
10.25,264.1,199.6,261.3,241.7,36.5
10.5,272.9,203.1,265.8,247.3,38.4
10.75,279.6,209.4,267.8,252.3,37.6
11.0,276.0,216.1,273.3,255.2,33.8
11.25,280.3,219.8,280.5,260.2,35.0
11.5,280.8,227.5,282.8,263.7,31.4
11.75,284.3,232.8,284.6,267.3,29.8
12.0,289.9,247.4,287.0,274.8,23.8
12.25,289.7,243.3,295.8,276.3,28.7
12.5,301.2,259.4,299.4,286.7,23.6
12.75,302.0,264.3,294.0,286.8,19.9
13.0,305.6,268.5,306.9,293.7,21.8
13.25,310.2,264.1,312.5,295.6,27.3
13.5,313.3,274.2,310.5,299.3,21.8
13.75,319.6,279.3,317.4,305.4,22.6
14.0,317.3,283.4,326.6,309.1,22.7
14.25,324.3,291.1,330.0,315.1,21.0
14.5,330.3,297.9,327.7,318.6,18.0
14.75,332.8,297.3,337.1,322.4,21.9
15.0,342.7,309.8,342.9,331.8,19.1
15.25,345.1,310.4,349.6,335.0,21.5
15.5,345.0,317.7,361.4,341.4,22.1
15.75,359.9,324.0,358.3,347.4,20.3
16.0,353.6,329.9,364.4,349.3,17.7
16.25,357.2,336.0,371.3,354.8,17.8
16.5,375.5,343.2,372.2,363.6,17.8
16.75,373.9,347.6,380.9,367.5,17.6
17.0,382.0,350.7,374.0,368.9,16.2
17.25,387.2,358.5,404.1,383.2,23.0
17.5,379.7,361.5,396.5,379.2,17.5
17.75,383.2,364.3,396.4,381.3,16.1
18.0,405.5,373.4,414.2,397.7,21.5
18.25,397.7,387.7,417.0,400.8,14.9
18.5,402.7,394.6,423.8,407.0,15.1
18.75,416.8,395.2,431.1,414.4,18.0
19.0,426.0,401.7,437.4,421.7,18.2
19.25,429.1,399.5,441.9,423.5,21.7
19.5,438.9,408.6,456.8,434.8,24.4
19.75,440.5,417.0,455.5,437.7,19.4
20.0,441.3,408.9,463.8,438.0,27.6
20.25,459.6,414.8,456.0,443.5,24.9
20.5,456.0,425.2,469.7,450.3,22.7
20.75,467.8,425.7,474.7,456.1,26.5
21.0,485.5,440.4,478.6,468.2,24.3
21.25,474.5,434.5,488.3,465.8,28.0
21.5,470.6,432.4,496.2,466.4,32.1
21.75,485.4,460.6,511.4,485.8,25.4
22.0,499.0,447.9,513.5,486.8,34.4
22.25,494.0,455.7,513.4,487.7,29.4
22.5,497.2,451.4,523.7,490.8,36.6
22.75,500.3,457.0,526.9,494.7,35.2
23.0,496.8,474.7,531.8,501.1,28.8
23.25,516.5,476.4,531.3,508.1,28.4
23.5,508.2,478.2,537.5,507.9,29.7
23.75,503.1,482.2,527.9,504.4,22.9
24.0,528.8,484.3,542.5,518.5,30.4
24.25,525.2,487.2,518.1,510.1,20.2
24.5,532.7,492.1,549.3,524.7,29.4
24.75,521.2,497.7,586.5,535.1,46.0
25.0,529.9,487.2,568.1,528.4,40.4
25.25,552.0,499.4,548.6,533.3,29.4
25.5,540.3,502.0,557.5,533.2,28.4
25.75,539.3,508.7,580.0,542.7,35.8
26.0,546.9,502.5,569.6,539.7,34.1
26.25,565.8,515.8,566.8,549.5,29.2
26.5,561.6,509.6,582.3,551.2,37.5
26.75,553.4,511.9,587.0,550.8,37.6
27.0,564.7,515.1,594.5,558.1,40.1
27.25,574.9,514.1,599.7,562.9,44.0
27.5,596.7,549.8,585.8,577.4,24.5
27.75,571.8,534.5,584.9,563.7,26.1
28.0,584.8,528.6,590.5,568.0,34.2
28.25,588.9,544.0,615.3,582.7,36.0
28.5,592.9,535.1,621.2,583.1,43.9
28.75,589.2,531.9,626.3,582.5,47.5
29.0,609.5,544.4,616.2,590.0,39.7
29.25,595.7,553.3,642.6,597.2,44.7
29.5,614.8,556.4,654.2,608.5,49.2
29.75,609.7,548.6,652.4,603.6,52.2
30.0,609.4,549.8,647.4,602.2,49.2
30.25,609.1,563.1,656.0,609.4,46.5
30.5,622.1,567.1,652.5,613.9,43.3
30.75,639.8,556.7,672.1,622.9,59.6
31.0,627.0,570.6,663.5,620.4,46.8
31.25,633.7,579.9,628.1,613.9,29.6
31.5,636.3,583.3,673.7,631.1,45.4
31.75,652.6,584.1,650.3,629.0,38.9
32.0,648.6,587.3,682.2,639.3,48.1
32.25,655.9,589.4,683.7,643.0,48.5
32.5,668.1,591.7,679.4,646.4,47.7
32.75,669.8,603.5,704.3,659.2,51.2
33.0,673.1,606.2,691.0,656.8,44.7
33.25,673.5,605.0,688.6,655.7,44.6
33.5,659.1,602.6,687.2,649.6,43.1
33.75,674.0,596.2,682.0,650.8,47.4
34.0,667.7,600.4,679.1,649.1,42.6
34.25,674.4,593.7,682.1,650.1,49.0
34.5,664.2,616.6,683.2,654.7,34.3
34.75,686.3,609.9,706.4,667.6,50.9
35.0,694.4,605.5,704.4,668.1,54.4
35.25,687.6,603.0,682.5,657.7,47.5
35.5,662.7,623.1,702.6,662.8,39.8
35.75,658.0,615.7,692.4,655.4,38.4
36.0,699.9,619.2,710.2,676.4,49.9
36.25,700.2,604.8,704.9,670.0,56.5
36.5,684.9,621.1,699.7,668.6,41.8
36.75,684.3,626.0,685.6,665.3,34.1
37.0,687.9,614.3,695.6,666.0,44.9
37.25,692.8,603.8,716.3,671.0,59.3
37.5,701.5,618.3,684.8,668.2,44.0
37.75,667.0,625.8,694.7,662.5,34.7
38.0,652.8,625.8,694.4,657.7,34.5
38.25,686.1,604.6,688.2,659.6,47.7
38.5,678.1,615.4,683.3,658.9,37.8
38.75,658.6,626.1,697.5,660.7,35.7
39.0,658.1,627.0,704.6,663.2,39.0
39.25,650.2,619.6,668.4,646.1,24.6
39.5,662.3,603.6,661.5,642.5,33.7
39.75,643.3,603.2,675.6,640.7,36.3
40.0,643.1,614.3,676.4,644.6,31.1
40.25,626.9,600.0,645.6,624.2,22.9
40.5,625.6,617.4,635.1,626.0,8.9
40.75,615.5,607.3,638.2,620.3,16.0
41.0,613.6,604.3,634.8,617.5,15.6
41.25,604.9,592.5,615.1,604.2,11.3
41.5,588.3,612.9,605.4,602.2,12.6
41.75,575.8,582.7,598.9,585.8,11.8
42.0,559.4,585.7,586.5,577.2,15.5
42.25,560.9,569.5,580.9,570.4,10.1
42.5,561.6,593.7,562.6,572.6,18.3
42.75,544.2,599.4,557.3,567.0,28.8
43.0,535.3,571.6,540.1,549.0,19.7
43.25,527.3,567.8,530.2,541.8,22.6
43.5,519.0,581.0,529.9,543.3,33.1
43.75,499.4,560.4,510.8,523.5,32.5
44.0,489.7,556.7,503.0,516.4,35.4
44.25,479.8,556.3,494.3,510.1,40.6
44.5,463.6,541.5,475.3,493.4,42.0
44.75,464.5,542.2,471.6,492.8,43.0
45.0,450.3,520.6,459.8,476.9,38.2
45.25,432.6,516.3,445.9,464.9,45.0
45.5,434.4,519.1,435.4,463.0,48.6
45.75,418.7,503.9,431.2,451.2,46.0
46.0,397.0,504.0,417.5,439.5,56.8
46.25,384.2,492.9,404.7,427.2,57.8
46.5,379.5,481.6,394.7,418.6,55.1
46.75,358.8,474.9,388.4,407.3,60.3
47.0,345.6,475.8,372.7,398.1,68.7
47.25,329.4,458.1,366.3,384.6,66.3
47.5,321.5,452.2,351.7,375.1,68.5
47.75,317.1,448.9,340.9,369.0,70.2
48.0,307.7,447.7,333.2,362.9,74.5
48.25,297.1,434.4,328.3,353.3,72.0
48.5,280.7,430.4,313.4,341.5,78.7
48.75,269.1,422.1,304.8,332.0,80.0
49.0,264.0,417.8,290.4,324.0,82.2
49.25,253.5,399.7,282.9,312.0,77.3
49.5,246.3,397.7,270.6,304.9,81.3
49.75,241.4,386.9,261.6,296.7,78.8
50.0,230.9,375.2,251.6,285.9,78.0
50.25,223.6,372.5,241.5,279.2,81.3
50.5,219.2,360.4,232.7,270.8,77.9
50.75,210.1,360.6,222.6,264.4,83.5
51.0,206.7,347.2,216.3,256.7,78.5
51.25,199.6,334.1,211.2,248.3,74.6
51.5,193.8,327.7,199.9,240.5,75.6
51.75,185.1,322.5,194.2,233.9,76.9
52.0,180.0,306.8,187.5,224.8,71.2
52.25,174.9,295.5,182.8,217.7,67.5
52.5,168.1,283.8,170.5,207.5,66.1
52.75,159.1,278.5,166.3,201.3,67.0
53.0,153.5,273.6,159.4,195.5,67.7
53.25,147.4,257.8,155.1,186.8,61.7
53.5,140.4,249.5,151.1,180.3,60.2
53.75,132.9,244.5,142.0,173.1,61.9
54.0,128.6,233.4,139.5,167.2,57.6
54.25,122.2,229.7,133.3,161.7,59.1
54.5,116.5,219.5,131.9,156.0,55.5
54.75,110.5,214.7,124.1,149.8,56.7
55.0,106.1,204.2,118.7,143.0,53.4
55.25,100.6,198.7,114.7,138.0,53.0
55.5,97.5,196.1,108.9,134.2,53.9
55.75,93.0,185.7,106.2,128.3,50.2
56.0,90.2,181.3,101.4,124.3,49.7
56.25,87.3,175.9,96.7,120.0,48.6
56.5,84.4,168.3,94.1,115.6,45.9
56.75,80.5,163.2,89.4,111.1,45.4
57.0,76.1,156.2,87.1,106.4,43.4
57.25,74.5,151.9,82.5,103.0,42.5
57.5,71.0,147.1,78.0,98.7,42.1
57.75,68.8,141.4,76.5,95.6,39.9
58.0,66.7,134.8,71.1,90.9,38.1
58.25,65.4,131.9,69.2,88.8,37.3
58.5,63.4,129.1,65.8,86.1,37.3
58.75,61.8,120.7,63.1,81.9,33.7
59.0,59.1,117.3,60.5,78.9,33.2
59.25,57.5,112.5,58.0,76.0,31.6
59.5,56.4,105.5,56.0,72.6,28.5

File: Asphalt_Shingle_HRRPUA_75.csv
Time after Ignition,Asphalt_Shingle_R1,Asphalt_Shingle_R2,Asphalt_Shingle_R3,Mean,Std. Dev.
0.0,21.5,18.0,25.1,21.5,3.5
0.25,24.2,21.2,27.6,24.3,3.2
0.5,26.8,23.8,29.6,26.7,2.9
0.75,28.8,28.2,33.7,30.2,3.0
1.0,31.0,32.4,37.7,33.7,3.5
1.25,34.9,32.9,41.0,36.2,4.2
1.5,38.6,36.2,43.9,39.6,4.0
1.75,42.3,42.9,48.8,44.7,3.6
2.0,44.7,42.2,52.9,46.6,5.6
2.25,50.0,47.6,56.9,51.5,4.8
2.5,56.3,52.8,61.3,56.8,4.2
2.75,60.6,57.7,68.7,62.3,5.7
3.0,66.1,60.8,75.0,67.3,7.2
3.25,72.8,68.1,81.4,74.1,6.7
3.5,80.8,66.8,85.2,77.6,9.6
3.75,86.2,69.7,88.9,81.6,10.4
4.0,90.2,78.1,102.4,90.2,12.2
4.25,104.7,85.2,112.3,100.7,14.0
4.5,118.5,93.1,122.7,111.4,16.0
4.75,128.2,98.6,132.0,119.6,18.3
5.0,140.2,106.5,147.0,131.2,21.7
5.25,157.6,115.0,157.3,143.3,24.5
5.5,173.6,124.4,176.5,158.2,29.3
5.75,184.1,133.7,187.2,168.3,30.0
6.0,194.1,148.3,201.7,181.4,28.9
6.25,216.6,160.0,221.1,199.2,34.1
6.5,234.6,166.9,238.6,213.4,40.3
6.75,252.9,164.1,246.2,221.1,49.5
7.0,261.8,176.4,263.5,233.9,49.8
7.25,276.3,191.7,277.3,248.4,49.1
7.5,291.8,206.0,281.4,259.7,46.8
7.75,307.5,220.9,298.4,275.6,47.6
8.0,318.2,232.1,316.7,289.0,49.3
8.25,334.4,247.8,321.7,301.3,46.8
8.5,357.5,268.7,341.8,322.7,47.4
8.75,375.6,288.2,366.3,343.4,48.0
9.0,371.6,300.4,369.4,347.1,40.5
9.25,389.7,310.6,390.5,363.6,45.9
9.5,395.8,329.9,393.5,373.1,37.4
9.75,417.5,353.0,406.2,392.2,34.4
10.0,435.1,363.9,416.0,405.0,36.8
10.25,440.3,383.7,431.3,418.4,30.4
10.5,444.7,387.5,441.7,424.6,32.2
10.75,443.0,403.3,440.0,428.8,22.1
11.0,457.2,420.0,451.1,442.8,19.9
11.25,474.2,418.6,460.6,451.1,29.0
11.5,473.1,430.4,460.8,454.7,22.0
11.75,477.9,450.1,476.2,468.1,15.6
12.0,481.0,452.9,494.3,476.1,21.1
12.25,491.2,467.1,476.6,478.3,12.2
12.5,496.0,476.3,491.7,488.0,10.4
12.75,499.7,481.3,501.5,494.2,11.2
13.0,500.5,484.3,513.0,499.3,14.4
13.25,525.1,483.5,505.6,504.7,20.9
13.5,512.4,486.6,524.0,507.7,19.1
13.75,521.0,510.2,545.2,525.5,17.9
14.0,534.8,499.9,539.6,524.8,21.7
14.25,509.2,522.9,538.3,523.5,14.6
14.5,538.1,513.8,553.5,535.1,20.0
14.75,540.3,524.4,532.7,532.4,7.9
15.0,528.6,524.3,568.3,540.4,24.2
15.25,548.3,528.7,570.4,549.1,20.8
15.5,563.0,535.9,576.1,558.3,20.5
15.75,562.0,548.6,542.9,551.2,9.8
16.0,555.7,553.3,583.6,564.2,16.9
16.25,571.4,567.7,570.9,570.0,2.0
16.5,553.1,576.6,607.4,579.0,27.2
16.75,574.6,564.1,585.2,574.6,10.6
17.0,567.0,578.9,588.5,578.1,10.8
17.25,587.5,591.5,620.1,599.7,17.8
17.5,587.3,587.8,586.8,587.3,0.5
17.75,593.9,593.8,608.0,598.6,8.1
18.0,615.6,602.1,620.0,612.6,9.3
18.25,597.7,588.9,610.7,599.1,11.0
18.5,621.9,621.8,626.0,623.2,2.4
18.75,603.4,620.2,619.4,614.3,9.5
19.0,639.2,630.7,621.3,630.4,8.9
19.25,633.9,621.9,636.0,630.6,7.6
19.5,637.3,623.7,644.0,635.0,10.3
19.75,650.4,632.9,636.2,639.9,9.3
20.0,645.1,640.3,637.2,640.8,4.0
20.25,638.9,631.4,639.6,636.7,4.5
20.5,679.3,661.1,630.7,657.0,24.6
20.75,668.4,645.6,649.5,654.5,12.2
21.0,663.9,663.9,631.3,653.0,18.8
21.25,660.1,672.0,650.0,660.7,11.0
21.5,659.4,662.6,645.1,655.7,9.3
21.75,668.4,668.3,646.5,661.1,12.6
22.0,690.8,667.8,664.6,674.4,14.3
22.25,693.8,697.4,649.7,680.3,26.6
22.5,683.2,677.6,668.4,676.4,7.5
22.75,663.3,678.6,654.7,665.5,12.1
23.0,705.4,696.5,675.9,692.6,15.1
23.25,715.8,716.4,693.6,708.6,13.0
23.5,670.9,680.2,698.9,683.3,14.2
23.75,697.5,734.8,668.1,700.2,33.5
24.0,689.5,710.9,695.9,698.8,11.0
24.25,705.4,721.7,687.7,704.9,17.0
24.5,685.5,751.6,711.6,716.2,33.3
24.75,727.6,731.3,713.6,724.2,9.3
25.0,686.0,772.3,723.8,727.3,43.3
25.25,693.4,737.6,716.1,715.7,22.1
25.5,719.0,764.8,749.3,744.4,23.3
25.75,732.4,762.4,729.7,741.5,18.1
26.0,740.2,766.3,770.1,758.9,16.3
26.25,721.9,782.5,766.9,757.1,31.4
26.5,737.2,801.1,767.5,768.6,32.0
26.75,745.6,811.1,789.7,782.1,33.4
27.0,718.7,808.7,793.9,773.8,48.3
27.25,732.3,781.3,780.8,764.8,28.2
27.5,781.4,821.7,797.9,800.4,20.3
27.75,761.1,795.3,791.8,782.7,18.8
28.0,815.1,782.9,802.1,800.1,16.2
28.25,787.2,806.2,796.8,796.7,9.5
28.5,771.7,816.3,808.0,798.7,23.7
28.75,798.8,835.9,815.7,816.8,18.6
29.0,784.8,819.8,842.6,815.8,29.1
29.25,796.3,821.5,814.7,810.9,13.0
29.5,808.9,806.1,799.3,804.8,5.0
29.75,784.1,843.1,831.7,819.6,31.3
30.0,801.9,836.6,853.8,830.7,26.4
30.25,783.5,835.5,820.1,813.0,26.7
30.5,790.7,839.1,866.5,832.1,38.4
30.75,804.9,840.0,817.9,820.9,17.7
31.0,786.2,826.2,828.4,813.6,23.8
31.25,803.7,819.6,839.3,820.9,17.8
31.5,797.0,831.1,833.1,820.4,20.3
31.75,806.0,816.4,851.4,824.6,23.8
32.0,827.8,820.6,837.2,828.5,8.3
32.25,801.6,793.2,849.1,814.6,30.1
32.5,789.5,818.3,834.8,814.2,22.9
32.75,775.9,814.1,819.5,803.2,23.8
33.0,784.2,812.9,831.2,809.5,23.7
33.25,783.6,805.8,806.7,798.7,13.1
33.5,779.0,776.8,805.2,787.0,15.8
33.75,806.1,799.1,804.8,803.3,3.7
34.0,794.4,758.1,783.0,778.5,18.5
34.25,756.2,761.5,789.6,769.1,18.0
34.5,779.4,755.6,778.6,771.2,13.5
34.75,736.3,728.3,784.6,749.7,30.5
35.0,738.0,732.2,754.8,741.7,11.7
35.25,732.9,728.1,749.5,736.8,11.2
35.5,722.8,714.3,725.9,721.0,6.0
35.75,721.9,680.4,723.3,708.5,24.3
36.0,709.5,673.1,695.8,692.8,18.4
36.25,694.3,662.9,695.2,684.2,18.4
36.5,684.5,651.2,686.5,674.1,19.8
36.75,669.6,633.8,672.4,658.6,21.6
37.0,654.7,623.1,662.0,646.6,20.6
37.25,636.5,596.6,645.9,626.3,26.2
37.5,613.8,581.1,629.6,608.1,24.8
37.75,614.9,561.2,624.4,600.2,34.1
38.0,597.3,537.5,611.4,582.1,39.2
38.25,579.1,533.3,583.1,565.2,27.7
38.5,556.2,504.7,567.6,542.9,33.5
38.75,542.0,488.7,549.9,526.9,33.3
39.0,519.8,475.4,540.7,512.0,33.3
39.25,498.0,447.9,523.8,489.9,38.6
39.5,492.1,421.3,524.5,479.3,52.8
39.75,468.3,412.1,504.3,461.6,46.4
40.0,454.8,400.2,476.6,443.8,39.3
40.25,439.8,385.5,466.6,430.7,41.3
40.5,422.8,363.4,450.7,412.3,44.6
40.75,411.4,352.7,425.3,396.5,38.6
41.0,391.8,342.7,417.8,384.1,38.1
41.25,379.3,329.4,408.8,372.5,40.2
41.5,368.1,313.0,398.9,360.0,43.5
41.75,349.9,299.5,397.5,349.0,49.0
42.0,341.8,286.3,385.2,337.8,49.5
42.25,328.2,279.8,374.7,327.6,47.4
42.5,320.4,268.6,360.8,316.6,46.3
42.75,309.0,262.9,351.4,307.8,44.3
43.0,296.2,265.1,340.2,300.5,37.7
43.25,285.4,250.6,325.5,287.2,37.5
43.5,276.7,239.5,310.2,275.4,35.4
43.75,269.8,230.5,297.0,265.8,33.4
44.0,256.6,225.3,287.3,256.4,31.0
44.25,244.7,213.5,276.9,245.0,31.7
44.5,237.4,201.5,260.8,233.3,29.9
44.75,224.7,196.5,249.6,223.6,26.6
45.0,217.4,187.7,236.4,213.8,24.5
45.25,207.8,180.0,234.4,207.4,27.2
45.5,196.9,173.2,222.3,197.5,24.6
45.75,191.9,163.3,208.3,187.9,22.8
46.0,181.5,157.1,199.6,179.4,21.3
46.25,172.0,148.2,194.7,171.6,23.2
46.5,163.6,141.8,182.5,162.6,20.4
46.75,155.1,134.2,175.4,154.9,20.6
47.0,148.9,128.7,168.8,148.8,20.0
47.25,140.2,122.5,161.9,141.5,19.7
47.5,134.9,115.5,155.4,135.3,19.9
47.75,128.7,110.0,149.6,129.4,19.8
48.0,122.6,108.3,143.3,124.7,17.6
48.25,118.7,102.4,138.2,119.8,18.0
48.5,111.7,97.5,132.0,113.7,17.3
48.75,106.2,93.5,127.0,108.9,16.9
49.0,101.0,90.2,122.7,104.6,16.5
49.25,98.5,87.7,118.2,101.5,15.4
49.5,94.8,84.3,114.6,97.9,15.4
49.75,90.9,81.5,109.4,93.9,14.2
50.0,89.0,78.9,106.0,91.3,13.7
50.25,86.4,77.2,102.6,88.7,12.9
50.5,81.6,74.6,98.7,85.0,12.4
50.75,79.6,72.3,95.7,82.5,12.0
51.0,76.6,70.0,92.9,79.8,11.8
51.25,74.9,68.9,88.9,77.5,10.3
51.5,72.9,,87.8,80.3,10.5
51.75,71.0,,83.6,77.3,8.9