Folder: fsri_materials_database/01_Data/Memory_Foam_Carpet_Pad/Cone

Note: README.md
# Materials and Products Database
### Repository of materials and products properties and fire test data to improve fire modeling and fire investigation.

This project was supported in part by Award No. 2019-DU-BX-0018, awarded by the National Institute of Justice, Office of Justice Programs, U.S. Department of Justice. The opinions, findings, and conclusions or recommendations expressed in this publication / program / exhibition are those of the author(s) and do not necessarily reflect those of the Department of Justice.

***
***

__Cite this database:__ "McKinnon, M., Weinschenk, C., Dow, N., DiDomizio, M., and Madrzykowski, D. Materials and Products Database (Version 1.0.0), Fire Safety Research Institute, UL Research Institutes. Columbia, MD 21045, 2023."

__Cite the Technical Reference Guide:__ "McKinnon, M., Weinschenk, C., and Madrzykowski, D. Materials and Products Database - Technical Reference Guide, Fire Safety Research Institute, UL Research Institutes. Columbia, MD 21045, 2023."

__Cite the User Guide:__ "McKinnon, M., and Weinschenk, C. Materials and Products Database - User Guide, Fire Safety Research Institute, UL Research Institutes. Columbia, MD 21045, 2023."

***
***

## Database Structure

## 01_Data/
Raw data generated from each apparatus are included here in plain-text format. The data is organized first by material, next by the short name of test apparatus used, and where applicable additional filtering by test settings.

### Test Apparatus and Data File Structure
- __Cone Calorimeter__ (Cone)
    + Data file structure includes the material, the short name for the apparatus, heat flux setting and scan/scalar, date of test, and replicate number. Scan is for the raw output data and scalar is for the initial conditions and high-level test parameters. 
        * Example: __MDF_Cone_HF25scalar_210323_R1__ stands for the first replicate of scalar data generated from a medium density fiber board test in cone calorimeter exposed to 25 kW/m<sup>2</sup> on March 23, 2021.
    + A _Cone_Notes.csv_ is generated for each material from the __plot_Cone_data.py__ script. For materials whose experiments deviated from typical behavior relevant pictures are included in the respective material directory.
- __Fourier Transform Infrared Spectrometer__ (FTIR)
    + The FTIR directory contains subdirectories for the Attenuated Total Reflectance method (ATR) and the Integrating Sphere (IS)
    + Data file structure for the ATR experiment files includes the material, the abbreviated name for the apparatus, date of test, and replicate number. 
        * Example: __MDF_ATR_210323_R5__ stands for the fifth replicate of data collected with the ATR accessory conducted on June 8, 2021.
    + Data file structure for the IS experiment files includes the material, the abbreviated name for the apparatus, the measurand, whether the test is a sample measurement or standard reference, date of test, and replicate number.
        * Example: __OSB_IS_REFLECT_MEAS_2

File: Memory_Foam_Carpet_Pad_HRRPUA_25.csv
Time after Ignition,Memory_Foam_Carpet_Pad_R1,Memory_Foam_Carpet_Pad_R2,Memory_Foam_Carpet_Pad_R3,Mean,Std. Dev.
0.0,35.1,25.3,21.4,27.3,7.0
0.5,41.8,33.8,33.4,36.3,4.8
1.0,55.1,44.3,45.5,48.3,5.9
1.5,67.4,52.1,61.5,60.3,7.7
2.0,79.9,58.3,75.6,71.2,11.4
2.5,94.4,71.3,90.2,85.3,12.3
3.0,103.3,81.9,100.8,95.4,11.7
3.5,116.8,91.9,113.9,107.5,13.6
4.0,128.2,102.1,123.7,118.0,14.0
4.5,134.7,116.0,135.4,128.7,11.0
5.0,146.0,123.4,142.0,137.2,12.1
5.5,155.5,139.1,146.0,146.9,8.2
6.0,163.6,146.5,155.7,155.2,8.6
6.5,167.0,158.6,155.2,160.3,6.1
7.0,172.5,164.3,166.2,167.7,4.3
7.5,177.9,169.9,168.7,172.2,5.0
8.0,184.1,179.6,172.4,178.7,5.9
8.5,187.0,182.3,177.2,182.2,4.9
9.0,192.4,187.0,180.4,186.6,6.0
9.5,193.4,188.9,186.5,189.6,3.5
10.0,195.1,193.9,188.1,192.4,3.7
10.5,197.9,196.0,189.5,194.5,4.4
11.0,201.3,199.6,194.8,198.6,3.4
11.5,201.0,202.1,198.3,200.5,2.0
12.0,208.4,204.7,203.9,205.7,2.4
12.5,206.0,210.0,205.9,207.3,2.3
13.0,209.6,208.2,207.7,208.5,1.0
13.5,210.7,214.1,210.2,211.7,2.1
14.0,213.4,214.0,214.8,214.1,0.7
14.5,212.9,220.4,215.3,216.2,3.8
15.0,213.8,220.6,217.0,217.1,3.4
15.5,221.9,228.2,218.3,222.8,5.0
16.0,218.6,224.8,218.4,220.6,3.7
16.5,221.1,228.3,223.4,224.3,3.7
17.0,225.0,227.3,221.1,224.4,3.1
17.5,225.0,226.8,229.4,227.1,2.2
18.0,229.9,233.9,228.1,230.7,3.0
18.5,230.4,235.1,229.7,231.7,3.0
19.0,237.0,236.4,232.8,235.4,2.3
19.5,238.3,235.8,236.7,236.9,1.3
20.0,238.4,236.4,240.4,238.4,2.0
20.5,243.2,240.0,236.9,240.0,3.1
21.0,241.5,240.1,244.2,241.9,2.1
21.5,244.8,244.3,246.7,245.2,1.3
22.0,251.2,247.8,248.8,249.3,1.8
22.5,252.9,253.0,252.3,252.7,0.4
23.0,256.2,248.7,259.3,254.7,5.5
23.5,259.0,255.8,258.2,257.7,1.7
24.0,272.5,262.9,267.1,267.5,4.8
24.5,267.2,261.3,267.6,265.4,3.5
25.0,270.8,267.0,273.1,270.3,3.1
25.5,271.7,270.7,276.6,273.0,3.1
26.0,276.5,270.3,278.9,275.2,4.4
26.5,280.4,274.9,286.6,280.6,5.9
27.0,281.8,281.6,294.4,285.9,7.3
27.5,285.0,286.1,294.6,288.6,5.2
28.0,293.9,282.7,306.0,294.2,11.6
28.5,287.3,294.0,305.1,295.5,9.0
29.0,292.3,285.9,308.3,295.5,11.5
29.5,293.0,298.5,306.1,299.2,6.6
30.0,304.0,302.1,324.1,310.1,12.2
30.5,305.4,305.5,313.3,308.0,4.5
31.0,307.7,303.8,327.3,312.9,12.6
31.5,308.3,307.4,330.2,315.3,12.9
32.0,319.6,318.9,332.6,323.7,7.7
32.5,314.4,307.1,337.4,319.6,15.9
33.0,323.0,314.8,338.1,325.3,11.8
33.5,323.2,315.8,340.1,326.4,12.4
34.0,327.9,328.2,340.1,332.1,7.0
34.5,322.2,329.6,345.3,332.4,11.8
35.0,322.4,332.7,351.0,335.4,14.5
35.5,334.1,334.3,348.2,338.9,8.1
36.0,328.9,335.9,347.9,337.6,9.6
36.5,329.2,336.9,345.3,337.2,8.0
37.0,335.4,337.8,354.7,342.6,10.5
37.5,339.9,335.0,368.8,347.9,18.3
38.0,339.3,345.5,356.0,346.9,8.5
38.5,340.1,354.5,364.7,353.1,12.4
39.0,344.7,346.2,371.4,354.1,15.0
39.5,350.9,356.2,369.8,359.0,9.7
40.0,361.6,361.7,380.9,368.1,11.1
40.5,360.3,366.7,373.8,366.9,6.7
41.0,367.8,364.6,380.3,370.9,8.3
41.5,365.8,369.6,382.6,372.6,8.8
42.0,376.8,374.4,392.1,381.1,9.6
42.5,388.8,382.8,392.1,387.9,4.7
43.0,393.3,379.5,397.1,390.0,9.3
43.5,388.3,396.8,398.3,394.4,5.4
44.0,391.7,398.1,407.1,398.9,7.7
44.5,392.8,402.8,399.2,398.3,5.0
45.0,399.4,410.4,401.1,403.6,5.9
45.5,401.9,412.6,414.5,409.6,6.8
46.0,418.7,417.6,429.4,421.9,6.5
46.5,425.0,432.7,424.7,427.5,4.5
47.0,425.7,424.6,430.0,426.8,2.8
47.5,437.6,431.9,431.5,433.6,3.4
48.0,442.9,439.6,428.2,436.9,7.7
48.5,444.4,442.8,448.0,445.1,2.7
49.0,459.3,447.9,442.4,449.9,8.6
49.5,457.4,466.0,448.1,457.2,9.0
50.0,475.0,464.3,453.9,464.4,10.6
50.5,463.8,461.1,469.1,464.7,4.1
51.0,470.7,480.9,469.7,473.8,6.2
51.5,470.6,469.0,481.8,473.8,7.0
52.0,475.4,483.4,500.3,486.4,12.7
52.5,488.9,474.8,495.1,486.3,10.4
53.0,500.6,488.9,507.8,499.1,9.6
53.5,507.0,505.8,501.7,504.8,2.8
54.0,522.4,496.4,509.6,509.4,13.0
54.5,512.9,522.8,509.4,515.0,6.9
55.0,518.7,521.8,533.0,524.5,7.5
55.5,530.4,530.3,527.1,529.3,1.9
56.0,525.5,519.8,532.7,526.0,6.5
56.5,546.5,545.2,543.0,544.9,1.8
57.0,539.5,541.5,560.0,547.0,11.3
57.5,551.3,534.5,525.0,536.9,13.3
58.0,574.4,544.2,560.4,559.7,15.1
58.5,550.4,558.1,558.4,555.6,4.5
59.0,555.3,550.0,579.2,561.5,15.6
59.5,589.5,562.4,570.0,573.9,14.0
60.0,567.8,564.4,570.1,567.4,2.9
60.5,594.3,587.6,588.9,590.2,3.6
61.0,573.1,580.6,590.6,581.5,8.8
61.5,581.1,574.0,580.4,578.5,3.9
62.0,561.6,586.8,599.6,582.6,19.3
62.5,583.5,594.7,616.7,598.3,16.9
63.0,588.8,613.0,620.0,607.3,16.3
63.5,614.4,577.8,621.2,604.5,23.4
64.0,595.3,592.4,609.4,599.0,9.1
64.5,604.9,599.0,600.3,601.4,3.1
65.0,603.5,626.0,616.3,615.3,11.2
65.5,601.5,600.5,631.7,611.2,17.7
66.0,606.8,592.0,637.0,611.9,22.9
66.5,621.5,617.9,637.6,625.7,10.5
67.0,611.8,629.7,617.3,619.6,9.2
67.5,602.0,633.3,647.8,627.7,23.4
68.0,600.1,630.7,637.3,622.7,19.8
68.5,609.0,636.0,624.0,623.0,13.5
69.0,619.4,636.0,634.1,629.8,9.1
69.5,635.3,634.4,637.1,635.6,1.4
70.0,625.5,632.9,654.7,637.7,15.2
70.5,621.6,638.8,642.9,634.5,11.3
71.0,652.4,599.3,652.8,634.8,30.8
71.5,630.3,639.0,655.3,641.5,12.7
72.0,637.4,653.7,658.1,649.8,10.9
72.5,643.6,667.0,668.3,659.6,13.9
73.0,626.8,665.1,642.2,644.7,19.3
73.5,660.0,643.8,649.1,651.0,8.3
74.0,623.0,647.3,656.6,642.3,17.3
74.5,643.9,636.4,663.5,647.9,14.0
75.0,639.4,665.3,659.7,654.8,13.7
75.5,647.1,654.1,657.6,652.9,5.4
76.0,627.1,649.3,660.6,645.6,17.1
76.5,636.0,631.5,662.3,643.3,16.6
77.0,621.6,659.0,636.3,639.0,18.9
77.5,636.1,679.8,649.9,655.3,22.3
78.0,643.6,661.8,638.1,647.8,12.4
78.5,658.4,648.7,656.5,654.5,5.1
79.0,645.2,651.7,671.8,656.2,13.9
79.5,651.0,663.6,682.4,665.7,15.8
80.0,618.4,650.6,672.6,647.2,27.2
80.5,612.3,665.2,677.9,651.8,34.8
81.0,654.1,664.6,674.5,664.4,10.2
81.5,626.5,672.8,681.9,660.4,29.7
82.0,620.5,664.2,621.2,635.3,25.0
82.5,616.2,645.1,658.8,640.0,21.7
83.0,621.3,647.5,652.8,640.5,16.9
83.5,631.2,637.2,669.3,645.9,20.5
84.0,604.9,655.5,654.5,638.3,28.9
84.5,596.5,631.9,669.0,632.5,36.2
85.0,606.6,658.8,654.2,639.9,28.9
85.5,622.4,644.1,629.4,632.0,11.1
86.0,592.8,660.1,616.2,623.0,34.2
86.5,595.5,645.2,617.2,619.3,25.0
87.0,608.1,644.8,612.8,621.9,20.0
87.5,595.2,633.8,586.3,605.1,25.2
88.0,582.8,617.4,600.3,600.2,17.3
88.5,585.0,623.9,598.3,602.4,19.8
89.0,569.9,609.6,595.0,591.5,20.1
89.5,574.5,627.5,558.7,586.9,36.0
90.0,555.1,605.8,552.4,571.1,30.1
90.5,557.9,613.0,547.8,572.9,35.1
91.0,560.4,604.3,553.3,572.7,27.6
91.5,531.4,596.8,532.3,553.5,37.5
92.0,550.5,591.5,525.6,555.9,33.2
92.5,530.4,576.9,515.6,541.0,32.0
93.0,537.1,581.2,498.3,538.9,41.5
93.5,505.9,578.2,504.1,529.4,42.3
94.0,501.3,567.2,480.1,516.2,45.4
94.5,507.5,560.0,466.5,511.3,46.9
95.0,486.0,534.2,457.7,492.6,38.7
95.5,481.3,545.1,460.8,495.7,44.0
96.0,472.8,523.6,440.5,478.9,41.9
96.5,472.0,520.3,436.0,476.1,42.3
97.0,441.4,509.1,426.0,458.8,44.2
97.5,429.3,493.6,408.9,443.9,44.2
98.0,423.2,485.4,413.8,440.8,38.9
98.5,414.5,462.3,384.3,420.4,39.3
99.0,403.2,456.4,393.0,417.6,34.0
99.5,386.7,439.7,371.9,399.4,35.7
100.0,382.9,434.6,362.6,393.4,37.2
100.5,372.7,421.8,361.4,385.3,32.1
101.0,363.3,410.3,343.3,372.3,34.4
101.5,354.2,396.7,334.9,362.0,31.6
102.0,340.7,385.2,323.9,349.9,31.7
102.5,324.1,375.1,313.5,337.6,32.9
103.0,315.1,362.0,297.1,324.7,33.5
103.5,309.1,356.5,287.9,317.8,35.1
104.0,294.9,334.9,278.9,302.9,28.9
104.5,289.6,328.9,268.3,295.6,30.7
105.0,281.6,319.3,250.5,283.8,34.4
105.5,276.5,302.4,240.7,273.2,31.0
106.0,259.6,293.1,228.6,260.4,32.3
106.5,249.0,279.1,212.4,246.8,33.4
107.0,245.8,272.9,203.4,240.7,35.0
107.5,236.5,256.3,189.0,227.3,34.6
108.0,227.2,246.8,178.6,217.5,35.1
108.5,216.4,229.7,168.8,205.0,32.0
109.0,199.5,219.0,159.1,192.5,30.6
109.5,192.1,203.3,148.4,181.3,29.0
110.0,185.2,190.0,141.0,172.0,27.0
110.5,177.4,174.5,132.7,161.5,25.0
111.0,170.2,164.9,122.7,152.6,26.0
111.5,163.7,153.7,115.7,144.4,25.3
112.0,162.3,140.9,106.5,136.5,28.1
112.5,150.6,129.7,96.6,125.6,27.2
113.0,146.2,121.5,88.4,118.7,29.0
113.5,137.9,110.6,81.5,110.0,28.2
114.0,131.1,100.6,73.2,101.6,29.0
114.5,120.0,92.4,68.6,93.7,25.7
115.0,113.6,88.5,64.4,88.8,24.6
115.5,100.9,80.2,,90.5,14.7
116.0,88.6,73.2,,80.9,10.9
116.5,82.5,66.5,,74.5,11.3
117.0,72.9,,,72.9,
117.25,72.8,,,72.8,

File: Memory_Foam_Carpet_Pad_HRRPUA_50.csv
Time after Ignition,Memory_Foam_Carpet_Pad_R1,Memory_Foam_Carpet_Pad_R2,Memory_Foam_Carpet_Pad_R3,Mean,Std. Dev.
0.0,16.3,25.2,14.7,18.7,5.6
0.5,22.3,40.7,31.6,31.5,9.2
1.0,27.4,58.6,46.4,44.1,15.7
1.5,40.3,76.8,64.7,60.6,18.6
2.0,49.7,98.9,86.0,78.2,25.5
2.5,63.1,117.1,106.7,95.6,28.7
3.0,79.4,131.6,129.6,113.6,29.6
3.5,94.1,147.5,142.4,128.0,29.4
4.0,113.8,160.9,163.0,145.9,27.8
4.5,133.3,172.1,177.1,160.8,24.0
5.0,149.8,189.1,190.1,176.3,23.0
5.5,166.7,198.6,201.3,188.8,19.2
6.0,181.1,213.3,212.9,202.4,18.5
6.5,193.9,220.7,227.3,214.0,17.7
7.0,209.4,236.0,234.0,226.5,14.8
7.5,221.1,252.0,240.3,237.8,15.6
8.0,235.1,249.6,251.9,245.5,9.1
8.5,242.6,261.2,262.1,255.3,11.0
9.0,250.9,276.8,273.4,267.0,14.1
9.5,263.4,278.9,278.3,273.6,8.8
10.0,264.9,285.8,284.9,278.5,11.8
10.5,272.7,295.2,300.1,289.3,14.6
11.0,285.5,290.6,308.4,294.8,12.1
11.5,296.9,305.2,313.9,305.3,8.5
12.0,306.7,305.0,316.9,309.5,6.4
12.5,308.9,316.7,328.9,318.2,10.1
13.0,317.3,331.6,329.0,326.0,7.6
13.5,320.8,332.1,337.1,330.0,8.4
14.0,319.2,348.6,343.0,336.9,15.6
14.5,330.3,347.3,340.3,339.3,8.5
15.0,339.9,362.5,360.3,354.3,12.5
15.5,339.2,369.8,349.6,352.9,15.6
16.0,342.3,367.1,368.7,359.3,14.8
16.5,348.2,383.9,370.0,367.4,18.0
17.0,361.0,406.3,372.1,379.8,23.6
17.5,363.1,406.3,376.0,381.8,22.2
18.0,365.7,420.2,390.3,392.1,27.3
18.5,371.0,421.4,395.3,395.9,25.2
19.0,392.6,421.2,393.5,402.4,16.3
19.5,394.7,419.1,403.3,405.7,12.4
20.0,393.8,441.5,416.8,417.3,23.8
20.5,413.7,451.8,430.4,432.0,19.1
21.0,401.6,463.6,449.0,438.1,32.4
21.5,424.5,496.0,443.9,454.8,36.9
22.0,406.8,494.0,472.8,457.9,45.5
22.5,442.8,488.0,480.6,470.5,24.3
23.0,445.2,527.6,521.3,498.0,45.8
23.5,450.2,524.8,533.6,502.9,45.9
24.0,455.3,543.2,542.7,513.7,50.6
24.5,475.1,567.7,577.5,540.1,56.5
25.0,499.4,586.8,560.2,548.8,44.8
25.5,496.2,602.9,614.0,571.0,65.0
26.0,527.5,613.7,599.7,580.3,46.3
26.5,534.4,596.8,636.2,589.1,51.3
27.0,546.2,592.8,629.5,589.5,41.8
27.5,548.1,629.1,643.3,606.8,51.4
28.0,565.9,628.8,666.8,620.5,50.9
28.5,571.2,674.0,683.2,642.8,62.2
29.0,576.2,653.3,671.2,633.6,50.5
29.5,577.7,657.7,652.8,629.4,44.8
30.0,581.2,695.0,694.5,656.9,65.6
30.5,599.7,684.6,692.4,658.9,51.4
31.0,587.3,719.8,692.3,666.5,69.9
31.5,589.8,710.4,727.9,676.0,75.2
32.0,595.5,746.2,735.2,692.3,84.0
32.5,610.1,772.3,743.9,708.8,86.6
33.0,607.0,743.3,750.7,700.3,80.9
33.5,594.3,765.6,757.6,705.8,96.7
34.0,593.6,771.1,779.1,714.6,104.9
34.5,622.4,795.2,724.8,714.1,86.9
35.0,593.7,792.2,766.8,717.6,108.0
35.5,604.8,763.9,815.8,728.2,110.0
36.0,607.2,796.1,824.0,742.5,118.0
36.5,602.5,804.3,870.5,759.1,139.6
37.0,610.0,828.0,839.4,759.1,129.3
37.5,628.3,885.6,855.1,789.7,140.6
38.0,645.8,823.9,858.2,776.0,114.0
38.5,643.6,877.4,910.8,810.6,145.6
39.0,623.4,878.0,934.0,811.8,165.6
39.5,651.6,885.5,883.9,807.0,134.6
40.0,656.3,910.9,948.6,838.6,159.0
40.5,656.5,928.7,952.6,845.9,164.5
41.0,678.2,998.0,1007.1,894.5,187.4
41.5,705.1,957.3,963.4,875.3,147.4
42.0,718.3,953.3,998.3,890.0,150.4
42.5,694.6,986.7,1063.7,915.0,194.7
43.0,733.9,982.4,981.5,899.3,143.2
43.5,727.3,1001.1,1039.1,922.5,170.1
44.0,741.2,1030.5,1065.4,945.7,177.9
44.5,765.5,1045.9,1088.9,966.8,175.6
45.0,728.9,1142.9,1119.1,997.0,232.5
45.5,743.9,1122.9,1130.9,999.2,221.2
46.0,772.7,1067.2,1093.0,977.6,178.0
46.5,804.1,1135.9,1123.0,1021.0,188.0
47.0,790.0,1084.9,1078.8,984.5,168.5
47.5,832.2,1175.2,1119.7,1042.4,184.1
48.0,812.0,1133.5,1124.0,1023.2,182.9
48.5,855.2,1165.8,1198.4,1073.1,189.4
49.0,854.9,1223.8,1205.5,1094.7,207.9
49.5,856.2,1044.4,1126.4,1009.0,138.5
50.0,892.3,1137.8,1164.4,1064.8,150.0
50.5,875.7,1157.3,1103.9,1045.6,149.5
51.0,936.5,1180.8,1146.6,1088.0,132.3
51.5,916.7,1155.4,1177.4,1083.1,144.6
52.0,933.6,1159.4,1235.8,1109.6,157.1
52.5,983.0,1151.0,1236.9,1123.6,129.2
53.0,1044.3,1172.3,1211.2,1142.6,87.3
53.5,886.9,1097.6,1216.0,1066.8,166.7
54.0,982.0,1154.5,1277.5,1138.0,148.5
54.5,999.2,1207.3,1219.0,1141.8,123.7
55.0,1006.6,1093.8,1265.1,1121.8,131.6
55.5,1015.7,1158.8,1258.9,1144.5,122.2
56.0,999.2,1108.0,1160.6,1089.3,82.3
56.5,1071.6,1142.3,1151.8,1121.9,43.8
57.0,1025.7,1117.5,1129.8,1091.0,56.9
57.5,1004.8,1070.0,1159.8,1078.2,77.8
58.0,1056.7,1140.3,1137.4,1111.5,47.4
58.5,1080.3,1039.1,1085.7,1068.4,25.5
59.0,1056.6,1062.3,1028.0,1049.0,18.4
59.5,974.4,1036.0,1052.0,1020.8,41.0
60.0,970.1,1051.5,992.8,1004.8,42.0
60.5,941.2,998.7,951.8,963.9,30.6
61.0,996.2,986.4,917.5,966.7,42.9
61.5,978.0,953.8,878.7,936.8,51.8
62.0,879.8,928.4,847.8,885.3,40.6
62.5,926.7,887.2,797.3,870.4,66.3
63.0,908.5,861.1,741.3,837.0,86.2
63.5,877.7,784.7,723.3,795.2,77.8
64.0,879.1,742.5,660.2,760.6,110.5
64.5,864.6,705.8,615.0,728.5,126.4
65.0,822.2,667.1,553.9,681.1,134.7
65.5,813.9,622.4,511.2,649.1,153.1
66.0,809.7,594.8,455.0,619.9,178.7
66.5,811.9,548.5,414.1,591.5,202.3
67.0,796.2,508.3,376.1,560.2,214.8
67.5,751.9,476.9,334.8,521.2,212.0
68.0,743.5,439.4,303.4,495.4,225.4
68.5,720.8,431.6,278.2,476.9,224.8
69.0,691.5,384.9,251.9,442.8,225.5
69.5,666.6,350.1,229.1,415.3,225.9
70.0,653.6,311.8,,482.7,241.7
70.5,637.1,282.7,,459.9,250.6
71.0,606.6,250.6,,428.6,251.7
71.5,593.6,228.5,,411.0,258.2
72.0,558.7,205.1,,381.9,250.1
72.5,531.8,181.9,,356.9,247.4
73.0,515.5,162.9,,339.2,249.3
73.5,481.4,144.9,,313.1,237.9
74.0,466.5,,,466.5,
74.5,442.1,,,442.1,
75.0,426.9,,,426.9,
75.5,405.0,,,405.0,
76.0,391.9,,,391.9,
76.5,381.6,,,381.6,
77.0,359.8,,,359.8,
77.5,350.6,,,350.6,
78.0,331.5,,,331.5,
78.5,317.4,,,317.4,
79.0,289.1,,,289.1,
79.5,280.8,,,280.8,
80.0,260.9,,,260.9,
80.5,247.6,,,247.6,
81.0,225.6,,,225.6,
81.5,211.1,,,211.1,
82.0,200.7,,,200.7,
82.5,185.3,,,185.3,
83.0,174.9,,,174.9,
83.5,163.2,,,163.2,
84.0,155.3,,,155.3,
84.5,142.0,,,142.0,
85.0,136.7,,,136.7,
85.5,127.7,,,127.7,
86.0,117.9,,,117.9,
86.5,111.1,,,111.1,
87.0,104.1,,,104.1,
87.5,98.4,,,98.4,
88.0,92.3,,,92.3,
88.5,86.4,,,86.4,
89.0,81.1,,,81.1,
89.5,77.3,,,77.3,
90.0,74.2,,,74.2,
90.5,70.8,,,70.8,
91.0,68.7,,,68.7,
91.5,65.7,,,65.7,
92.0,63.7,,,63.7,
92.5,62.4,,,62.4,
93.0,60.5,,,60.5,
93.5,59.6,,,59.6,
94.0,57.9,,,57.9,
94.5,55.7,,,55.7,
95.0,54.6,,,54.6,
95.5,52.3,,,52.3,
96.0,50.0,,,50.0,
96.5,49.8,,,49.8,
97.0,48.0,,,48.0,
97.5,46.3,,,46.3,
98.0,45.0,,,45.0,
98.5,43.8,,,43.8,
99.0,42.6,,,42.6,
99.5,41.7,,,41.7,
100.0,40.2,,,40.2,
100.5,39.0,,,39.0,
101.0,37.9,,,37.9,
101.5,37.4,,,37.4,
102.0,36.5,,,36.5,
102.5,35.1,,,35.1,
103.0,35.0,,,35.0,
103.5,33.9,,,33.9,
104.0,33.7,,,33.7,
104.5,33.3,,,33.3,
105.0,33.2,,,33.2,
105.5,32.8,,,32.8,
106.0,32.0,,,32.0,

File: Memory_Foam_Carpet_Pad_HRRPUA_75.csv
Time after Ignition,Memory_Foam_Carpet_Pad_R1,Memory_Foam_Carpet_Pad_R2,Memory_Foam_Carpet_Pad_R3,Mean,Std. Dev.
0.0,26.0,34.6,30.3,30.3,4.3
0.25,37.6,44.8,39.0,40.4,3.8
0.5,47.9,52.8,47.4,49.4,3.0
0.75,56.7,61.7,54.1,57.5,3.9
1.0,64.7,69.4,60.5,64.9,4.4
1.25,72.8,79.9,73.9,75.5,3.8
1.5,83.9,90.1,86.6,86.9,3.1
1.75,93.7,100.2,99.2,97.7,3.5
2.0,105.0,109.2,109.8,108.0,2.6
2.25,114.4,122.6,123.4,120.2,5.0
2.5,122.1,135.7,132.0,129.9,7.1
2.75,135.4,146.8,144.7,142.3,6.0
3.0,144.4,157.2,157.9,153.2,7.6
3.25,154.3,167.7,169.6,163.9,8.4
3.5,163.4,176.4,185.6,175.1,11.1
3.75,171.0,179.0,193.9,181.3,11.6
4.0,182.1,186.0,205.3,191.1,12.4
4.25,197.8,196.7,213.2,202.6,9.2
4.5,203.3,204.7,218.8,208.9,8.6
4.75,208.6,214.1,228.2,217.0,10.1
5.0,232.2,217.5,239.1,229.6,11.1
5.25,232.5,222.8,253.9,236.4,15.9
5.5,244.0,234.7,255.3,244.7,10.3
5.75,254.9,243.9,266.6,255.1,11.4
6.0,272.2,249.5,272.8,264.8,13.3
6.25,279.5,251.4,287.3,272.7,18.9
6.5,289.7,265.1,288.2,281.0,13.8
6.75,297.3,272.0,304.5,291.3,17.0
7.0,312.9,280.3,309.3,300.8,17.9
7.25,315.0,291.4,313.7,306.7,13.3
7.5,328.5,297.1,322.9,316.2,16.8
7.75,336.3,304.4,333.4,324.7,17.7
8.0,337.4,316.8,333.4,329.2,10.9
8.25,344.4,318.5,346.6,336.5,15.7
8.5,370.3,336.0,362.0,356.1,17.9
8.75,369.6,344.7,360.1,358.1,12.6
9.0,369.7,343.2,368.6,360.5,15.0
9.25,380.2,361.8,377.7,373.2,10.0
9.5,398.2,366.3,389.5,384.6,16.5
9.75,399.9,371.9,392.6,388.2,14.5
10.0,399.4,367.5,400.3,389.1,18.7
10.25,420.6,391.8,409.3,407.3,14.5
10.5,419.8,411.2,425.9,419.0,7.4
10.75,430.3,386.1,413.0,409.8,22.2
11.0,435.0,406.6,422.7,421.4,14.2
11.25,436.3,408.9,431.0,425.4,14.5
11.5,471.5,432.0,418.5,440.7,27.5
11.75,453.3,426.2,424.1,434.6,16.3
12.0,488.3,432.6,438.8,453.2,30.6
12.25,479.6,443.9,441.7,455.1,21.3
12.5,468.9,441.8,444.9,451.9,14.8
12.75,480.4,443.1,433.6,452.4,24.7
13.0,496.6,451.9,455.3,467.9,24.9
13.25,510.1,465.9,442.6,472.9,34.2
13.5,522.4,474.0,452.4,482.9,35.8
13.75,519.9,460.3,461.5,480.6,34.1
14.0,531.6,469.1,474.2,491.6,34.7
14.25,542.8,493.9,471.9,502.9,36.3
14.5,560.9,502.9,494.9,519.5,36.0
14.75,557.9,515.0,492.0,521.6,33.4
15.0,555.3,502.9,498.4,518.9,31.6
15.25,566.6,540.9,489.8,532.4,39.1
15.5,566.8,534.5,511.7,537.7,27.7
15.75,574.8,574.9,528.6,559.5,26.7
16.0,614.2,569.8,535.5,573.2,39.4
16.25,582.1,576.5,547.6,568.8,18.6
16.5,610.4,574.3,576.1,586.9,20.3
16.75,603.9,623.2,589.7,605.6,16.8
17.0,618.3,630.0,631.0,626.4,7.0
17.25,626.2,632.2,625.3,627.9,3.8
17.5,629.8,625.5,644.7,633.4,10.1
17.75,696.3,644.2,680.6,673.7,26.7
18.0,695.5,707.4,672.7,691.9,17.6
18.25,661.3,694.8,711.9,689.3,25.8
18.5,703.4,710.6,731.8,715.2,14.8
18.75,737.3,677.1,763.4,725.9,44.2
19.0,677.0,695.4,759.3,710.6,43.1
19.25,734.5,731.5,745.8,737.3,7.5
19.5,729.6,741.6,788.9,753.4,31.4
19.75,794.3,753.1,763.8,770.4,21.4
20.0,777.6,771.9,776.8,775.4,3.1
20.25,785.0,775.3,776.6,779.0,5.2
20.5,781.3,777.5,799.4,786.1,11.7
20.75,785.4,766.0,847.4,799.6,42.5
21.0,814.5,796.0,819.1,809.9,12.2
21.25,811.4,789.4,807.7,802.8,11.8
21.5,820.9,812.8,814.5,816.1,4.3
21.75,844.9,838.2,823.5,835.5,11.0
22.0,857.7,866.8,788.2,837.6,43.0
22.25,825.9,850.4,871.3,849.2,22.7
22.5,927.5,823.1,821.3,857.3,60.8
22.75,855.2,869.8,849.3,858.1,10.5
23.0,878.7,882.5,896.4,885.9,9.3
23.25,879.0,880.5,862.1,873.9,10.2
23.5,894.3,868.3,942.2,901.6,37.5
23.75,904.2,881.8,933.2,906.4,25.8
24.0,910.0,906.6,866.7,894.4,24.0
24.25,908.5,949.8,879.0,912.4,35.6
24.5,1012.1,885.4,959.5,952.3,63.6
24.75,898.3,950.0,955.8,934.7,31.7
25.0,946.0,951.5,972.2,956.6,13.8
25.25,964.6,945.6,993.8,968.0,24.3
25.5,961.9,932.2,960.1,951.4,16.6
25.75,1006.8,925.6,995.6,976.0,44.0
26.0,943.2,994.2,1073.6,1003.6,65.8
26.25,930.1,942.6,1051.4,974.7,66.8
26.5,1013.7,939.4,1003.3,985.5,40.2
26.75,955.3,968.0,1065.3,996.2,60.2
27.0,985.3,1089.6,1028.8,1034.6,52.4
27.25,924.7,1034.5,1156.6,1038.6,116.0
27.5,970.9,1033.7,956.9,987.2,40.9
27.75,1052.9,1090.1,1212.8,1118.6,83.7
28.0,1005.3,1033.2,1009.1,1015.8,15.1
28.25,1085.1,1037.8,1200.1,1107.7,83.5
28.5,1044.6,1117.4,1140.1,1100.7,49.9
28.75,1070.9,1038.7,1223.6,1111.0,98.8
29.0,1145.4,1184.5,1158.9,1162.9,19.9
29.25,1030.6,1035.3,1168.6,1078.2,78.3
29.5,1160.0,1165.4,1220.5,1182.0,33.4
29.75,1131.5,1050.0,1296.9,1159.5,125.8
30.0,1108.7,1149.7,1256.7,1171.7,76.4
30.25,1119.1,1166.8,1263.2,1183.0,73.4
30.5,1184.4,1067.8,1359.9,1204.0,147.0
30.75,1189.8,1162.4,1478.2,1276.8,174.9
31.0,1230.7,1150.9,1338.8,1240.1,94.3
31.25,1145.0,1100.4,1455.8,1233.8,193.6
31.5,1197.1,1219.9,1439.9,1285.6,134.1
31.75,1213.1,1279.2,1386.8,1293.0,87.7
32.0,1344.2,1299.7,1317.9,1320.6,22.4
32.25,1228.2,1234.9,1613.8,1359.0,220.7
32.5,1316.7,1243.6,1578.1,1379.5,175.8
32.75,1403.5,1349.0,1467.6,1406.7,59.4
33.0,1247.2,1313.7,1636.3,1399.1,208.1
33.25,1278.4,1358.6,1647.6,1428.2,194.2
33.5,1291.9,1285.0,1508.9,1361.9,127.3
33.75,1417.7,1243.1,1734.8,1465.2,249.3
34.0,1617.2,1320.4,1629.0,1522.2,174.9
34.25,1327.5,1391.7,1596.2,1438.5,140.3
34.5,1423.2,1255.5,1390.6,1356.5,88.9
34.75,1396.5,1278.4,1655.8,1443.6,193.0
35.0,1462.0,1369.1,1625.4,1485.5,129.8
35.25,1585.5,1527.7,1779.5,1630.9,131.9
35.5,1362.9,1343.2,1676.4,1460.8,186.9
35.75,1521.7,1474.0,1556.9,1517.5,41.6
36.0,1604.0,1458.0,1634.9,1565.6,94.5
36.25,1380.3,1584.3,1803.9,1589.5,211.8
36.5,1720.7,1522.3,1660.4,1634.5,101.7
36.75,1427.2,1358.5,1466.3,1417.3,54.5
37.0,1468.3,1633.7,1704.0,1602.0,121.0
37.25,1649.5,1617.9,1946.6,1738.0,181.4
37.5,1450.3,1482.3,1649.0,1527.2,106.7
37.75,1720.3,1496.3,1772.7,1663.1,146.8
38.0,1598.6,1479.5,1597.3,1558.5,68.4
38.25,1682.3,1588.1,2010.6,1760.3,221.8
38.5,1716.9,1617.1,1809.2,1714.4,96.1
38.75,1416.0,1669.1,1753.3,1612.8,175.6
39.0,1793.7,1671.3,1825.0,1763.3,81.2
39.25,1583.8,1584.5,1718.1,1628.8,77.3
39.5,1696.9,1636.8,1954.3,1762.7,168.6
39.75,1703.1,1691.1,1640.5,1678.2,33.3
40.0,1617.1,1517.7,1825.4,1653.4,157.0
40.25,1655.4,1742.4,1759.9,1719.3,56.0
40.5,1680.4,1581.3,1698.0,1653.2,62.9
40.75,1757.9,1574.3,1774.7,1702.3,111.1
41.0,1592.3,1662.0,1833.8,1696.0,124.3
41.25,1643.4,1571.3,1813.4,1676.0,124.3
41.5,1564.1,1708.3,1835.3,1702.6,135.7
41.75,1736.1,1602.7,1774.7,1704.5,90.3
42.0,1798.4,1777.0,1772.1,1782.5,14.0
42.25,1683.0,1635.3,1838.3,1718.9,106.2
42.5,1685.5,1749.9,1736.1,1723.8,33.9
42.75,1764.3,1776.8,1762.6,1767.9,7.8
43.0,1609.0,1658.6,1811.3,1693.0,105.4
43.25,1685.1,1605.5,1755.2,1682.0,74.9
43.5,1719.1,1627.2,1671.3,1672.5,46.0
43.75,1804.5,1676.5,1621.2,1700.8,94.0
44.0,1809.7,1693.0,1573.3,1692.0,118.2
44.25,1793.0,1657.3,1568.8,1673.0,113.0
44.5,1727.9,1672.1,1517.4,1639.2,109.0
44.75,1795.9,1627.3,1470.0,1631.1,163.0
45.0,1718.3,1605.8,1402.1,1575.4,160.3
45.25,1731.4,1565.6,1353.1,1550.0,189.6
45.5,1748.3,1582.2,1297.7,1542.7,227.9
45.75,1700.5,1576.8,1245.5,1507.6,235.2
46.0,1691.5,1540.5,1174.9,1469.0,265.6
46.25,1642.3,1545.5,1118.6,1435.5,278.6
46.5,1619.0,1450.6,1074.7,1381.4,278.7
46.75,1594.0,1470.1,1040.1,1368.1,290.7
47.0,1539.3,1400.7,981.4,1307.2,290.5
47.25,1543.6,1377.2,925.9,1282.2,319.6
47.5,1478.1,1306.6,884.2,1223.0,305.7
47.75,1425.4,1296.8,,1361.1,90.9
48.0,1341.1,1230.9,,1286.0,78.0
48.25,1299.5,1196.2,,1247.9,73.1
48.5,1242.6,1148.6,,1195.6,66.4
48.75,1186.0,1118.4,,1152.2,47.8
49.0,1115.0,1048.1,,1081.5,47.3
49.25,1071.3,999.6,,1035.4,50.7
49.5,1005.3,951.6,,978.4,38.0
49.75,950.4,898.7,,924.5,36.5
50.0,907.8,852.7,,880.2,39.0
50.25,849.3,824.2,,836.8,17.8
50.5,806.1,777.6,,791.9,20.2
50.75,765.1,737.6,,751.3,19.5
51.0,724.2,707.0,,715.6,12.2
51.25,680.2,672.3,,676.2,5.6
51.5,634.4,625.9,,630.1,6.0