Folder: fsri_materials_database/01_Data/Plywood/Cone (part 2)

File: Plywood_Cone_HF35Scan_190311_R3.csv
Names,Time,Stack TC,Smoke TC,Exh Press,Smoke Comp,Smoke Meas,CO Meter,CO2 Meter,O2 Meter,Sample Mass,Ext Coeff,Start Test,Flame Verif
Chan Gain,,500,500,1,1,1,1,1,1,1,1,1,1
Offset,,0,0,0.120824,0,0,0,0,0,0,0,0,0
Gain,,1,1,25.011,13.3584,14.8895,1,1,1,1.00093,1.03656,1,1
Units,sec,C,C,Pa,%,%,%,%,%,g,/m,,
Baseline,,36.9342,38.0627,174.382,99.7043,96.715,0.007865127,0.0582086,20.9653,-0.188924,0.276834,,
45,11,36.7917,40.2787,173.259,99.5811,96.628,0.007788126,0.0603198,20.9607,1024.57,0.273729,0,0
90,22.25,38.6721,35.8189,177.71,99.5021,96.8156,0.008111561,0.0597903,20.9607,1024.49,0.248863,0,0
135,33.5,35.5706,39.1536,173.476,99.3936,96.0759,0.007769483,0.0600992,20.9602,1024.39,0.30869,0,0
180,44.75,37.442,38.8053,173.503,99.3003,95.293,0.007750052,0.0600869,20.961,1024.31,0.374544,0,0
225,56,39.4431,36.5045,174.372,99.2416,94.6882,0.00797833,0.062847,20.9605,1024.21,0.427059,0,0
270,67.25,35.2919,39.7294,172.707,99.1922,94.4087,0.008599998,0.0612733,20.9564,1024.11,0.449413,0,0
315,78.5,36.8588,39.9777,167.604,99.136,96.2972,0.008924949,0.0604529,20.9586,1023.86,0.264171,0,1
360,89.75,39.8137,45.2403,168.216,99.1209,96.4289,0.009303637,0.174605,20.9362,1023.15,0.250354,0,0
405,101,47.7901,47.8218,163.316,99.0805,97.3614,0.0110736,0.26909,20.839,1022.19,0.159154,0,0
450,112.25,48.9867,51.626,163.763,99.0614,96.398,0.0108023,0.271094,20.7745,1021.24,0.247806,0,0
495,123.5,51.346,54.2438,157.169,99.0434,98.1215,0.0118854,0.269794,20.7523,1020.23,0.0850293,0,0
540,134.75,51.6474,57.1759,159.47,99.0703,96.8052,0.0108863,0.279032,20.734,1019.19,0.210309,0,0
585,146,51.1842,57.7125,164.714,99.1229,96.8065,0.0115599,0.254212,20.7369,1018.28,0.215006,0,0
630,157.25,51.6456,55.467,166.998,99.1466,96.6448,0.0107321,0.225018,20.7551,1017.44,0.232381,0,0
675,168.5,48.712,55.9485,161.598,99.2196,96.3944,0.0111715,0.198687,20.7814,1016.72,0.262657,0,0
720,179.75,50.0242,53.4939,162.316,99.2607,96.6743,0.0113052,0.179092,20.8047,1016.11,0.240064,0,0
765,191,50.0886,51.5606,168.729,99.2929,96.3158,0.0113644,0.164524,20.8255,1015.51,0.276797,0,0
810,202.25,46.4911,52.692,165.416,99.3427,97.5795,0.0112671,0.157284,20.8403,1014.95,0.162831,0,0
855,213.5,48.7864,49.4036,170.592,99.3557,96.1381,0.0113646,0.152242,20.8498,1014.42,0.299331,0,0
900,224.75,48.5106,48.9952,167.774,99.3496,95.9018,0.0112455,0.147534,20.8596,1013.89,0.321147,0,0
945,236,47.3156,48.8276,171.736,99.3349,97.0265,0.011302,0.144767,20.8654,1013.37,0.213797,0,0
990,247.25,45.9807,50.9485,168.358,99.3174,96.9015,0.01178116,0.144761,20.8678,1012.81,0.22391,0,0
1035,258.5,45.6572,49.5606,168.562,99.352,96.8334,0.0118583,0.145915,20.8672,1012.27,0.233479,0,0
1080,269.75,48.3785,47.9193,163.397,99.412,96.8293,0.0118312,0.147764,20.8681,1011.71,0.239346,0,0
1125,281,46.8615,49.464,167.767,99.4719,97.8821,0.01279955,0.148453,20.8666,1011.11,0.146497,0,0
1170,292.25,45.6171,50.4404,161.991,99.5816,97.225,0.012632,0.147918,20.8666,1010.6,0.217755,0,0
1215,303.5,47.0087,49.039,166.198,99.6549,96.488,0.0126453,0.148922,20.864,1010.03,0.293643,0,0
1260,314.75,46.2937,50.1467,166.679,99.7051,96.8888,0.0123519,0.151068,20.8603,1009.44,0.260528,0,0
1305,326,46.1108,50.569,169.938,99.6908,97.0083,0.0123059,0.1524,20.8618,1008.88,0.248019,0,0
1350,337.25,46.2181,51.2136,167.569,99.6447,96.5916,0.0128623,0.153204,20.8616,1008.3,0.282956,0,0
1395,348.5,46.5727,51.2579,164.209,99.5816,96.4312,0.01225865,0.156255,20.8616,1007.77,0.2923,0,0
1440,359.75,48.7727,49.4608,171.428,99.5326,96.8765,0.0120065,0.157039,20.8616,1007.15,0.24594,0,0
1485,371,49.2628,49.5314,166.061,99.4474,97.0705,0.0116482,0.160398,20.8575,1006.57,0.219961,0,0
1530,382.25,48.6817,49.8949,158.386,99.3451,97.1446,0.0114914,0.164526,20.8555,1005.93,0.203665,0,0
1575,393.5,49.7977,49.7132,164.583,99.2163,96.3599,0.0109865,0.16732,20.8495,1005.37,0.265615,0,0
1620,404.75,49.2128,50.1827,164.799,99.0357,96.3576,0.0115395,0.168398,20.8475,1004.72,0.249264,0,0
1665,416,48.1615,52.199,164.923,98.8086,95.9205,0.0113516,0.17273,20.8456,1004.11,0.269735,0,0
1710,427.25,49.362,51.1756,168.626,98.5962,97.2673,0.0112633,0.177792,20.8413,1003.43,0.123388,0,0
1755,438.5,48.6042,53.5932,165.108,98.3887,95.4147,0.0116662,0.184842,20.8348,1002.76,0.27908,0,0
1800,449.75,49.2322,53.984,168.365,98.1649,95.4238,0.0112474,0.1921,20.8305,1002.06,0.257507,0,0
1845,461,51.6019,53.1816,167.024,97.9697,95.1626,0.0101075,0.200226,20.8209,1001.29,0.264332,0,0
1890,472.25,50.6117,55.0708,164.241,97.7634,95.7033,0.0103292,0.210376,20.8142,1000.54,0.193648,0,0
1935,483.5,52.8288,54.3542,158.04,97.6663,95.6801,0.0100155,0.221986,20.8058,999.704,0.186822,0,0
1980,494.75,53.3241,55.9755,162.881,97.6109,94.7159,0.0108674,0.235608,20.791,998.853,0.273755,0,0
2025,506,52.7281,58.2052,162.9263,97.5942,95.4456,0.0112635,0.245165,20.777,997.922,0.20241,0,0
2070,517.25,53.8734,58.8439,166.117,97.661,95.1985,0.0113498,0.251639,20.7657,997.062,0.232216,0,0
2115,528.5,55.4389,58.0462,159.093,97.8127,96.0191,0.0118794,0.253956,20.7597,996.091,0.168281,0,0
2160,539.75,55.7393,58.4789,158.879,98.0475,95.1607,0.0126604,0.259688,20.7515,995.12,0.27173,0,0
2205,551,54.9891,60.4937,159.544,98.3247,95.3652,0.0132775,0.26861,20.7478,994.099,0.277884,0,0
2250,562.25,56.73,60.7234,162.893,98.5836,94.8022,0.0135508,0.28061,20.7366,993.038,0.355628,0,0
2295,573.5,58.144,61.391,156.818,98.8261,95.3529,0.0128873,0.294274,20.7247,991.977,0.325306,0,0
2340,584.75,58.4352,63.0007,157.498,98.9937,94.4224,0.0126837,0.307487,20.7096,990.826,0.429882,0,0
2385,596,59.0022,64.9318,155.076,99.1331,95.2462,0.0128254,0.320811,20.6965,989.645,0.363694,0,0
2430,607.25,60.5805,65.1166,152.852,99.1735,95.6092,0.0125806,0.334855,20.6807,988.414,0.332802,0,0
2475,618.5,61.1091,67.2581,156.731,99.1653,96.478,0.0124381,0.344161,20.6652,987.172,0.249803,0,0
2520,629.75,62.4552,66.9426,160.433,99.1254,93.8789,0.0124552,0.346449,20.6553,985.941,0.494452,0,0
2565,641,62.5273,67.7894,157.658,99.0964,95.4306,0.0126066,0.346957,20.6497,984.71,0.342733,0,0
2610,652.25,62.7535,69.0826,158.336,99.061,95.1662,0.0119417,0.345662,20.6451,983.519,0.364711,0,0
2655,663.5,63.3175,68.2172,156.372,99.0161,93.2773,0.0127846,0.341954,20.6442,982.338,0.542882,0,0
2700,674.75,63.3499,68.865,164.219,98.948,94.6264,0.0125989,0.336303,20.647,981.237,0.406063,0,0
2745,686,63.1627,68.5585,162.507,98.8926,95.1412,0.0120044,0.330657,20.6518,980.136,0.351632,0,0
2790,697.25,63.3455,67.4185,161.415,98.8571,95.592,0.0110436,0.312269,20.6599,979.175,0.305393,0,0
2835,708.5,62.4252,66.7688,160.486,98.9061,96.0273,0.0105204,0.288951,20.6757,978.284,0.26858,0,0
2880,719.75,61.7597,64.9503,155.968,99.1686,96.7556,0.0107374,0.26104,20.7012,977.523,0.223974,0,0
2925,731,60.2412,64.8384,163.155,99.341,97.5726,0.0101857,0.2434147,20.7241,976.813,0.163316,0,0
2970,742.25,59.6815,62.7454,160.248,99.4544,95.6169,0.009872301,0.228761,20.7428,976.182,0.357783,0,0
3015,753.5,58.4566,62.6542,165.36,99.5445,97.5458,0.0102133,0.213803,20.7609,975.572,0.184415,0,0
3060,764.75,57.684,60.4921,167.652,99.6456,97.7817,0.0109518,0.199896,20.7793,975.021,0.17169,0,0
3105,776,57.407,59.1966,162.787,99.6627,96.8047,0.0112632,0.188349,20.7944,974.561,0.264553,0,0
3150,787.25,55.8818,58.0377,162.916,99.5832,97.6294,0.01177965,0.183041,20.8063,974.11,0.180162,0,0
3195,798.5,54.8073,57.5705,165.46,99.3887,97.5417,0.0124602,0.170346,20.8192,973.7,0.17056,0,0
3240,809.75,53.927,56.3612,165.848,99.0915,97.0174,0.0133306,0.159521,20.8281,973.34,0.192344,0,0
3285,821,53.2683,55.182,166.797,99.0373,97.8071,0.0138855,0.14925,20.8391,972.989,0.113653,0,0
3330,832.25,52.3108,54.1751,168.681,99.1674,97.1905,0.0152435,0.14285,20.8492,972.699,0.183088,0,0
3375,843.5,52.0199,52.9708,169.942,99.3471,97.1941,0.0156789,0.137138,20.858,972.439,0.199217,0,0
3420,854.75,51.4564,52.3777,167.402,99.5008,96.9556,0.0163772,0.131852,20.8662,972.169,0.235617,0,0
3465,866,50.8047,51.6724,164.083,99.5966,97.2655,0.0171407,0.127742,20.8711,971.918,0.215352,0,0
3510,877.25,50.0736,50.9268,167.371,99.6659,96.7811,0.0178319,0.123844,20.8753,971.698,0.26707,0,0
3555,888.5,49.3715,50.9277,168.63,99.6757,96.6943,0.0195899,0.117831,20.8818,971.478,0.276121,0,0
3600,899.75,48.8939,50.312,167.555,99.6594,97.0596,0.0205357,0.114709,20.8856,971.278,0.240344,0,0
3645,911,48.7105,49.4229,173.02,99.5934,96.5007,0.0200682,0.112492,20.8892,971.117,0.286826,0,0
3690,922.25,48.3588,49.2738,170.462,99.4682,96.7856,0.0206217,0.110656,20.8919,970.927,0.248588,0,0
3735,933.5,48.3395,48.6234,168.856,99.2823,97.5013,0.0214697,0.108515,20.8954,970.767,0.164593,0,0
3780,944.75,48.0741,48.2267,167.94,99.0039,96.3744,0.0215599,0.106596,20.8998,970.587,0.244758,0,0
3825,956,47.6046,48.1667,167.24,98.7776,96.1318,0.0220217,0.105139,20.9017,970.447,0.246877,0,0
3870,967.25,47.3845,47.8621,171.509,98.553,95.5711,0.0222653,0.103008,20.9009,970.287,0.279366,0,0
3915,978.5,46.8198,47.4338,171.478,98.3769,95.1703,0.0215503,0.110634,20.9055,970.137,0.301314,0,0
3960,989.75,46.3903,47.3659,166.024,98.169,95.8823,0.02199682,0.107551,20.9056,970.016,0.214303,0,0
4005,1001,46.3731,47.1703,169.084,97.9505,95.5765,0.021934,0.109896,20.9001,969.886,0.223087,0,0
4050,1012.25,46.1837,46.9811,170.511,97.7732,94.9036,0.0217227,0.103566,20.9021,969.746,0.270858,0,0
4095,1023.5,44.4012,45.0044,170.327,97.6598,95.602,0.0173897,0.0847467,20.907,0.560518,0.193645,0,0
4140,1034.75,43.7944,44.3267,173.661,97.5869,94.9145,0.0118929,0.0749438,20.9201,-0.300278,0.252471,0,0
4185,1046,43.1217,43.3705,169.384,97.6121,95.0771,0.008438403,0.0622153,20.9404,-0.290268,0.239255,0,0
4230,1057.25,42.6056,42.8804,173.198,97.692,95.3584,0.007484585,0.0589368,20.9526,-0.310287,0.219836,0,0
4275,1068.5,42.1087,42.3062,174.532,97.8396,95.9936,0.007376004,0.0581706,20.9571,-0.310287,0.173191,0,0
4320,1079.75,41.6634,42.0356,171.457,98.0451,95.2584,0.007583691,0.0584776,20.9598,-0.310287,0.262174,0,0
4365,1091,41.2758,41.7803,175.723,98.2884,95.8291,0.007791811,0.0588456,20.9616,-0.330305,0.230403,0,0
4410,1102.25,41.0297,41.8231,168.298,98.5542,95.3961,0.007878453,0.0591853,20.9621,-0.330305,0.296138,0,0
4455,1113.5,41.1249,41.5414,169.812,98.7891,96,0.00813889,0.0582687,20.9632,-0.330305,0.260399,0,0
4500,1124.75,40.8866,41.332,174.872,98.9917,96.498,,,,-0.330305,0.231981,0,0
4529,1132,41.0403,41.2121,170.743,99.0512,96.3558,,,,-0.330305,0.250858,0,0

File: Plywood_HRRPUA_35.csv
Time after Ignition,Plywood_R1,Plywood_R2,Plywood_R3,Mean,Std. Dev.
0.0,5.0,2.1,3.5,3.6,1.5
2.75,4.8,2.1,3.5,3.5,1.3
5.5,4.8,2.8,3.4,3.7,1.0
8.25,5.8,3.8,3.3,4.3,1.3
11.0,9.9,7.3,6.0,7.7,2.0
13.75,17.7,14.0,12.9,14.9,2.5
16.5,30.0,26.0,24.5,26.8,2.8
19.25,43.5,38.6,36.6,39.6,3.6
22.0,54.0,52.8,49.1,52.0,2.6
24.75,67.1,61.6,60.1,62.9,3.7
27.5,76.5,71.4,71.6,73.2,2.9
30.25,86.0,78.7,81.3,82.0,3.7
33.0,94.4,86.8,86.7,89.3,4.4
35.75,104.9,89.7,93.3,95.9,8.0
38.5,109.3,91.3,98.0,99.6,9.1
41.25,112.4,94.5,100.3,102.4,9.1
44.0,115.6,97.1,103.3,105.4,9.4
46.75,116.3,99.8,103.5,106.5,8.7
49.5,118.3,104.4,105.3,109.3,7.7
52.25,116.7,105.7,109.8,110.7,5.5
55.0,115.3,108.0,112.1,111.8,3.6
57.75,115.0,116.4,112.8,114.7,1.8
60.5,112.7,113.7,114.4,113.6,0.8
63.25,112.4,117.8,116.8,115.7,2.9
66.0,109.9,120.2,116.5,115.5,5.3
68.75,110.2,122.6,116.8,116.6,6.2
71.5,105.9,122.0,114.1,114.0,8.1
74.25,101.8,120.8,110.6,111.1,9.5
77.0,100.7,122.3,110.1,111.0,10.8
79.75,98.2,118.8,109.1,108.7,10.3
82.5,95.6,118.9,104.7,106.4,11.7
85.25,93.5,116.1,102.6,104.1,11.4
88.0,89.5,113.2,98.0,100.2,12.0
90.75,88.3,111.2,94.2,97.9,11.9
93.5,87.5,109.6,91.8,96.3,11.7
96.25,84.7,107.7,89.9,94.1,12.1
99.0,82.1,103.6,86.2,90.6,11.4
101.75,80.4,101.0,82.7,88.0,11.3
104.5,78.2,99.1,81.0,86.1,11.4
107.25,76.1,96.8,77.2,83.4,11.6
110.0,75.8,94.5,74.9,81.7,11.0
112.75,74.4,92.1,71.9,79.5,11.0
115.5,73.3,89.6,70.7,77.8,10.2
118.25,71.3,89.0,68.6,76.3,11.1
121.0,70.4,87.7,66.4,74.9,11.3
123.75,68.8,84.3,63.9,72.4,10.6
126.5,66.8,85.2,62.5,71.5,12.1
129.25,66.6,84.2,62.5,71.1,11.5
132.0,65.7,83.6,62.2,70.5,11.5
134.75,66.2,82.2,59.6,69.4,11.6
137.5,65.2,83.3,58.4,69.0,12.9
140.25,64.7,81.5,57.0,67.7,12.5
143.0,63.1,80.5,56.9,66.8,12.2
145.75,62.8,81.5,55.0,66.5,13.6
148.5,62.0,79.4,53.6,65.0,13.1
151.25,62.1,79.5,52.9,64.8,13.5
154.0,60.6,80.0,52.3,64.3,14.2
156.75,60.4,78.3,51.7,63.5,13.6
159.5,60.0,77.9,51.4,63.1,13.5
162.25,60.2,79.9,51.1,63.7,14.7
165.0,58.8,79.2,50.2,62.8,14.9
167.75,59.0,78.1,49.0,62.0,14.8
170.5,58.8,77.8,49.4,62.0,14.4
173.25,58.1,77.6,50.9,62.2,13.8
176.0,58.9,77.4,49.5,61.9,14.2
178.75,58.3,78.2,50.1,62.2,14.5
181.5,57.6,77.3,50.1,61.7,14.1
184.25,58.5,78.1,49.8,62.2,14.5
187.0,59.1,78.5,49.6,62.4,14.7
189.75,60.3,77.0,49.8,62.4,13.7
192.5,60.7,78.2,49.4,62.8,14.6
195.25,60.5,77.5,49.6,62.5,14.0
198.0,61.1,77.7,49.9,62.9,14.0
200.75,61.7,75.3,49.9,62.3,12.7
203.5,62.6,77.1,49.7,63.2,13.7
206.25,62.9,76.8,50.1,63.3,13.4
209.0,62.4,75.9,49.7,62.7,13.1
211.75,61.4,75.9,49.7,62.3,13.1
214.5,61.9,76.4,49.9,62.8,13.3
217.25,62.7,76.9,49.7,63.1,13.6
220.0,62.5,76.6,50.9,63.3,12.8
222.75,62.5,77.0,50.5,63.3,13.2
225.5,62.3,77.4,51.7,63.8,12.9
228.25,61.8,79.8,50.8,64.1,14.6
231.0,62.5,80.9,51.5,65.0,14.9
233.75,63.1,81.0,52.3,65.5,14.5
236.5,63.3,79.8,52.6,65.3,13.7
239.25,63.8,80.9,53.1,65.9,14.0
242.0,63.6,81.4,52.3,65.8,14.6
244.75,64.5,79.4,51.7,65.2,13.8
247.5,63.4,81.0,52.0,65.4,14.6
250.25,64.1,79.0,52.1,65.1,13.5
253.0,65.2,79.6,51.9,65.6,13.8
255.75,63.4,79.1,52.3,65.0,13.5
258.5,63.7,78.8,54.4,65.6,12.3
261.25,62.6,77.7,52.1,64.1,12.9
264.0,62.9,77.1,52.5,64.2,12.3
266.75,63.5,76.0,51.8,63.8,12.1
269.5,64.0,75.8,51.9,63.9,11.9
272.25,64.1,75.6,51.7,63.8,12.0
275.0,65.2,76.1,52.1,64.5,12.0
277.75,65.0,72.4,52.1,63.2,10.3
280.5,64.9,73.6,53.0,63.9,10.4
283.25,66.3,71.7,52.4,63.4,10.0
286.0,66.4,69.3,52.3,62.7,9.1
288.75,65.8,68.6,53.0,62.5,8.3
291.5,65.8,67.7,53.5,62.3,7.7
294.25,66.2,66.1,53.8,62.1,7.1
297.0,66.7,64.9,54.7,62.1,6.4
299.75,66.2,64.6,55.2,62.0,5.9
302.5,66.6,64.6,54.6,62.0,6.5
305.25,68.0,63.3,55.6,62.3,6.3
308.0,68.5,62.6,55.7,62.3,6.4
310.75,69.9,62.2,57.0,63.1,6.5
313.5,70.6,60.9,57.1,62.9,7.0
316.25,69.9,60.8,58.2,63.0,6.2
319.0,71.1,60.0,58.4,63.1,6.9
321.75,70.0,60.7,58.4,63.1,6.1
324.5,71.5,60.1,58.7,63.5,7.0
327.25,71.4,60.1,58.4,63.3,7.1
330.0,71.7,59.5,59.8,63.7,6.9
332.75,72.4,60.3,59.5,64.1,7.2
335.5,71.5,59.5,58.9,63.3,7.1
338.25,72.6,60.4,60.1,64.4,7.1
341.0,72.3,60.5,59.8,64.2,7.0
343.75,72.2,60.4,61.2,64.6,6.6
346.5,72.8,60.5,60.7,64.6,7.0
349.25,72.2,60.6,61.6,64.8,6.4
352.0,73.8,60.1,62.4,65.4,7.3
354.75,74.7,59.7,62.4,65.6,8.0
357.5,73.9,59.5,64.5,66.0,7.3
360.25,74.5,59.2,63.7,65.8,7.8
363.0,74.0,60.8,65.5,66.8,6.7
365.75,75.2,60.9,67.5,67.8,7.2
368.5,76.0,60.1,66.3,67.5,8.0
371.25,76.8,60.7,66.8,68.1,8.1
374.0,76.2,61.5,67.7,68.4,7.4
376.75,78.4,60.4,67.5,68.7,9.1
379.5,78.7,61.2,68.8,69.6,8.8
382.25,79.3,61.9,70.1,70.4,8.7
385.0,79.0,62.5,72.4,71.3,8.3
387.75,78.4,62.8,72.0,71.1,7.8
390.5,78.8,63.7,73.2,71.9,7.6
393.25,79.9,65.1,75.3,73.5,7.6
396.0,79.2,65.7,75.2,73.4,7.0
398.75,80.9,67.3,76.3,74.8,6.9
401.5,79.2,67.2,78.1,74.8,6.6
404.25,80.7,69.4,78.8,76.3,6.0
407.0,82.1,70.1,79.2,77.2,6.2
409.75,82.5,71.1,79.8,77.8,5.9
412.5,82.5,71.6,81.6,78.6,6.1
415.25,83.2,73.1,83.4,79.9,5.9
418.0,83.9,73.1,85.6,80.9,6.8
420.75,83.9,75.7,86.2,81.9,5.5
423.5,83.4,76.5,88.4,82.8,6.0
426.25,85.0,77.5,90.0,84.2,6.3
429.0,85.3,77.9,92.5,85.2,7.3
431.75,86.5,81.8,94.9,87.7,6.6
434.5,87.0,83.2,97.6,89.3,7.4
437.25,88.8,85.5,97.4,90.6,6.1
440.0,91.1,87.5,97.0,91.9,4.8
442.75,90.4,88.1,97.8,92.1,5.0
445.5,91.8,92.8,98.8,94.5,3.8
448.25,92.8,94.3,100.2,95.7,3.9
451.0,93.6,97.2,100.6,97.1,3.5
453.75,94.6,97.6,100.8,97.7,3.1
456.5,96.2,100.6,103.7,100.2,3.8
459.25,98.2,102.1,103.3,101.2,2.7
462.0,97.3,106.5,103.3,102.4,4.7
464.75,100.1,106.3,105.9,104.1,3.5
467.5,101.3,112.2,106.7,106.7,5.5
470.25,102.4,113.2,105.6,107.1,5.6
473.0,103.0,115.2,103.9,107.4,6.8
475.75,102.9,113.4,106.1,107.5,5.4
478.5,103.8,117.5,108.1,109.8,7.0
481.25,106.8,118.8,109.6,111.8,6.3
484.0,106.3,121.8,109.1,112.4,8.3
486.75,110.0,122.5,112.4,114.9,6.6
489.5,109.0,128.0,112.7,116.6,10.1
492.25,113.8,130.6,115.7,120.0,9.2
495.0,112.3,132.8,116.3,120.5,10.8
497.75,114.9,133.6,116.5,121.7,10.4
500.5,116.2,135.2,118.8,123.4,10.3
503.25,118.0,138.7,119.9,125.5,11.4
506.0,120.6,141.0,119.6,127.1,12.0
508.75,119.5,142.8,125.7,129.3,12.1
511.5,120.3,143.6,125.0,129.6,12.3
514.25,122.1,146.9,125.0,131.3,13.5
517.0,125.9,146.1,126.9,133.0,11.4
519.75,127.8,148.6,128.5,135.0,11.8
522.5,128.7,152.7,129.2,136.9,13.7
525.25,130.4,152.7,132.4,138.5,12.3
528.0,131.8,155.1,133.6,140.2,13.0
530.75,133.4,157.9,135.8,142.4,13.6
533.5,133.8,158.6,137.3,143.2,13.4
536.25,135.2,159.5,140.8,145.2,12.7
539.0,137.6,163.1,141.8,147.5,13.6
541.75,137.9,160.5,144.0,147.5,11.7
544.5,138.4,165.2,143.2,148.9,14.3
547.25,140.9,166.7,144.1,150.6,14.1
550.0,141.6,166.7,147.8,152.0,13.1
552.75,146.9,168.2,146.9,154.0,12.3
555.5,143.4,165.7,151.8,153.6,11.2
558.25,148.4,164.0,150.3,154.2,8.5
561.0,150.4,169.4,149.7,156.5,11.2
563.75,150.7,168.1,151.8,156.9,9.7
566.5,151.1,167.1,150.4,156.2,9.5
569.25,154.2,167.3,154.0,158.5,7.6
572.0,151.5,163.9,151.1,155.5,7.3
574.75,154.2,165.0,153.7,157.7,6.3
577.5,157.9,163.7,150.4,157.3,6.7
580.25,159.6,164.0,153.7,159.1,5.2
583.0,157.4,164.8,154.3,158.8,5.4
585.75,154.8,160.6,153.0,156.1,4.0
588.5,158.1,157.6,153.9,156.5,2.3
591.25,158.0,156.4,152.7,155.7,2.7
594.0,157.1,154.3,153.6,155.0,1.8
596.75,156.7,150.8,150.5,152.6,3.5
599.5,154.0,150.7,151.1,151.9,1.8
602.25,157.7,148.6,150.4,152.2,4.8
605.0,154.5,145.7,149.2,149.8,4.4
607.75,152.7,143.2,150.4,148.8,4.9
610.5,155.9,140.8,152.1,149.6,7.8
613.25,152.9,139.7,151.3,148.0,7.2
616.0,148.9,137.5,150.8,145.7,7.2
618.75,148.4,134.2,145.8,142.8,7.6
621.5,148.3,131.4,148.4,142.7,9.8
624.25,144.9,130.8,147.9,141.2,9.1
627.0,144.4,127.8,142.9,138.4,9.2
629.75,143.2,124.5,140.6,136.1,10.1
632.5,140.3,122.6,139.4,134.1,10.0
635.25,139.2,118.3,137.3,131.6,11.6
638.0,138.2,118.8,137.3,131.5,11.0
640.75,137.0,116.2,130.7,128.0,10.7
643.5,136.1,112.6,130.9,126.5,12.3
646.25,129.0,110.0,125.0,121.3,10.0
649.0,128.6,107.5,123.1,119.8,10.9
651.75,123.2,105.7,120.0,116.3,9.3
654.5,119.4,103.1,119.0,113.8,9.3
657.25,117.4,100.8,114.8,111.0,8.9
660.0,113.2,97.6,113.8,108.2,9.2
662.75,112.4,95.6,112.1,106.7,9.6
665.5,105.4,92.5,107.9,101.9,8.3
668.25,102.9,90.0,104.8,99.2,8.0
671.0,99.7,86.8,106.8,97.8,10.2
673.75,98.7,85.3,102.1,95.4,8.9
676.5,95.6,84.4,100.6,93.5,8.3
679.25,93.7,81.6,100.1,91.8,9.4
682.0,91.4,78.1,96.9,88.8,9.7
684.75,88.7,77.4,96.0,87.4,9.3
687.5,86.3,74.4,93.7,84.8,9.8
690.25,84.4,72.6,90.1,82.4,8.9
693.0,83.0,72.0,89.2,81.4,8.7
695.75,81.7,70.0,87.3,79.7,8.8
698.5,78.8,68.0,84.8,77.2,8.5
701.25,76.3,65.6,84.5,75.5,9.5
704.0,75.7,62.7,81.7,73.4,9.8
706.75,72.4,61.5,81.1,71.6,9.8
709.5,71.7,61.3,80.8,71.2,9.8
712.25,68.7,60.2,78.3,69.1,9.0
715.0,67.4,58.3,76.3,67.3,9.0
717.75,65.1,56.3,76.7,66.0,10.2
720.5,62.9,54.2,73.9,63.7,9.9
723.25,60.8,54.3,72.0,62.3,9.0
726.0,60.1,52.1,71.9,61.4,9.9
728.75,58.0,50.5,70.6,59.7,10.2
731.5,56.1,49.4,70.9,58.8,11.0
734.25,55.9,47.9,68.4,57.4,10.3
737.0,55.1,46.5,67.7,56.4,10.6
739.75,53.2,46.2,65.4,54.9,9.7
742.5,51.2,44.2,64.3,53.3,10.2
745.25,51.3,43.0,63.3,52.5,10.2
748.0,49.3,41.3,61.7,50.8,10.3
750.75,47.4,40.1,59.9,49.1,10.0
753.5,45.4,39.5,59.3,48.0,10.2
756.25,43.7,39.3,59.0,47.4,10.3
759.0,43.0,38.5,57.4,46.3,9.9
761.75,41.1,38.5,56.7,45.4,9.8
764.5,40.5,37.6,55.2,44.4,9.4
767.25,39.2,37.7,54.4,43.8,9.2
770.0,37.9,37.9,52.7,42.8,8.5
772.75,37.6,37.5,51.8,42.3,8.2
774.0,37.9,36.9,51.8,42.2,8.3