Folder: fsri_materials_database/01_Data/Plywood/MCC

Note: README.md
# Materials and Products Database
### Repository of materials and products properties and fire test data to improve fire modeling and fire investigation.

This project was supported in part by Award No. 2019-DU-BX-0018, awarded by the National Institute of Justice, Office of Justice Programs, U.S. Department of Justice. The opinions, findings, and conclusions or recommendations expressed in this publication / program / exhibition are those of the author(s) and do not necessarily reflect those of the Department of Justice.

***
***

__Cite this database:__ "McKinnon, M., Weinschenk, C., Dow, N., DiDomizio, M., and Madrzykowski, D. Materials and Products Database (Version 1.0.0), Fire Safety Research Institute, UL Research Institutes. Columbia, MD 21045, 2023."

__Cite the Technical Reference Guide:__ "McKinnon, M., Weinschenk, C., and Madrzykowski, D. Materials and Products Database - Technical Reference Guide, Fire Safety Research Institute, UL Research Institutes. Columbia, MD 21045, 2023."

__Cite the User Guide:__ "McKinnon, M., and Weinschenk, C. Materials and Products Database - User Guide, Fire Safety Research Institute, UL Research Institutes. Columbia, MD 21045, 2023."

***
***

## Database Structure

## 01_Data/
Raw data generated from each apparatus are included here in plain-text format. The data is organized first by material, next by the short name of test apparatus used, and where applicable additional filtering by test settings.

### Test Apparatus and Data File Structure
- __Cone Calorimeter__ (Cone)
    + Data file structure includes the material, the short name for the apparatus, heat flux setting and scan/scalar, date of test, and replicate number. Scan is for the raw output data and scalar is for the initial conditions and high-level test parameters. 
        * Example: __MDF_Cone_HF25scalar_210323_R1__ stands for the first replicate of scalar data generated from a medium density fiber board test in cone calorimeter exposed to 25 kW/m<sup>2</sup> on March 23, 2021.
    + A _Cone_Notes.csv_ is generated for each material from the __plot_Cone_data.py__ script. For materials whose experiments deviated from typical behavior relevant pictures are included in the respective material directory.
- __Fourier Transform Infrared Spectrometer__ (FTIR)
    + The FTIR directory contains subdirectories for the Attenuated Total Reflectance method (ATR) and the Integrating Sphere (IS)
    + Data file structure for the ATR experiment files includes the material, the abbreviated name for the apparatus, date of test, and replicate number. 
        * Example: __MDF_ATR_210323_R5__ stands for the fifth replicate of data collected with the ATR accessory conducted on June 8, 2021.
    + Data file structure for the IS experiment files includes the material, the abbreviated name for the apparatus, the measurand, whether the test is a sample measurement or standard reference, date of test, and replicate number.
        * Example: __OSB_IS_REFLECT_MEAS_2

File: Plywood_MCC_30K_min_211006_R1.txt
Sample ID:	C:\MCC\MCC Cal\Test\Ext_Plywood_MCC_30K_min_211006_R1.txt
Sample Weight (mg):	4.75
Heating Rate (C/s):	0.5
Combustor Temp (C):	900
N2 Flow Rate (cc/min):	80
O2 Flow Rate (cc/min):	20
Calibration File:	C:\MCC\MCC Cal\Coeff1 JN10440_30_210304.txt.txt
T Correction Coefficients:	0	1.024463	0
Time Shift (s):	14
*
Time (s)	Temperature (C)	N2 flow rate (cc/min)	O2 flow rate (cc/min)	Flow Rate (cc/min)	Oxygen (%)	HRR (W/g)	Heating rate (C/s)
0.000	110.050	79.998	19.996	100.698	20.125	-0.091	-0.020
8.000	110.020	79.998	19.995	100.698	20.125	-0.057	-0.036
16.000	109.987	79.999	19.995	100.724	20.118	0.345	-0.006
24.000	110.052	79.997	19.994	100.800	20.104	1.329	0.013
32.000	110.600	79.998	19.996	100.898	20.091	2.146	0.119
39.999	111.691	79.999	19.995	100.910	20.081	2.853	0.177
47.999	113.268	80.000	19.995	100.922	20.075	3.226	0.216
55.999	115.211	79.999	19.995	100.943	20.071	3.516	0.254
63.999	117.652	80.001	19.996	100.950	20.073	3.349	0.349
71.999	120.345	80.000	19.995	100.941	20.073	3.338	0.356
79.999	123.362	79.998	19.996	100.957	20.070	3.558	0.380
87.999	126.676	79.997	19.996	100.952	20.066	3.845	0.426
95.999	130.064	79.998	19.995	100.967	20.067	3.779	0.420
104.000	133.682	79.999	19.994	100.959	20.068	3.703	0.490
111.999	137.434	79.997	19.995	100.964	20.066	3.810	0.489
120.000	141.345	79.999	19.996	100.951	20.065	3.908	0.504
128.000	145.312	80.001	19.995	100.944	20.070	3.573	0.500
136.000	149.308	79.999	19.996	100.934	20.062	4.062	0.518
144.000	153.335	79.999	19.996	100.932	20.062	4.107	0.485
152.000	157.404	80.000	19.996	100.932	20.067	3.727	0.522
160.000	161.437	79.996	19.996	100.934	20.065	3.913	0.498
168.000	165.531	79.997	19.996	100.913	20.059	4.272	0.512
176.000	169.623	79.998	19.997	100.894	20.056	4.480	0.534
184.000	173.577	79.999	19.998	100.895	20.057	4.442	0.496
192.000	177.529	79.998	19.995	100.893	20.050	4.861	0.516
200.000	181.515	79.998	19.995	100.893	20.047	5.047	0.480
208.000	185.528	80.000	19.994	100.894	20.046	5.142	0.520
216.000	189.395	79.998	19.995	100.896	20.042	5.439	0.505
224.000	193.314	79.999	19.995	100.887	20.033	6.014	0.451
232.000	197.244	80.001	19.995	100.889	20.030	6.195	0.468
240.000	201.192	79.999	19.996	100.883	20.024	6.589	0.490
248.000	205.145	79.998	19.996	100.889	20.021	6.773	0.519
256.000	209.051	79.998	19.997	100.890	20.018	6.977	0.457
264.000	213.008	79.999	19.997	100.886	20.008	7.670	0.471
272.000	216.944	79.998	19.997	100.896	20.005	7.887	0.504
280.000	220.855	80.000	19.996	100.878	20.000	8.216	0.458
288.000	224.869	80.000	19.995	100.894	19.999	8.286	0.478
296.000	228.775	79.998	19.996	100.896	19.999	8.291	0.496
304.000	232.805	80.000	19.996	100.892	19.996	8.475	0.501
312.000	236.771	80.000	19.995	100.885	19.991	8.762	0.498
320.000	240.716	79.998	19.995	100.890	19.989	8.900	0.474
328.000	244.722	79.996	19.995	100.892	19.983	9.345	0.500
336.000	248.676	79.998	19.997	100.897	19.973	9.988	0.493
344.000	252.766	79.998	19.996	100.897	19.960	10.856	0.483
352.000	256.757	79.998	19.997	100.899	19.943	11.949	0.504
360.000	260.688	79.998	19.997	100.912	19.927	13.062	0.507
368.000	264.622	79.999	19.997	100.920	19.909	14.238	0.494
376.000	268.587	80.000	19.996	100.933	19.881	16.086	0.487
384.000	272.640	80.000	19.997	100.933	19.856	17.755	0.480
392.000	276.572	80.001	19.996	100.948	19.832	19.361	0.491
400.000	280.500	79.999	19.994	100.959	19.795	21.775	0.491
408.000	284.502	79.998	19.996	100.979	19.758	24.250	0.524
416.000	288.476	79.998	19.995	100.979	19.719	26.866	0.497
424.000	292.520	79.998	19.997	101.000	19.681	29.384	0.513
432.000	296.542	79.996	19.996	101.012	19.643	31.879	0.489
440.000	300.525	79.998	19.997	101.029	19.601	34.711	0.464
448.000	304.349	79.998	19.996	101.040	19.555	37.742	0.538
456.000	308.538	79.999	19.997	101.049	19.515	40.415	0.417
464.000	312.650	80.000	19.996	101.069	19.465	43.708	0.545
472.000	316.671	80.001	19.995	101.083	19.420	46.748	0.494
480.000	320.689	79.999	19.995	101.092	19.373	49.846	0.508
488.000	324.739	79.999	19.997	101.102	19.335	52.335	0.517
496.000	328.757	80.000	19.997	101.097	19.304	54.409	0.510
504.000	332.850	79.999	19.995	101.095	19.279	56.117	0.526
512.000	336.920	79.997	19.997	101.094	19.260	57.333	0.486
520.000	340.939	79.998	19.997	101.084	19.258	57.487	0.521
528.000	344.910	79.999	19.996	101.064	19.273	56.452	0.514
536.000	348.890	79.998	19.996	101.041	19.312	53.852	0.502
544.000	352.937	79.997	19.997	101.005	19.366	50.234	0.532
552.000	357.017	80.001	19.995	100.975	19.443	45.134	0.523
560.000	361.060	80.000	19.996	100.931	19.529	39.381	0.519
568.000	365.084	80.000	19.995	100.899	19.629	32.759	0.517
576.000	369.150	79.999	19.995	100.876	19.719	26.777	0.527
584.000	373.265	79.998	19.995	100.850	19.794	21.822	0.510
592.000	377.350	79.997	19.994	100.837	19.856	17.703	0.509
600.000	381.434	79.997	19.994	100.822	19.904	14.547	0.536
608.000	385.469	79.998	19.996	100.825	19.937	12.375	0.516
616.000	389.507	79.998	19.994	100.821	19.953	11.321	0.492
624.000	393.567	80.000	19.996	100.816	19.966	10.437	0.492
632.000	397.637	80.000	19.997	100.817	19.972	10.056	0.462
640.000	401.682	79.999	19.996	100.813	19.978	9.652	0.503
648.000	405.687	80.000	19.996	100.816	19.980	9.535	0.491
656.000	409.713	79.998	19.997	100.815	19.982	9.387	0.492
664.000	413.669	80.000	19.996	100.814	19.989	8.940	0.487
672.000	417.662	79.998	19.996	100.816	19.996	8.434	0.511
680.000	421.743	79.997	19.995	100.819	20.010	7.535	0.487
688.000	425.816	79.999	19.996	100.809	20.010	7.504	0.529
696.000	429.932	79.999	19.997	100.814	20.018	7.010	0.526
704.000	434.033	79.999	19.995	100.798	20.025	6.520	0.539
712.000	438.018	80.001	19.995	100.803	20.027	6.383	0.471
720.000	442.077	79.999	19.998	100.808	20.028	6.318	0.491
728.000	446.135	79.997	19.996	100.793	20.035	5.873	0.527
736.000	450.101	80.000	19.996	100.797	20.039	5.622	0.489
744.000	454.191	80.000	19.995	100.795	20.044	5.300	0.515
752.000	458.298	80.000	19.997	100.802	20.042	5.392	0.540
760.000	462.362	79.998	19.997	100.785	20.043	5.353	0.523
768.000	466.433	80.000	19.995	100.780	20.043	5.373	0.486
776.000	470.550	80.001	19.996	100.783	20.042	5.419	0.548
784.000	474.672	80.000	19.997	100.789	20.057	4.415	0.499
792.000	478.766	80.002	19.997	100.796	20.058	4.334	0.503
800.000	482.924	80.001	19.997	100.789	20.056	4.468	0.505
808.000	487.058	79.999	19.999	100.795	20.064	3.953	0.518
816.000	491.143	79.998	19.998	100.798	20.065	3.886	0.502
824.000	495.341	79.997	19.997	100.798	20.072	3.423	0.518
832.000	499.538	79.996	19.997	100.783	20.069	3.609	0.530
840.000	503.619	79.997	19.996	100.777	20.070	3.556	0.509
848.000	507.625	80.000	19.996	100.790	20.074	3.314	0.498
856.000	511.693	79.998	19.995	100.782	20.069	3.651	0.495
864.000	515.771	80.001	19.998	100.807	20.072	3.439	0.502
872.000	519.853	80.000	19.997	100.782	20.073	3.363	0.488
880.000	523.902	80.019	20.004	100.795	20.069	3.648	0.512
888.000	527.973	80.019	20.002	100.806	20.075	3.209	0.505
896.000	532.043	79.998	19.998	100.780	20.073	3.380	0.511
904.000	536.096	80.004	19.999	100.786	20.077	3.071	0.523
912.000	540.176	79.998	20.001	100.782	20.076	3.137	0.526
920.000	544.223	79.998	19.998	100.779	20.077	3.114	0.492
928.000	548.335	79.997	19.997	100.782	20.079	2.985	0.518
936.000	552.449	80.001	19.996	100.780	20.079	2.940	0.514
944.000	556.584	79.999	19.996	100.774	20.077	3.076	0.490
952.000	560.696	79.999	19.995	100.775	20.080	2.883	0.487
960.000	564.794	80.001	19.996	100.776	20.082	2.759	0.478
968.000	568.967	79.999	19.995	100.775	20.077	3.069	0.514
976.000	573.084	79.998	19.997	100.778	20.080	2.883	0.534
984.000	577.202	79.999	19.996	100.773	20.082	2.767	0.510
992.000	581.317	79.996	19.996	100.778	20.083	2.663	0.511
1000.000	585.432	79.997	19.996	100.781	20.082	2.736	0.521
1008.000	589.530	79.999	19.997	100.776	20.080	2.870	0.523
1016.000	593.632	80.002	19.995	100.778	20.076	3.142	0.528
1024.000	597.733	79.998	19.996	100.777	20.078	3.021	0.515
1032.000	601.844	80.000	19.997	100.783	20.076	3.151	0.539
1039.999	605.867	80.000	19.995	100.774	20.079	2.971	0.496
1047.999	609.962	79.997	19.996	100.780	20.078	3.053	0.532
1055.999	614.107	79.997	19.994	100.772	20.072	3.400	0.575
1063.999	618.227	79.999	19.996	100.777	20.080	2.877	0.527
1071.999	622.335	79.999	19.996	100.767	20.074	3.283	0.532
1079.999	626.454	79.997	19.998	100.768	20.079	2.970	0.525
1087.999	630.531	79.999	19.996	100.774	20.073	3.323	0.516
1095.999	634.595	79.999	19.998	100.771	20.069	3.611	0.484
1104.001	638.669	79.998	19.996	100.776	20.066	3.816	0.508
1111.999	642.754	79.998	19.996	100.775	20.074	3.275	0.527
1119.999	646.772	80.000	19.994	100.780	20.075	3.217	0.509
1127.999	650.886	79.997	19.995	100.778	20.070	3.536	0.519
1135.999	654.940	80.000	19.994	100.773	20.069	3.643	0.522
1144.000	658.987	79.997	19.994	100.777	20.066	3.831	0.509
1151.999	663.104	79.998	19.996	100.775	20.061	4.147	0.534
1159.999	667.109	79.999	19.997	100.767	20.064	3.981	0.495
1168.000	671.213	79.998	19.997	100.776	20.064	3.949	0.498
1175.999	675.315	80.002	19.997	100.776	20.062	4.051	0.481
1183.999	679.475	79.998	19.998	100.777	20.061	4.138	0.542
1191.999	683.535	80.002	19.996	100.778	20.061	4.135	0.516
1199.999	687.558	79.999	19.995	100.772	20.065	3.886	0.489
1207.999	691.644	79.998	19.997	100.775	20.062	4.079	0.516
1216.000	695.720	79.998	19.997	100.773	20.069	3.646	0.542
1224.000	699.771	80.001	19.996	100.778	20.059	4.292	0.536
1231.999	703.795	79.998	19.996	100.779	20.055	4.568	0.514
1239.999	707.772	79.997	19.995	100.783	20.054	4.598	0.537
1247.999	711.858	79.997	19.995	100.780	20.057	4.408	0.528
1255.999	715.940	79.999	19.997	100.780	20.051	4.803	0.530
1263.999	719.990	79.998	19.997	100.777	20.056	4.458	0.521
1271.999	724.045	79.998	19.997	100.776	20.055	4.569	0.493
1279.999	728.136	80.001	19.997	100.772	20.054	4.618	0.505
1287.999	732.230	80.001	19.995	100.773	20.056	4.475	0.530
1296.000	736.267	79.999	19.995	100.777	20.052	4.716	0.515
1304.000	740.249	79.997	19.996	100.778	20.049	4.939	0.481
1310.499	743.476	79.999	19.995	100.790	20.053	4.695	0.502

File: Plywood_MCC_30K_min_211006_R2.txt
Sample ID:	C:\MCC\MCC Cal\Test\Ext_Plywood_MCC_30K_min_211006_R2.txt
Sample Weight (mg):	4.55
Heating Rate (C/s):	0.5
Combustor Temp (C):	900
N2 Flow Rate (cc/min):	80
O2 Flow Rate (cc/min):	20
Calibration File:	C:\MCC\MCC Cal\Coeff1 JN10440_30_210304.txt.txt
T Correction Coefficients:	0	1.024463	0
Time Shift (s):	14
*
Time (s)	Temperature (C)	N2 flow rate (cc/min)	O2 flow rate (cc/min)	Flow Rate (cc/min)	Oxygen (%)	HRR (W/g)	Heating rate (C/s)
0.000	108.794	79.997	19.996	100.738	20.056	0.119	-0.030
8.000	108.754	79.997	19.995	100.746	20.051	0.450	-0.003
16.000	108.784	79.999	19.996	100.788	20.042	1.056	0.015
24.000	109.010	79.999	19.996	100.881	20.027	2.125	0.063
32.000	109.818	79.998	19.996	100.949	20.016	2.841	0.128
40.000	111.182	79.998	19.995	100.974	20.007	3.477	0.192
48.000	113.021	80.001	19.996	100.954	20.011	3.182	0.261
56.000	115.073	80.001	19.996	100.972	20.008	3.433	0.212
64.000	117.505	79.997	19.994	100.957	20.008	3.395	0.333
72.000	120.096	79.999	19.995	100.971	20.006	3.558	0.306
80.000	122.936	79.999	19.996	100.972	20.006	3.565	0.403
88.000	125.905	79.999	19.995	100.973	20.000	3.949	0.363
96.001	129.047	79.999	19.995	100.977	20.000	3.955	0.388
104.001	132.333	80.000	19.995	100.979	19.999	4.020	0.418
112.000	135.779	80.000	19.996	100.984	19.999	4.024	0.429
120.000	139.366	79.999	19.996	100.982	19.993	4.458	0.466
128.000	143.049	80.002	19.995	100.984	19.995	4.344	0.486
136.000	146.787	80.000	19.996	100.971	19.994	4.409	0.441
144.000	150.704	79.998	19.996	100.975	19.996	4.241	0.459
152.000	154.599	79.998	19.996	100.973	19.991	4.592	0.458
160.000	158.561	79.998	19.995	100.974	19.989	4.710	0.491
168.000	162.457	79.998	19.995	100.974	19.988	4.796	0.502
176.000	166.550	79.998	19.995	100.976	19.988	4.807	0.486
184.000	170.525	79.999	19.996	100.969	19.983	5.160	0.494
192.000	174.626	80.000	19.996	100.941	19.979	5.432	0.531
200.000	178.653	79.999	19.996	100.944	19.976	5.613	0.539
208.000	182.584	80.001	19.995	100.937	19.973	5.846	0.458
216.000	186.614	80.001	19.996	100.933	19.968	6.163	0.460
224.000	190.654	79.999	19.995	100.938	19.965	6.382	0.518
232.000	194.661	79.997	19.998	100.937	19.961	6.646	0.515
240.000	198.613	79.998	19.995	100.936	19.957	6.956	0.493
248.000	202.597	80.000	19.995	100.939	19.952	7.293	0.485
256.000	206.506	79.999	19.995	100.933	19.951	7.392	0.475
264.000	210.502	80.000	19.996	100.934	19.942	7.995	0.473
272.000	214.433	80.001	19.995	100.932	19.939	8.170	0.516
280.000	218.370	80.000	19.996	100.932	19.936	8.435	0.538
288.000	222.292	79.999	19.995	100.935	19.930	8.835	0.496
296.000	226.264	80.001	19.994	100.934	19.929	8.863	0.471
304.000	230.224	80.000	19.994	100.934	19.929	8.886	0.488
312.000	234.158	79.998	19.994	100.937	19.924	9.217	0.486
320.000	238.107	79.997	19.995	100.935	19.917	9.740	0.473
328.000	242.053	79.999	19.997	100.935	19.911	10.131	0.469
336.000	246.096	79.998	19.996	100.942	19.907	10.401	0.540
344.000	250.113	79.998	19.995	100.936	19.901	10.824	0.560
352.000	254.090	80.001	19.995	100.952	19.897	11.094	0.502
360.000	258.132	79.998	19.994	100.963	19.876	12.533	0.522
368.000	262.003	79.999	19.994	100.970	19.863	13.482	0.494
376.000	266.063	80.002	19.995	100.976	19.850	14.378	0.449
384.000	270.155	80.000	19.993	100.978	19.824	16.137	0.520
392.000	274.223	79.999	19.997	100.986	19.801	17.725	0.480
400.000	278.245	79.999	19.996	101.006	19.777	19.411	0.525
408.000	282.256	79.999	19.995	101.010	19.740	21.982	0.506
416.000	286.237	79.997	19.997	101.015	19.712	23.900	0.504
424.000	290.291	79.997	19.998	101.041	19.671	26.792	0.524
432.000	294.353	80.000	19.996	101.055	19.633	29.400	0.461
440.000	298.363	80.000	19.995	101.056	19.598	31.849	0.499
448.000	302.349	80.000	19.996	101.060	19.558	34.590	0.491
456.000	306.412	80.000	19.996	101.082	19.521	37.159	0.497
464.000	310.442	80.001	19.995	101.089	19.477	40.235	0.501
472.000	314.512	79.999	19.995	101.093	19.439	42.875	0.515
480.000	318.521	80.000	19.996	101.107	19.399	45.676	0.498
488.000	322.550	80.001	19.997	101.125	19.374	47.370	0.531
496.000	326.574	79.996	19.996	101.132	19.330	50.425	0.504
504.000	330.656	79.998	19.996	101.139	19.292	53.075	0.506
512.000	334.812	79.998	19.997	101.137	19.275	54.259	0.522
520.000	338.861	79.999	19.996	101.129	19.247	56.195	0.466
528.000	342.843	80.000	19.995	101.128	19.240	56.647	0.513
536.001	346.914	80.001	19.995	101.119	19.255	55.622	0.478
544.000	350.950	80.002	19.996	101.088	19.287	53.353	0.516
552.000	355.009	80.000	19.996	101.053	19.336	49.976	0.468
560.000	359.045	79.998	19.996	101.016	19.408	44.932	0.532
568.000	363.050	80.000	19.997	100.978	19.491	39.185	0.491
576.000	367.084	79.999	19.996	100.959	19.579	33.069	0.491
584.000	371.088	79.999	19.996	100.921	19.661	27.421	0.496
592.000	375.141	79.998	19.998	100.895	19.740	21.969	0.525
600.000	379.172	80.002	19.997	100.892	19.809	17.178	0.525
608.000	383.253	79.996	19.997	100.885	19.849	14.409	0.472
616.000	387.351	80.001	19.996	100.887	19.879	12.327	0.521
624.000	391.441	80.005	19.996	100.889	19.894	11.314	0.532
632.000	395.540	80.000	19.997	100.884	19.898	11.020	0.502
640.000	399.614	80.000	19.995	100.875	19.912	10.035	0.520
648.000	403.636	79.999	19.996	100.870	19.915	9.882	0.512
656.000	407.648	80.001	19.997	100.871	19.917	9.715	0.524
664.000	411.652	79.998	19.996	100.876	19.917	9.676	0.495
672.000	415.652	80.001	19.996	100.868	19.927	9.036	0.497
680.000	419.729	80.000	19.997	100.875	19.924	9.215	0.507
688.000	423.779	79.999	19.995	100.878	19.936	8.424	0.508
696.000	427.834	80.000	19.998	100.862	19.945	7.774	0.526
704.000	431.842	80.001	19.996	100.878	19.953	7.228	0.471
712.000	435.978	80.002	19.996	100.858	19.954	7.158	0.518
720.000	440.013	79.999	19.994	100.859	19.963	6.510	0.498
728.000	444.044	79.999	19.996	100.856	19.965	6.392	0.532
736.000	448.080	79.999	19.996	100.856	19.968	6.168	0.502
744.000	452.070	80.000	19.997	100.859	19.969	6.114	0.470
752.000	456.173	80.001	19.994	100.858	19.970	6.024	0.508
760.000	460.172	80.000	19.996	100.860	19.980	5.320	0.464
768.000	464.270	79.999	19.994	100.857	19.981	5.316	0.521
776.000	468.356	80.001	19.996	100.856	19.978	5.510	0.514
784.000	472.429	80.002	19.997	100.854	19.990	4.656	0.497
792.000	476.528	80.001	19.996	100.853	19.989	4.725	0.497
800.000	480.670	80.000	19.996	100.853	19.992	4.509	0.513
808.000	484.757	79.999	19.995	100.855	19.995	4.311	0.524
816.000	488.926	80.000	19.995	100.860	19.994	4.396	0.535
824.000	493.012	79.998	19.995	100.852	19.995	4.322	0.542
832.000	497.121	79.998	19.995	100.860	19.997	4.167	0.509
840.000	501.231	80.001	19.995	100.858	19.995	4.309	0.535
848.000	505.298	80.001	19.994	100.858	19.995	4.337	0.524
856.000	509.369	80.000	19.997	100.856	20.001	3.886	0.501
864.000	513.458	80.002	19.996	100.853	20.002	3.823	0.528
872.000	517.627	80.003	19.995	100.853	20.004	3.720	0.536
880.000	521.730	80.000	19.995	100.857	20.002	3.825	0.540
888.000	525.745	79.999	19.997	100.857	19.999	4.017	0.487
896.000	529.898	79.999	19.997	100.858	20.011	3.188	0.519
904.000	533.948	80.000	19.996	100.855	20.003	3.784	0.490
912.000	538.070	80.000	19.996	100.854	20.005	3.630	0.524
920.000	542.127	80.000	19.996	100.855	20.003	3.763	0.487
928.000	546.209	80.002	19.995	100.855	20.001	3.890	0.481
936.000	550.317	80.001	19.996	100.856	20.002	3.855	0.487
944.000	554.383	80.000	19.996	100.856	20.007	3.503	0.510
952.000	558.545	80.001	19.997	100.856	20.004	3.666	0.545
960.000	562.625	80.001	19.995	100.857	20.005	3.627	0.521
968.000	566.682	80.000	19.996	100.858	20.004	3.698	0.514
976.000	570.752	79.999	19.996	100.854	20.009	3.320	0.525
984.000	574.843	80.001	19.997	100.853	20.007	3.496	0.524
992.000	578.866	80.000	19.996	100.857	20.008	3.406	0.483
1000.000	582.925	80.000	19.996	100.855	20.004	3.666	0.495
1008.000	586.955	80.001	19.996	100.857	20.009	3.337	0.494
1016.000	590.980	80.001	19.996	100.858	20.006	3.535	0.512
1024.000	595.096	80.000	19.995	100.859	20.006	3.558	0.547
1032.000	599.173	80.003	19.995	100.864	20.009	3.335	0.547
1040.000	603.278	80.000	19.996	100.854	20.009	3.378	0.499
1048.000	607.361	79.999	19.995	100.855	20.009	3.350	0.527
1056.000	611.358	80.001	19.996	100.856	20.010	3.305	0.463
1064.001	615.461	80.001	19.996	100.857	20.005	3.619	0.508
1072.000	619.570	79.999	19.998	100.860	20.002	3.804	0.529
1080.001	623.629	79.999	19.996	100.856	20.002	3.819	0.538
1088.000	627.701	80.000	19.996	100.859	20.005	3.621	0.508
1096.000	631.756	80.002	19.995	100.857	20.003	3.789	0.496
1104.000	635.901	79.999	19.995	100.857	20.003	3.750	0.515
1112.000	639.978	80.004	19.996	100.854	20.005	3.651	0.529
1120.000	644.065	80.003	19.995	100.853	20.001	3.915	0.499
1128.000	648.152	80.000	19.995	100.854	20.006	3.559	0.500
1136.001	652.258	80.000	19.996	100.857	20.008	3.442	0.512
1144.000	656.380	79.999	19.997	100.858	20.004	3.688	0.502
1152.001	660.495	80.001	19.995	100.857	20.004	3.694	0.524
1160.000	664.586	79.998	19.996	100.859	20.002	3.827	0.489
1168.000	668.616	80.000	19.997	100.863	20.005	3.645	0.490
1176.000	672.704	80.003	19.997	100.858	20.000	4.002	0.556
1184.000	676.824	80.002	19.996	100.856	19.997	4.200	0.498
1192.000	680.794	80.003	19.996	100.857	19.999	4.012	0.494
1200.000	684.860	80.002	19.995	100.866	20.000	3.954	0.520
1208.000	688.921	80.000	19.996	100.863	20.001	3.900	0.524
1216.001	692.940	80.001	19.996	100.859	20.001	3.918	0.495
1224.000	696.967	80.002	19.995	100.868	19.999	4.058	0.467
1232.000	701.017	80.001	19.996	100.854	20.000	3.991	0.525
1240.000	705.015	80.001	19.996	100.855	19.998	4.081	0.487
1248.000	709.029	80.003	19.996	100.856	19.997	4.142	0.478
1256.000	713.069	80.002	19.997	100.862	20.000	3.991	0.496
1264.000	717.224	80.001	19.997	100.853	20.001	3.913	0.517
1272.000	721.252	80.002	19.995	100.856	19.997	4.167	0.483
1280.000	725.285	80.002	19.995	100.861	19.998	4.115	0.499
1288.000	729.377	80.000	19.996	100.864	19.998	4.077	0.527
1296.001	733.395	80.001	19.995	100.855	20.001	3.903	0.498
1304.001	737.430	80.002	19.995	100.870	19.998	4.075	0.507
1312.000	741.511	80.002	19.995	100.861	19.998	4.103	0.538
1316.000	743.517	80.001	19.997	100.861	19.997	4.163	0.526