Folder: fsri_materials_database/01_Data/Plywood/MCC (part 2)

File: Plywood_MCC_30K_min_211007_R3.txt
Sample ID:	C:\MCC\MCC Cal\Test\Ext_Plywood_MCC_30K_min_211007_R3.txt
Sample Weight (mg):	4.4
Heating Rate (C/s):	0.5
Combustor Temp (C):	900
N2 Flow Rate (cc/min):	80
O2 Flow Rate (cc/min):	20
Calibration File:	C:\MCC\MCC Cal\Coeff1 JN10440_30_210304.txt.txt
T Correction Coefficients:	0	1.024463	0
Time Shift (s):	14
*
Time (s)	Temperature (C)	N2 flow rate (cc/min)	O2 flow rate (cc/min)	Flow Rate (cc/min)	Oxygen (%)	HRR (W/g)	Heating rate (C/s)
0.000	106.181	79.997	19.995	100.694	19.985	-0.165	0.013
8.001	106.186	79.996	19.996	100.671	19.983	-0.025	-0.011
16.001	106.155	79.997	19.996	100.703	19.980	0.218	0.018
24.000	106.156	79.996	19.995	100.736	19.973	0.690	-0.012
32.000	106.406	79.996	19.997	100.715	19.965	1.254	0.000
40.000	106.848	79.997	19.996	100.821	19.955	1.968	0.050
48.000	107.660	79.997	19.996	100.864	19.948	2.458	0.101
56.000	108.843	79.998	19.997	100.890	19.941	2.969	0.176
64.000	110.441	79.998	19.997	100.901	19.943	2.880	0.192
72.000	112.280	79.999	19.996	100.908	19.933	3.548	0.272
80.000	114.524	79.998	19.995	100.940	19.932	3.638	0.285
88.000	117.103	79.998	19.996	100.943	19.927	4.021	0.342
96.000	119.886	79.998	19.997	100.955	19.924	4.209	0.355
104.000	122.982	79.998	19.996	100.969	19.925	4.132	0.397
112.000	126.349	79.997	19.996	100.956	19.926	4.034	0.421
120.000	129.840	79.998	19.995	100.977	19.925	4.163	0.424
128.000	133.527	79.998	19.996	100.973	19.929	3.854	0.472
136.000	137.370	79.998	19.996	100.968	19.922	4.380	0.501
144.000	141.257	79.998	19.996	100.962	19.924	4.218	0.437
152.000	145.360	79.998	19.997	100.947	19.924	4.195	0.514
160.000	149.446	79.998	19.997	100.950	19.922	4.350	0.519
168.000	153.544	79.996	19.998	100.945	19.923	4.299	0.509
176.000	157.593	79.998	19.996	100.943	19.921	4.414	0.527
184.000	161.670	79.996	19.997	100.933	19.921	4.450	0.505
192.000	165.734	79.997	19.997	100.938	19.917	4.687	0.503
200.000	169.798	79.998	19.997	100.923	19.918	4.665	0.519
208.000	173.692	79.999	19.997	100.914	19.913	5.005	0.493
216.000	177.609	79.997	19.997	100.903	19.911	5.170	0.453
224.000	181.541	79.999	19.996	100.906	19.910	5.245	0.491
232.000	185.448	79.997	19.996	100.906	19.902	5.805	0.485
240.000	189.403	79.997	19.997	100.908	19.898	6.038	0.480
248.000	193.353	79.995	19.997	100.905	19.894	6.352	0.496
256.000	197.231	79.997	19.995	100.914	19.890	6.671	0.477
264.000	201.164	79.997	19.996	100.903	19.879	7.417	0.482
272.000	205.125	79.996	19.996	100.904	19.877	7.551	0.478
280.000	208.986	79.997	19.996	100.900	19.868	8.202	0.499
288.000	212.915	79.997	19.997	100.901	19.866	8.392	0.475
296.000	216.808	79.998	19.995	100.903	19.860	8.776	0.505
304.000	220.736	79.998	19.995	100.904	19.863	8.597	0.500
312.000	224.666	79.998	19.996	100.901	19.856	9.097	0.506
320.000	228.687	79.995	19.996	100.910	19.852	9.344	0.505
328.000	232.736	79.997	19.997	100.912	19.853	9.275	0.510
336.000	236.637	79.996	19.998	100.903	19.847	9.741	0.479
344.000	240.656	79.996	19.997	100.904	19.839	10.307	0.501
352.000	244.693	79.996	19.997	100.918	19.836	10.527	0.517
360.000	248.678	79.997	19.995	100.921	19.828	11.077	0.531
368.000	252.804	79.997	19.995	100.921	19.822	11.482	0.543
376.000	256.786	79.998	19.995	100.929	19.811	12.322	0.542
384.000	260.786	79.999	19.995	100.941	19.799	13.182	0.499
392.000	264.735	80.000	19.995	100.936	19.780	14.514	0.482
400.000	268.732	79.997	19.997	100.939	19.763	15.729	0.482
408.000	272.771	79.997	19.996	100.943	19.740	17.407	0.506
416.000	276.700	79.997	19.998	100.963	19.716	19.113	0.478
424.000	280.632	79.995	19.997	100.980	19.687	21.211	0.501
432.000	284.643	79.995	19.996	100.987	19.659	23.193	0.487
440.000	288.678	79.997	19.996	100.997	19.622	25.857	0.486
448.000	292.721	79.998	19.997	101.017	19.584	28.557	0.508
456.000	296.676	79.997	19.996	101.021	19.554	30.692	0.506
464.000	300.742	79.999	19.996	101.027	19.513	33.637	0.511
472.000	304.735	80.000	19.996	101.052	19.473	36.564	0.488
480.000	308.704	79.997	19.996	101.057	19.437	39.095	0.486
488.000	312.746	79.997	19.996	101.060	19.398	41.909	0.470
496.000	316.841	79.996	19.997	101.084	19.351	45.323	0.532
504.000	320.746	79.996	19.996	101.099	19.308	48.371	0.478
512.000	324.669	79.995	19.996	101.103	19.268	51.236	0.502
520.000	328.688	79.998	19.997	101.116	19.234	53.671	0.525
528.000	332.712	79.998	19.997	101.130	19.196	56.399	0.486
536.000	336.876	79.998	19.996	101.135	19.169	58.380	0.509
544.000	341.014	79.997	19.995	101.135	19.151	59.626	0.543
552.000	345.163	80.001	19.995	101.127	19.147	59.919	0.526
560.001	349.290	79.994	19.995	101.098	19.155	59.344	0.501
568.000	353.538	79.996	19.995	101.075	19.184	57.205	0.515
576.000	357.645	79.997	19.994	101.049	19.235	53.572	0.511
584.000	361.786	79.997	19.996	101.011	19.310	48.159	0.520
592.000	365.888	79.996	19.996	100.975	19.395	42.081	0.497
600.000	370.018	79.999	19.995	100.939	19.489	35.359	0.520
608.001	374.203	79.999	19.996	100.913	19.573	29.302	0.518
616.000	378.264	79.998	19.996	100.889	19.650	23.782	0.535
624.000	382.288	80.001	19.995	100.889	19.711	19.478	0.497
632.000	386.332	80.001	19.995	100.868	19.754	16.358	0.494
640.000	390.342	79.995	19.994	100.873	19.781	14.470	0.480
648.000	394.411	79.998	19.996	100.863	19.793	13.549	0.489
656.000	398.404	79.998	19.994	100.865	19.798	13.250	0.479
664.000	402.437	79.998	19.995	100.871	19.808	12.512	0.499
672.000	406.479	79.999	19.997	100.867	19.808	12.473	0.515
680.000	410.500	79.997	19.996	100.862	19.816	11.930	0.509
688.001	414.548	79.997	19.995	100.867	19.819	11.729	0.492
696.000	418.619	79.997	19.997	100.864	19.822	11.529	0.487
704.000	422.675	79.999	19.996	100.868	19.824	11.364	0.489
712.000	426.738	80.000	19.995	100.861	19.829	11.011	0.489
720.000	430.760	79.997	19.996	100.858	19.832	10.809	0.482
728.000	434.827	79.999	19.995	100.861	19.833	10.698	0.484
736.000	438.909	79.998	19.994	100.860	19.839	10.311	0.517
744.000	442.958	79.999	19.995	100.860	19.845	9.864	0.486
752.000	447.075	79.997	19.995	100.863	19.852	9.353	0.505
760.000	451.151	79.998	19.996	100.859	19.851	9.442	0.537
768.000	455.181	79.997	19.996	100.862	19.857	8.974	0.469
776.000	459.271	79.999	19.996	100.855	19.856	9.034	0.543
784.000	463.305	79.997	19.995	100.856	19.857	9.014	0.500
792.000	467.361	80.000	19.997	100.851	19.864	8.476	0.511
800.000	471.464	79.997	19.996	100.856	19.866	8.347	0.493
808.000	475.568	79.998	19.996	100.861	19.868	8.210	0.521
816.000	479.691	79.997	19.995	100.857	19.869	8.124	0.517
824.000	483.707	79.999	19.996	100.853	19.868	8.202	0.493
832.000	487.790	79.995	19.995	100.859	19.869	8.123	0.498
840.000	491.826	79.999	19.995	100.861	19.877	7.600	0.500
848.000	495.914	80.001	19.995	100.860	19.874	7.789	0.516
856.000	500.025	79.999	19.994	100.861	19.875	7.680	0.543
864.000	504.120	79.998	19.996	100.853	19.876	7.609	0.534
872.000	508.168	80.001	19.995	100.850	19.878	7.492	0.487
880.000	512.305	79.998	19.997	100.853	19.874	7.759	0.511
888.000	516.458	79.998	19.997	100.863	19.879	7.394	0.515
896.000	520.531	79.997	19.996	100.853	19.877	7.590	0.485
904.000	524.664	79.998	19.995	100.853	19.876	7.625	0.491
912.000	528.748	79.999	19.996	100.860	19.873	7.858	0.527
920.000	532.846	79.997	19.996	100.858	19.876	7.632	0.517
928.000	536.945	80.000	19.996	100.857	19.875	7.726	0.506
936.000	540.994	80.001	19.995	100.839	19.870	8.033	0.519
944.000	545.065	79.997	19.995	100.850	19.878	7.524	0.503
952.000	549.157	79.999	19.997	100.852	19.877	7.566	0.524
960.000	553.200	80.000	19.996	100.857	19.875	7.677	0.480
968.000	557.295	79.999	19.996	100.859	19.873	7.876	0.508
976.000	561.283	79.997	19.996	100.856	19.874	7.767	0.524
984.000	565.341	79.998	19.997	100.856	19.868	8.185	0.509
992.000	569.489	79.997	19.997	100.859	19.872	7.905	0.539
1000.000	573.721	79.998	19.997	100.860	19.874	7.790	0.554
1008.000	577.979	79.998	19.997	100.858	19.873	7.827	0.507
1016.000	582.146	79.998	19.996	100.859	19.870	8.055	0.513
1024.000	586.374	79.997	19.996	100.865	19.873	7.836	0.526
1032.000	590.487	80.000	19.995	100.866	19.869	8.120	0.530
1040.000	594.684	80.000	19.996	100.861	19.870	8.093	0.512
1048.001	598.747	79.997	19.996	100.855	19.867	8.284	0.500
1056.000	602.844	79.997	19.996	100.861	19.870	8.083	0.484
1064.001	606.916	80.000	19.997	100.850	19.869	8.171	0.525
1072.001	610.919	79.998	19.998	100.857	19.870	8.095	0.495
1080.000	614.999	79.996	19.997	100.850	19.867	8.285	0.513
1088.000	619.066	79.997	19.995	100.853	19.867	8.265	0.516
1096.000	623.116	79.999	19.994	100.848	19.858	8.928	0.499
1104.000	627.147	80.000	19.998	100.853	19.863	8.577	0.500
1112.001	631.123	80.001	19.995	100.853	19.866	8.332	0.475
1120.000	635.286	80.001	19.996	100.851	19.867	8.261	0.521
1128.000	639.343	79.998	19.996	100.849	19.862	8.652	0.501
1136.001	643.492	79.998	19.996	100.844	19.863	8.539	0.504
1144.000	647.565	79.998	19.996	100.849	19.863	8.583	0.499
1152.000	651.665	79.999	19.996	100.848	19.865	8.407	0.519
1160.000	655.722	79.997	19.995	100.849	19.858	8.915	0.517
1168.000	659.777	79.998	19.997	100.842	19.858	8.909	0.519
1176.001	663.820	79.999	19.997	100.843	19.861	8.707	0.499
1184.000	667.806	80.001	19.996	100.841	19.862	8.667	0.486
1192.000	671.894	80.001	19.995	100.851	19.858	8.891	0.502
1200.000	675.988	80.001	19.995	100.836	19.861	8.735	0.537
1208.000	680.042	79.997	19.996	100.835	19.855	9.125	0.465
1216.000	684.133	79.999	19.996	100.844	19.858	8.903	0.463
1224.001	688.151	79.999	19.995	100.840	19.855	9.174	0.510
1232.001	692.204	79.998	19.996	100.851	19.857	8.977	0.483
1240.001	696.355	79.997	19.996	100.850	19.857	9.001	0.513
1248.000	700.409	79.999	19.998	100.857	19.851	9.448	0.523
1256.000	704.401	80.000	19.996	100.842	19.850	9.504	0.487
1264.000	708.435	79.999	19.998	100.859	19.857	9.033	0.505
1272.000	712.440	80.000	19.995	100.859	19.859	8.851	0.484
1280.000	716.491	80.000	19.995	100.856	19.848	9.660	0.533
1288.000	720.515	79.999	19.996	100.863	19.851	9.416	0.515
1296.000	724.531	79.998	19.996	100.851	19.852	9.367	0.523
1304.000	728.587	79.998	19.997	100.849	19.856	9.083	0.535
1312.000	732.656	80.000	19.995	100.862	19.850	9.497	0.509
1320.000	736.666	79.998	19.997	100.861	19.853	9.315	0.486
1328.001	740.716	79.997	19.996	100.853	19.846	9.817	0.469
1336.001	744.812	79.999	19.996	100.855	19.841	10.156	0.517
1336.501	745.053	80.000	19.995	100.854	19.841	10.130	0.512