Folder: fsri_materials_database/01_Data/PMMA/Cone (part 2)

File: PMMA_HRRPUA_75.csv
Time after Ignition,PMMA_R1,PMMA_R2,PMMA_R3,Mean,Std. Dev.
0.0,221.8,21.2,21.7,88.3,115.7
0.5,252.8,36.4,30.8,106.7,126.6
1.0,278.4,55.0,38.4,123.9,134.1
1.5,307.5,79.0,61.0,149.2,137.4
2.0,331.0,101.3,78.0,170.1,139.8
2.5,357.4,123.7,104.6,195.2,140.8
3.0,380.3,152.5,114.1,215.6,143.9
3.5,419.2,180.2,139.0,246.1,151.3
4.0,445.3,208.3,163.8,272.5,151.3
4.5,462.4,234.8,184.0,293.7,148.3
5.0,495.1,260.1,203.1,319.5,154.8
5.5,498.8,284.9,225.6,336.4,143.7
6.0,512.1,309.7,247.1,356.3,138.5
6.5,555.9,332.7,273.9,387.5,148.8
7.0,550.2,361.8,299.4,403.8,130.5
7.5,563.2,395.0,323.4,427.2,123.1
8.0,579.7,409.6,337.4,442.3,124.4
8.5,578.6,447.9,372.4,466.3,104.3
9.0,595.1,482.2,388.6,488.6,103.4
9.5,616.7,493.0,409.2,506.3,104.4
10.0,642.9,504.0,437.2,528.0,105.0
10.5,649.4,532.6,447.2,543.1,101.5
11.0,680.4,529.8,477.6,562.6,105.3
11.5,715.1,564.1,489.8,589.6,114.8
12.0,685.1,570.2,493.2,582.8,96.6
12.5,696.1,601.7,516.3,604.7,90.0
13.0,714.8,606.0,538.0,619.6,89.2
13.5,708.8,605.5,535.7,616.6,87.1
14.0,726.7,631.1,561.4,639.7,83.0
14.5,766.1,618.4,571.1,651.9,101.7
15.0,763.6,661.3,599.5,674.8,82.9
15.5,746.0,652.1,598.9,665.7,74.5
16.0,810.6,656.6,630.8,699.3,97.2
16.5,837.1,693.3,650.1,726.8,97.9
17.0,844.2,723.7,637.9,735.3,103.6
17.5,802.9,716.8,662.4,727.4,70.8
18.0,812.0,751.5,681.4,748.3,65.3
18.5,897.2,709.3,689.9,765.4,114.5
19.0,887.5,744.1,661.8,764.5,114.2
19.5,888.5,788.9,670.3,782.6,109.2
20.0,882.9,771.4,718.4,790.9,84.0
20.5,930.1,788.1,690.8,803.0,120.3
21.0,931.3,761.1,703.2,798.5,118.5
21.5,902.7,817.6,726.7,815.7,88.0
22.0,921.8,830.1,757.3,836.4,82.4
22.5,959.3,830.4,744.9,844.9,108.0
23.0,938.6,886.2,789.7,871.5,75.5
23.5,963.8,914.4,792.4,890.2,88.2
24.0,1006.2,885.4,792.2,894.6,107.3
24.5,1006.3,878.6,832.3,905.7,90.1
25.0,1053.8,888.1,777.6,906.5,139.0
25.5,1040.6,928.8,795.9,921.8,122.5
26.0,1065.9,974.5,833.2,957.9,117.2
26.5,1135.6,962.1,850.9,982.9,143.5
27.0,1041.4,932.2,865.4,946.3,88.8
27.5,1121.2,988.4,877.6,995.7,122.0
28.0,1080.8,979.7,828.8,963.1,126.8
28.5,1107.3,1024.5,871.4,1001.1,119.7
29.0,1082.1,980.8,891.5,984.8,95.4
29.5,1062.4,1077.5,932.7,1024.2,79.6
30.0,1140.5,1008.0,917.0,1021.8,112.4
30.5,1154.5,1150.4,1000.1,1101.7,88.0
31.0,1095.2,1066.5,923.2,1028.3,92.1
31.5,1150.5,1108.4,984.1,1081.0,86.5
32.0,1198.8,1107.0,972.0,1092.6,114.1
32.5,1154.3,1145.0,1016.6,1105.3,77.0
33.0,1197.4,1086.7,961.7,1081.9,117.9
33.5,1216.8,1154.4,1071.0,1147.4,73.1
34.0,1226.0,1219.8,1031.8,1159.2,110.4
34.5,1244.3,1133.2,1073.9,1150.5,86.5
35.0,1301.6,1214.7,1046.6,1187.6,129.6
35.5,1270.1,1243.2,1018.4,1177.3,138.2
36.0,1260.1,1153.5,1112.2,1175.3,76.3
36.5,1295.1,1150.2,1050.8,1165.3,122.8
37.0,1302.9,1156.0,1148.2,1202.4,87.1
37.5,1287.8,1205.6,1120.1,1204.5,83.9
38.0,1259.0,1300.1,1206.8,1255.3,46.8
38.5,1328.4,1268.0,1172.9,1256.4,78.4
39.0,1357.9,1299.5,1094.6,1250.7,138.3
39.5,1380.0,1270.1,1140.6,1263.6,119.8
40.0,1307.6,1283.0,1170.4,1253.6,73.2
40.5,1406.9,1247.1,1169.3,1274.4,121.1
41.0,1374.3,1275.5,1068.9,1239.6,155.8
41.5,1480.0,1356.5,1167.6,1334.7,157.3
42.0,1460.5,1194.4,1222.4,1292.4,146.2
42.5,1468.4,1427.7,1213.3,1369.8,137.0
43.0,1412.6,1357.1,1276.6,1348.8,68.4
43.5,1357.8,1403.7,1238.1,1333.2,85.5
44.0,1511.4,1331.7,1267.6,1370.2,126.4
44.5,1596.3,1277.1,1279.8,1384.4,183.5
45.0,1429.1,1394.0,1408.9,1410.7,17.6
45.5,1571.1,1427.6,1265.8,1421.5,152.7
46.0,1477.0,1309.0,1328.0,1371.3,92.0
46.5,1522.9,1410.2,1310.8,1414.6,106.1
47.0,1540.6,1385.3,1288.3,1404.7,127.3
47.5,1559.0,1494.3,1365.7,1473.0,98.4
48.0,1576.9,1563.2,1323.8,1488.0,142.3
48.5,1580.7,1474.2,1245.1,1433.3,171.5
49.0,1772.9,1477.3,1283.5,1511.2,246.5
49.5,1763.0,1514.0,1297.9,1525.0,232.8
50.0,1662.2,1493.4,1407.9,1521.2,129.4
50.5,1734.6,1499.3,1321.0,1518.3,207.5
51.0,1650.6,1386.2,1279.8,1438.9,190.9
51.5,1689.7,1549.9,1238.7,1492.8,230.9
52.0,1696.6,1763.8,1390.9,1617.1,198.7
52.5,1663.3,1508.1,1382.2,1517.9,140.8
53.0,1666.8,1500.0,1316.3,1494.4,175.3
53.5,1697.0,1602.0,1363.8,1554.3,171.6
54.0,1696.6,1570.4,1533.9,1600.3,85.4
54.5,1703.4,1490.8,1440.3,1544.8,139.6
55.0,1603.6,1532.8,1460.0,1532.1,71.8
55.5,1631.3,1581.4,1497.4,1570.0,67.7
56.0,1705.2,1614.1,1447.0,1588.8,130.9
56.5,1775.1,1514.9,1536.9,1609.0,144.3
57.0,1657.1,1646.3,1508.9,1604.1,82.6
57.5,1491.1,1520.5,1395.0,1468.9,65.7
58.0,1625.6,1631.5,1516.7,1591.3,64.6
58.5,1636.0,1625.1,1435.5,1565.5,112.7
59.0,1667.6,1618.2,1401.1,1562.3,141.8
59.5,1640.2,1506.0,1453.8,1533.3,96.2
60.0,1694.2,1627.5,1575.8,1632.5,59.3
60.5,1598.5,1554.4,1407.8,1520.2,99.8
61.0,1648.3,1744.0,1530.0,1640.8,107.2
61.5,1621.1,1614.1,1383.1,1539.4,135.4
62.0,1743.1,1747.1,1384.0,1624.7,208.5
62.5,1672.4,1541.9,1485.9,1566.7,95.7
63.0,1522.4,1581.9,1389.6,1498.0,98.5
63.5,1589.4,1513.3,1510.5,1537.7,44.8
64.0,1600.7,1545.8,1545.9,1564.1,31.7
64.5,1653.6,1586.9,1468.0,1569.5,94.0
65.0,1798.2,1590.4,1425.8,1604.8,186.7
65.5,1550.4,1693.7,1455.3,1566.5,120.0
66.0,1646.3,1641.0,1502.4,1596.6,81.6
66.5,1723.1,1627.4,1416.8,1589.1,156.7
67.0,1554.3,1624.7,1513.8,1564.3,56.1
67.5,1527.9,1650.8,1354.3,1511.0,149.0
68.0,1574.6,1557.3,1459.0,1530.3,62.4
68.5,1662.0,1700.8,1417.0,1593.3,153.9
69.0,1512.1,1566.7,1409.9,1496.2,79.6
69.5,1620.9,1615.3,1525.6,1587.2,53.4
70.0,1537.2,1507.0,1569.4,1537.9,31.2
70.5,1590.9,1621.1,1532.9,1581.6,44.9
71.0,1520.3,1681.4,1617.2,1606.3,81.1
71.5,1536.3,1643.8,1608.7,1596.2,54.8
72.0,1546.2,1510.8,1397.3,1484.8,77.8
72.5,1562.5,1606.5,1555.8,1575.0,27.5
73.0,1437.3,1574.9,1577.4,1529.9,80.2
73.5,1534.9,1503.3,1601.4,1546.6,50.1
74.0,1483.5,1555.1,1784.8,1607.8,157.4
74.5,1502.7,1552.2,1584.8,1546.6,41.3
75.0,1488.6,1545.5,1457.3,1497.2,44.7
75.5,1453.2,1626.9,1612.8,1564.3,96.4
76.0,1348.3,1461.6,1621.7,1477.2,137.4
76.5,1359.9,1491.7,1570.7,1474.1,106.5
77.0,1395.0,1418.7,1574.8,1462.8,97.7
77.5,1368.1,1471.1,1590.0,1476.4,111.0
78.0,1322.4,1438.2,1540.2,1433.6,109.0
78.5,1203.9,1395.6,1361.9,1320.5,102.3
79.0,1241.6,1392.8,1491.4,1375.3,125.8
79.5,1179.9,1416.5,1532.5,1376.3,179.7
80.0,1146.7,1412.1,1484.4,1347.8,177.8
80.5,1153.5,1392.7,1570.1,1372.1,209.1
81.0,1038.9,1303.9,1444.7,1262.5,206.0
81.5,1025.1,1308.7,1563.9,1299.2,269.6
82.0,984.6,1271.8,1604.7,1287.0,310.3
82.5,968.5,1242.9,1577.0,1262.8,304.8
83.0,920.7,1231.4,1499.9,1217.4,289.8
83.5,889.1,1227.0,1332.7,1149.6,231.7
84.0,853.5,1174.0,1540.8,1189.4,343.9
84.5,801.9,1194.2,1497.1,1164.4,348.6
85.0,753.6,1130.2,1378.3,1087.4,314.6
85.5,692.0,1123.2,1379.4,1064.9,347.4
86.0,641.9,1106.6,1306.1,1018.2,340.8
86.5,577.7,1053.6,1372.3,1001.2,399.9
87.0,528.9,1047.7,1269.4,948.7,380.0
87.5,456.4,1008.6,1282.1,915.7,420.6
88.0,404.5,958.6,1248.8,870.6,429.0
88.5,364.0,895.4,1238.0,832.5,440.4
89.0,318.5,870.4,1156.9,781.9,426.1
89.5,287.3,847.1,1180.4,771.6,451.3
90.0,252.7,817.3,1129.4,733.1,444.4