Folder: fsri_materials_database/01_Data/PMMA/Cone

Note: README.md
# Materials and Products Database
### Repository of materials and products properties and fire test data to improve fire modeling and fire investigation.

This project was supported in part by Award No. 2019-DU-BX-0018, awarded by the National Institute of Justice, Office of Justice Programs, U.S. Department of Justice. The opinions, findings, and conclusions or recommendations expressed in this publication / program / exhibition are those of the author(s) and do not necessarily reflect those of the Department of Justice.

***
***

__Cite this database:__ "McKinnon, M., Weinschenk, C., Dow, N., DiDomizio, M., and Madrzykowski, D. Materials and Products Database (Version 1.0.0), Fire Safety Research Institute, UL Research Institutes. Columbia, MD 21045, 2023."

__Cite the Technical Reference Guide:__ "McKinnon, M., Weinschenk, C., and Madrzykowski, D. Materials and Products Database - Technical Reference Guide, Fire Safety Research Institute, UL Research Institutes. Columbia, MD 21045, 2023."

__Cite the User Guide:__ "McKinnon, M., and Weinschenk, C. Materials and Products Database - User Guide, Fire Safety Research Institute, UL Research Institutes. Columbia, MD 21045, 2023."

***
***

## Database Structure

## 01_Data/
Raw data generated from each apparatus are included here in plain-text format. The data is organized first by material, next by the short name of test apparatus used, and where applicable additional filtering by test settings.

### Test Apparatus and Data File Structure
- __Cone Calorimeter__ (Cone)
    + Data file structure includes the material, the short name for the apparatus, heat flux setting and scan/scalar, date of test, and replicate number. Scan is for the raw output data and scalar is for the initial conditions and high-level test parameters. 
        * Example: __MDF_Cone_HF25scalar_210323_R1__ stands for the first replicate of scalar data generated from a medium density fiber board test in cone calorimeter exposed to 25 kW/m<sup>2</sup> on March 23, 2021.
    + A _Cone_Notes.csv_ is generated for each material from the __plot_Cone_data.py__ script. For materials whose experiments deviated from typical behavior relevant pictures are included in the respective material directory.
- __Fourier Transform Infrared Spectrometer__ (FTIR)
    + The FTIR directory contains subdirectories for the Attenuated Total Reflectance method (ATR) and the Integrating Sphere (IS)
    + Data file structure for the ATR experiment files includes the material, the abbreviated name for the apparatus, date of test, and replicate number. 
        * Example: __MDF_ATR_210323_R5__ stands for the fifth replicate of data collected with the ATR accessory conducted on June 8, 2021.
    + Data file structure for the IS experiment files includes the material, the abbreviated name for the apparatus, the measurand, whether the test is a sample measurement or standard reference, date of test, and replicate number.
        * Example: __OSB_IS_REFLECT_MEAS_2

File: PMMA_HRRPUA_25.csv
Time after Ignition,PMMA_R1,PMMA_R2,PMMA_R3,Mean,Std. Dev.
0.0,22.7,13.4,13.7,16.6,5.3
0.75,30.9,23.0,21.9,25.2,4.9
1.5,43.4,31.7,31.5,35.5,6.8
2.25,56.9,43.3,44.8,48.3,7.4
3.0,67.3,55.0,57.9,60.1,6.4
3.75,84.6,67.3,70.5,74.1,9.2
4.5,96.0,82.8,82.7,87.2,7.7
5.25,111.5,101.6,93.9,102.3,8.8
6.0,123.0,111.5,114.5,116.3,6.0
6.75,141.0,132.8,131.4,135.1,5.1
7.5,156.5,152.2,150.0,152.9,3.3
8.25,177.9,170.8,169.9,172.9,4.4
9.0,192.6,189.7,194.1,192.2,2.3
9.75,217.3,198.4,211.5,209.1,9.6
10.5,228.8,211.4,233.1,224.4,11.5
11.25,249.3,222.6,254.7,242.2,17.2
12.0,268.3,233.7,261.1,254.4,18.3
12.75,275.3,239.8,280.1,265.1,22.0
13.5,287.0,255.8,294.9,279.2,20.7
14.25,299.9,260.7,303.3,288.0,23.7
15.0,310.8,276.3,324.2,303.8,24.8
15.75,319.5,293.6,329.9,314.3,18.7
16.5,340.9,310.7,344.2,331.9,18.5
17.25,351.6,323.0,345.8,340.2,15.1
18.0,356.0,330.2,375.6,353.9,22.8
18.75,367.4,338.5,367.7,357.9,16.8
19.5,375.0,342.8,371.3,363.0,17.6
20.25,393.6,352.2,384.9,376.9,21.8
21.0,388.9,361.0,388.4,379.4,15.9
21.75,392.5,371.2,415.6,393.1,22.2
22.5,402.8,379.6,419.7,400.7,20.2
23.25,420.4,388.4,429.5,412.7,21.6
24.0,421.7,395.4,431.0,416.0,18.5
24.75,423.8,405.5,435.6,421.6,15.2
25.5,438.3,395.8,449.3,427.8,28.3
26.25,439.9,404.1,450.8,431.6,24.5
27.0,448.8,405.7,467.8,440.8,31.8
27.75,462.3,425.9,464.9,451.0,21.8
28.5,457.4,432.5,472.9,454.3,20.4
29.25,462.9,436.8,491.7,463.8,27.5
30.0,456.6,450.3,494.0,467.0,23.6
30.75,472.8,446.5,499.2,472.8,26.4
31.5,464.6,458.1,509.1,477.2,27.7
32.25,490.3,466.2,516.5,491.0,25.2
33.0,472.1,476.9,515.1,488.0,23.5
33.75,490.5,448.0,529.5,489.3,40.8
34.5,507.4,465.5,538.9,503.9,36.8
35.25,488.3,474.9,544.6,502.6,37.0
36.0,514.9,472.2,565.6,517.6,46.7
36.75,524.4,471.8,553.9,516.7,41.6
37.5,522.2,496.8,584.3,534.4,45.0
38.25,516.7,498.5,555.8,523.7,29.3
39.0,524.5,496.4,562.2,527.7,33.0
39.75,551.5,504.9,575.8,544.1,36.0
40.5,533.3,510.5,581.0,541.6,36.0
41.25,537.9,522.9,589.6,550.1,35.0
42.0,536.3,532.5,567.5,545.4,19.2
42.75,544.1,544.1,608.5,565.6,37.2
43.5,561.1,533.4,608.4,567.7,37.9
44.25,557.8,529.3,613.7,566.9,43.0
45.0,562.8,571.1,638.8,590.9,41.7
45.75,571.7,541.3,637.7,583.6,49.3
46.5,592.9,557.2,626.3,592.2,34.5
47.25,588.8,554.5,638.7,594.0,42.3
48.0,574.6,542.9,629.4,582.3,43.8
48.75,581.7,577.9,639.4,599.6,34.5
49.5,608.0,564.4,662.9,611.7,49.4
50.25,597.1,574.1,672.3,614.5,51.4
51.0,603.0,599.3,690.1,630.8,51.4
51.75,609.9,589.3,685.3,628.2,50.5
52.5,620.1,597.4,702.9,640.2,55.5
53.25,610.9,592.9,678.6,627.4,45.2
54.0,617.7,588.1,685.5,630.4,49.9
54.75,609.0,594.8,688.5,630.8,50.5
55.5,596.4,611.1,708.3,638.6,60.8
56.25,632.7,613.2,710.1,652.0,51.3
57.0,622.1,609.9,704.0,645.3,51.2
57.75,635.6,605.2,731.4,657.4,65.9
58.5,634.3,634.7,733.2,667.4,57.0
59.25,650.8,632.5,709.3,664.2,40.1
60.0,638.4,638.0,739.4,671.9,58.4
60.75,641.0,644.6,714.6,666.7,41.5
61.5,661.2,645.1,727.6,678.0,43.7
62.25,649.5,663.5,745.4,686.1,51.8
63.0,662.0,652.3,730.4,681.6,42.6
63.75,665.8,649.9,764.3,693.3,62.0
64.5,673.1,643.4,719.6,678.7,38.4
65.25,669.2,619.4,769.4,686.0,76.4
66.0,678.4,682.8,749.2,703.5,39.7
66.75,642.1,669.5,754.6,688.7,58.7
67.5,704.7,682.3,762.9,716.6,41.6
68.25,695.5,697.0,761.8,718.1,37.8
69.0,688.8,677.0,794.6,720.1,64.8
69.75,690.9,688.1,759.0,712.6,40.2
70.5,693.5,681.5,760.9,712.0,42.8
71.25,675.9,691.1,783.0,716.7,58.0
72.0,707.8,686.3,769.0,721.1,42.9
72.75,706.1,695.9,766.8,722.9,38.4
73.5,707.7,679.7,765.4,717.6,43.7
74.25,699.9,688.0,747.3,711.7,31.4
75.0,686.9,680.7,782.7,716.8,57.2
75.75,713.6,705.2,770.8,729.9,35.7
76.5,681.0,700.1,789.9,723.7,58.2
77.25,706.3,710.1,793.9,736.8,49.5
78.0,715.6,684.7,750.0,716.8,32.7
78.75,674.3,666.9,730.2,690.5,34.6
79.5,692.7,696.0,753.7,714.1,34.3
80.25,702.0,663.2,761.7,709.0,49.6
81.0,718.4,679.2,718.8,705.5,22.8
81.75,694.4,674.3,716.6,695.1,21.2
82.5,695.0,691.1,751.8,712.6,34.0
83.25,689.6,721.4,751.7,720.9,31.1
84.0,702.1,702.5,752.0,718.9,28.7
84.75,689.5,683.8,740.1,704.5,31.0
85.5,697.0,677.4,736.7,703.7,30.2
86.25,670.5,671.2,750.3,697.3,45.9
87.0,684.4,710.2,756.9,717.2,36.7
87.75,709.1,665.5,737.1,703.9,36.1
88.5,701.3,678.0,766.4,715.2,45.8
89.25,677.9,688.3,737.6,701.3,31.9
90.0,693.9,702.6,767.2,721.2,40.1
90.75,670.0,684.8,716.8,690.5,23.9
91.5,693.3,677.1,756.1,708.8,41.8
92.25,651.9,705.3,764.0,707.1,56.0
93.0,683.6,689.1,752.5,708.4,38.3
93.75,709.3,687.8,733.6,710.2,22.9
94.5,675.7,666.2,771.3,704.4,58.2
95.25,658.2,678.1,740.7,692.3,43.1
96.0,683.2,667.9,751.7,700.9,44.6
96.75,708.3,698.3,747.6,718.1,26.1
97.5,709.5,681.7,758.5,716.6,38.9
98.25,666.9,706.0,754.1,709.0,43.6
99.0,696.2,680.7,761.8,712.9,43.0
99.75,673.2,673.6,763.9,703.6,52.3
100.5,694.5,674.1,742.1,703.6,34.9
101.25,679.1,716.9,762.6,719.5,41.8
102.0,696.1,695.7,780.7,724.2,49.0
102.75,674.0,695.8,759.6,709.8,44.5
103.5,681.5,701.9,796.9,726.8,61.5
104.25,706.8,692.0,790.5,729.8,53.1
105.0,692.1,701.2,754.4,715.9,33.6
105.75,672.9,691.8,748.3,704.3,39.2
106.5,678.5,689.2,773.0,713.6,51.8
107.25,687.6,692.5,792.0,724.0,58.9
108.0,673.3,650.3,775.1,699.6,66.4
108.75,689.6,693.9,773.6,719.0,47.3
109.5,684.4,694.7,772.4,717.2,48.1
110.25,687.8,690.8,768.2,715.6,45.6
111.0,692.5,680.1,746.3,706.3,35.2
111.75,659.8,682.7,804.5,715.7,77.8
112.5,678.1,707.0,788.5,724.5,57.3
113.25,667.2,690.5,789.7,715.8,65.0
114.0,689.1,696.7,756.8,714.2,37.1
114.75,676.3,710.0,767.2,717.8,45.9
115.5,657.3,694.4,781.5,711.1,63.7
116.25,698.8,682.6,738.0,706.4,28.5
117.0,654.3,699.8,797.7,717.3,73.3
117.75,664.2,686.6,789.5,713.4,66.8
118.5,695.5,706.9,775.0,725.8,43.0
119.25,694.6,692.5,751.7,712.9,33.6
120.0,682.7,714.4,789.2,728.8,54.7
120.75,685.0,694.6,748.9,709.5,34.4
121.5,728.8,687.9,764.7,727.1,38.4
122.25,691.7,700.6,750.0,714.1,31.4
123.0,678.0,701.9,774.1,718.0,50.0
123.75,690.7,703.1,768.9,720.9,42.0
124.5,703.4,696.1,771.0,723.5,41.3
125.25,720.9,690.5,747.7,719.7,28.6
126.0,696.4,685.1,761.8,714.4,41.4
126.75,691.5,739.3,739.8,723.6,27.7
127.5,716.9,702.0,766.9,728.6,34.0
128.25,664.0,713.3,774.6,717.3,55.4
129.0,691.7,692.8,757.4,714.0,37.6
129.75,685.5,708.2,771.9,721.9,44.8
130.5,708.0,714.2,764.0,728.8,30.7
131.25,680.7,693.6,747.7,707.3,35.5
132.0,692.5,683.6,761.4,712.5,42.6
132.75,700.4,725.2,759.7,728.4,29.8
133.5,688.5,709.0,743.0,713.5,27.5
134.25,686.8,712.2,719.7,706.2,17.3
135.0,693.9,714.3,749.8,719.3,28.3
135.75,701.2,710.6,737.1,716.3,18.7
136.5,681.6,687.7,733.6,700.9,28.4
137.25,677.7,669.4,725.5,690.9,30.3
138.0,665.8,692.7,717.6,692.0,25.9
138.75,695.8,697.3,705.9,699.7,5.4
139.5,688.8,699.5,692.0,693.4,5.5
140.25,674.5,698.7,653.0,675.4,22.9
141.0,661.3,683.2,665.5,670.0,11.6
141.75,678.0,696.1,666.9,680.3,14.8
142.5,672.2,693.5,663.7,676.5,15.4
143.25,693.6,713.0,650.1,685.5,32.2
144.0,670.2,673.7,659.5,667.8,7.4
144.75,666.3,673.0,623.8,654.3,26.7
145.5,651.2,676.7,631.7,653.2,22.6
146.25,668.7,687.7,621.0,659.2,34.4
147.0,659.2,681.8,620.4,653.8,31.0
147.75,673.9,671.0,599.3,648.1,42.2
148.5,664.0,666.4,610.7,647.0,31.5
149.25,662.9,678.1,597.6,646.2,42.7
150.0,631.2,666.1,602.9,633.4,31.6
150.75,651.8,653.4,586.9,630.7,37.9
151.5,645.7,658.3,582.6,628.9,40.6
152.25,641.1,646.0,577.0,621.4,38.5
153.0,639.5,666.6,548.8,618.3,61.7
153.75,635.5,656.6,561.4,617.8,50.0
154.5,612.3,655.0,540.4,602.6,57.9
155.25,601.8,641.8,538.0,593.8,52.3
156.0,618.1,646.5,536.8,600.5,56.9
156.75,599.5,625.7,522.4,582.5,53.7
157.5,609.6,610.4,503.8,574.6,61.3
158.25,612.2,606.4,493.9,570.8,66.7
159.0,601.4,613.8,483.4,566.2,71.9
159.75,601.0,618.6,465.1,561.6,84.0
160.5,587.3,615.0,437.7,546.6,95.4
161.25,581.5,580.5,443.7,535.2,79.3
162.0,592.5,589.2,424.8,535.5,95.9
162.75,569.3,575.2,402.1,515.5,98.3
163.5,571.0,557.0,395.5,507.9,97.5
164.25,577.3,550.0,377.3,501.5,108.4
165.0,585.8,540.3,364.5,496.9,116.8
165.75,562.4,531.6,345.5,479.8,117.4
166.5,556.9,497.8,331.6,462.1,116.8
167.25,567.9,496.7,318.4,461.0,128.5
168.0,563.9,474.2,302.9,447.0,132.6
168.75,566.9,454.4,286.5,435.9,141.1
169.5,538.7,444.6,269.5,417.6,136.6
170.25,535.7,429.2,261.0,408.6,138.5
171.0,530.6,409.9,241.3,393.9,145.3
171.75,517.1,395.6,222.5,378.4,148.0
172.5,498.5,390.0,203.1,363.8,149.4
173.25,496.0,377.7,193.1,355.6,152.7
174.0,478.2,362.6,178.0,339.6,151.4
174.75,464.4,341.2,161.6,322.4,152.3
175.5,441.9,326.2,145.3,304.5,149.5
176.25,417.8,315.9,128.1,287.3,147.0
177.0,413.2,299.0,115.5,275.9,150.2
177.75,382.7,285.7,107.6,258.6,139.5
178.5,363.1,264.0,96.2,241.1,134.9
179.25,335.3,250.8,87.3,224.4,126.1
180.0,313.7,232.2,79.8,208.5,118.7
180.75,287.3,212.3,72.8,190.8,108.9
181.5,258.3,193.8,64.8,172.3,98.5
182.25,231.7,177.6,56.1,155.1,89.9
183.0,201.9,167.7,47.9,139.2,80.9
183.75,179.5,149.5,41.5,123.5,72.6
184.5,155.8,140.4,37.0,111.1,64.6
185.25,134.2,128.8,33.6,98.9,56.6
186.0,115.3,116.1,30.3,87.3,49.3
186.75,98.2,102.3,26.5,75.7,42.6
187.5,80.0,89.0,23.7,64.2,35.4
188.25,64.2,77.3,21.1,54.2,29.4
188.75,55.8,70.7,,63.2,10.5

File: PMMA_HRRPUA_50.csv
Time after Ignition,PMMA_R1,PMMA_R2,PMMA_R3,Mean,Std. Dev.
0.0,25.9,11.0,8.9,15.3,9.3
0.5,32.2,17.8,14.7,21.5,9.3
1.0,40.6,26.4,24.0,30.3,9.0
1.5,50.2,38.4,35.4,41.3,7.8
2.0,58.2,51.2,50.9,53.4,4.2
2.5,74.1,67.1,69.6,70.3,3.5
3.0,84.5,87.3,87.4,86.4,1.6
3.5,101.9,104.5,104.7,103.7,1.5
4.0,118.3,120.0,125.0,121.1,3.4
4.5,128.0,140.6,145.9,138.2,9.2
5.0,149.9,157.5,163.7,157.0,6.9
5.5,168.7,173.2,178.1,173.3,4.7
6.0,187.5,192.0,194.1,191.2,3.3
6.5,202.4,200.8,207.9,203.7,3.7
7.0,218.7,215.9,226.2,220.3,5.3
7.5,238.6,231.5,242.5,237.5,5.6
8.0,251.5,253.1,254.0,252.9,1.3
8.5,261.2,259.7,266.6,262.5,3.7
9.0,272.5,281.8,272.4,275.6,5.4
9.5,288.7,290.1,281.2,286.6,4.8
10.0,303.2,315.2,306.3,308.2,6.2
10.5,321.3,325.0,313.5,319.9,5.8
11.0,344.7,334.0,329.9,336.2,7.6
11.5,345.6,355.9,342.0,347.8,7.2
12.0,363.5,365.6,356.2,361.8,4.9
12.5,379.8,375.9,379.6,378.4,2.2
13.0,405.3,373.9,374.2,384.5,18.1
13.5,402.2,381.5,391.1,391.6,10.3
14.0,409.7,391.9,404.6,402.1,9.2
14.5,444.1,395.5,420.3,420.0,24.3
15.0,442.3,414.6,420.2,425.7,14.6
15.5,441.9,415.6,433.8,430.4,13.5
16.0,441.0,427.9,440.1,436.3,7.4
16.5,463.7,438.4,459.6,453.9,13.6
17.0,459.6,457.5,462.8,460.0,2.7
17.5,453.2,454.3,474.3,460.6,11.9
18.0,468.0,471.3,483.2,474.2,8.0
18.5,483.0,466.6,497.6,482.4,15.5
19.0,488.3,489.4,499.1,492.3,6.0
19.5,504.5,484.4,511.0,500.0,13.9
20.0,528.0,480.1,498.1,502.0,24.2
20.5,550.0,493.6,520.7,521.5,28.2
21.0,529.5,497.0,538.9,521.8,22.0
21.5,544.0,522.1,538.6,534.9,11.4
22.0,529.9,528.4,534.2,530.8,3.0
22.5,556.1,528.5,523.3,536.0,17.6
23.0,575.3,543.4,546.9,555.2,17.5
23.5,562.3,544.3,578.1,561.6,16.9
24.0,554.7,577.3,585.2,572.4,15.9
24.5,577.7,569.9,587.7,578.4,8.9
25.0,618.6,587.0,613.9,606.5,17.1
25.5,581.8,583.4,632.2,599.1,28.6
26.0,619.1,590.4,614.9,608.1,15.5
26.5,626.1,613.4,627.3,622.3,7.7
27.0,610.6,594.6,658.9,621.4,33.5
27.5,639.2,602.1,631.5,624.3,19.6
28.0,651.0,637.8,657.7,648.8,10.1
28.5,653.0,647.2,658.2,652.8,5.5
29.0,657.1,655.7,665.5,659.4,5.3
29.5,707.9,646.4,687.2,680.5,31.3
30.0,700.8,656.1,685.6,680.8,22.7
30.5,701.5,678.1,687.2,688.9,11.8
31.0,726.3,674.9,720.3,707.2,28.1
31.5,701.0,662.1,709.4,690.8,25.2
32.0,707.1,664.9,717.5,696.5,27.8
32.5,705.6,696.3,757.9,719.9,33.2
33.0,736.6,673.9,750.7,720.4,40.8
33.5,760.9,665.7,727.7,718.1,48.3
34.0,694.1,681.6,734.2,703.3,27.5
34.5,769.8,694.9,766.8,743.8,42.4
35.0,759.3,734.0,757.7,750.3,14.2
35.5,795.6,717.0,730.4,747.7,42.0
36.0,793.9,732.5,780.8,769.1,32.4
36.5,752.3,708.5,797.9,752.9,44.7
37.0,762.2,718.3,769.8,750.1,27.8
37.5,787.0,754.1,744.2,761.8,22.4
38.0,814.1,769.6,778.3,787.3,23.6
38.5,804.4,750.8,822.7,792.6,37.4
39.0,840.6,762.0,762.2,788.3,45.3
39.5,801.3,811.8,839.6,817.5,19.8
40.0,811.0,724.9,817.7,784.5,51.8
40.5,869.0,827.3,832.7,843.0,22.7
41.0,845.4,775.6,838.3,819.8,38.4
41.5,843.0,806.8,843.9,831.2,21.1
42.0,899.7,780.0,828.2,836.0,60.2
42.5,849.6,760.5,810.0,806.7,44.6
43.0,906.5,754.5,858.4,839.8,77.7
43.5,883.7,818.7,862.7,855.0,33.2
44.0,867.0,805.3,901.9,858.0,48.9
44.5,911.1,813.6,833.8,852.8,51.5
45.0,917.4,815.1,874.6,869.1,51.4
45.5,961.3,808.3,895.9,888.5,76.8
46.0,887.8,794.8,873.4,852.0,50.1
46.5,888.2,788.2,891.3,855.9,58.6
47.0,894.1,851.7,873.8,873.2,21.2
47.5,963.3,830.5,902.2,898.7,66.5
48.0,939.1,821.1,883.2,881.1,59.0
48.5,892.1,864.3,861.8,872.7,16.9
49.0,943.9,846.5,857.9,882.8,53.3
49.5,936.5,920.1,889.1,915.2,24.0
50.0,936.2,841.4,855.3,877.6,51.2
50.5,881.5,897.0,968.7,915.7,46.5
51.0,940.5,831.1,959.0,910.2,69.1
51.5,948.1,937.5,937.6,941.1,6.1
52.0,926.9,887.7,909.0,907.9,19.6
52.5,970.3,887.8,967.7,941.9,46.9
53.0,983.4,896.4,928.7,936.2,43.9
53.5,914.5,898.2,888.7,900.5,13.1
54.0,981.6,912.8,930.1,941.5,35.8
54.5,974.6,932.0,870.5,925.7,52.4
55.0,978.5,939.3,972.7,963.5,21.2
55.5,989.4,914.9,943.7,949.3,37.6
56.0,950.9,927.0,967.1,948.3,20.1
56.5,969.8,1009.8,975.6,985.1,21.6
57.0,941.8,913.4,996.6,950.6,42.3
57.5,1089.9,916.8,966.4,991.0,89.2
58.0,1033.3,948.3,1049.7,1010.4,54.5
58.5,1062.7,955.4,987.8,1002.0,55.0
59.0,1101.8,972.7,1004.0,1026.2,67.4
59.5,977.0,961.1,922.8,953.6,27.9
60.0,1073.9,1038.5,983.2,1031.9,45.7
60.5,1095.4,946.9,1061.1,1034.5,77.7
61.0,1007.8,1026.0,998.3,1010.7,14.1
61.5,1054.1,1064.3,1048.2,1055.5,8.2
62.0,1053.4,1042.7,1099.4,1065.2,30.1
62.5,983.2,1045.2,1189.7,1072.7,105.9
63.0,1142.3,1040.5,1048.6,1077.1,56.6
63.5,1069.8,1105.7,1087.6,1087.7,18.0
64.0,1056.8,1100.4,1062.1,1073.1,23.8
64.5,1149.3,1017.4,1129.6,1098.8,71.1
65.0,1101.5,1068.1,1082.8,1084.1,16.7
65.5,1184.4,1004.2,1091.8,1093.5,90.1
66.0,1139.3,1041.0,1105.1,1095.2,49.9
66.5,1168.8,1062.3,1051.1,1094.1,65.0
67.0,1246.9,1150.2,1043.4,1146.8,101.8
67.5,1078.7,1103.6,1079.1,1087.1,14.2
68.0,1148.2,1056.5,1047.8,1084.2,55.6
68.5,1235.3,1109.2,1073.1,1139.2,85.2
69.0,1142.3,1162.6,1159.4,1154.8,10.9
69.5,1095.5,1091.2,1203.3,1130.0,63.5
70.0,1186.9,1128.9,1052.2,1122.6,67.6
70.5,1173.0,1103.5,1143.6,1140.0,34.9
71.0,1090.4,1057.4,1098.9,1082.3,21.9
71.5,1201.5,1085.5,1064.5,1117.1,73.8
72.0,1176.7,1054.7,1156.6,1129.3,65.4
72.5,1210.6,1079.6,1069.9,1120.1,78.6
73.0,1102.8,1008.2,1093.0,1068.0,52.0
73.5,1074.5,1079.3,1136.1,1096.6,34.3
74.0,1092.2,1039.2,1068.2,1066.5,26.5
74.5,1140.0,1060.5,1152.8,1117.7,50.0
75.0,1059.6,1032.9,1147.1,1079.9,59.8
75.5,1094.4,1129.1,1055.6,1093.0,36.8
76.0,1169.4,1097.5,1040.0,1102.3,64.8
76.5,1120.7,1059.3,1109.4,1096.5,32.7
77.0,1034.4,1029.8,1087.9,1050.7,32.3
77.5,1136.1,1019.2,1101.3,1085.5,60.0
78.0,1104.2,1055.5,1060.7,1073.5,26.7
78.5,1059.6,1049.2,1084.6,1064.5,18.2
79.0,1032.2,1032.3,1096.6,1053.7,37.1
79.5,1125.0,997.7,1036.1,1053.0,65.3
80.0,1156.0,1106.1,1128.1,1130.1,25.0
80.5,1092.2,1030.1,1086.1,1069.5,34.2
81.0,1094.1,1028.3,999.0,1040.5,48.7
81.5,1099.1,1033.8,1089.0,1074.0,35.1
82.0,1126.8,1044.0,1071.5,1080.8,42.2
82.5,1111.1,964.0,1083.6,1052.9,78.2
83.0,1151.5,1000.2,987.2,1046.3,91.3
83.5,1144.8,922.3,1047.0,1038.0,111.5
84.0,1009.9,1043.4,999.9,1017.7,22.8
84.5,1074.3,1062.2,1000.2,1045.6,39.7
85.0,1155.7,1095.5,1093.1,1114.8,35.4
85.5,1030.5,1035.9,1047.7,1038.0,8.8
86.0,1065.1,1000.2,1058.9,1041.4,35.8
86.5,1004.1,957.0,1025.2,995.4,34.9
87.0,1084.4,975.5,990.9,1016.9,58.9
87.5,1054.9,996.5,966.5,1006.0,44.9
88.0,1049.0,970.5,1005.5,1008.3,39.3
88.5,1089.6,1016.9,982.3,1029.6,54.8
89.0,1019.3,961.1,962.1,980.8,33.3
89.5,994.6,961.7,963.0,973.1,18.6
90.0,1004.9,1011.0,948.7,988.2,34.4
90.5,1055.3,961.3,918.5,978.4,70.0
91.0,1053.6,951.5,920.9,975.3,69.5
91.5,1000.8,1004.3,983.6,996.2,11.1
92.0,971.5,969.3,983.8,974.9,7.8
92.5,1026.1,953.5,946.3,975.3,44.1
93.0,988.6,941.5,929.6,953.2,31.2
93.5,957.1,966.3,874.5,932.6,50.5
94.0,925.5,987.0,892.4,935.0,48.0
94.5,921.8,959.8,938.8,940.2,19.0
95.0,920.3,927.9,910.4,919.5,8.8
95.5,933.3,907.5,860.2,900.3,37.1
96.0,913.6,869.3,853.2,878.7,31.3
96.5,838.6,904.4,888.1,877.0,34.3
97.0,875.7,891.4,837.2,868.1,27.9
97.5,821.0,906.0,836.8,854.6,45.2
98.0,823.7,870.4,858.8,850.9,24.3
98.5,807.4,843.3,814.4,821.7,19.0
99.0,871.4,854.4,838.4,854.7,16.5
99.5,844.9,902.5,801.3,849.6,50.7
100.0,826.1,863.4,794.6,828.0,34.4
100.5,828.0,853.8,757.3,813.0,50.0
101.0,799.2,834.6,829.6,821.1,19.1
101.5,785.1,811.5,756.9,784.5,27.3
102.0,756.7,809.9,771.7,779.4,27.4
102.5,746.8,785.6,732.2,754.9,27.6
103.0,760.2,764.9,754.7,759.9,5.1
103.5,709.4,772.9,694.0,725.5,41.8
104.0,700.2,752.2,704.0,718.8,29.0
104.5,708.2,792.8,681.1,727.4,58.3
105.0,681.2,779.7,701.2,720.7,52.0
105.5,657.3,741.2,680.8,693.1,43.3
106.0,633.0,726.4,666.6,675.3,47.3
106.5,631.6,701.9,648.6,660.7,36.7
107.0,610.0,693.9,624.3,642.7,44.9
107.5,598.0,691.1,625.9,638.3,47.8
108.0,579.7,676.1,612.2,622.6,49.0
108.5,550.6,663.9,599.8,604.8,56.8
109.0,544.1,663.3,581.9,596.4,60.9
109.5,520.8,655.0,578.9,584.9,67.3
110.0,496.9,623.1,554.2,558.1,63.2
110.5,477.3,613.3,543.8,544.8,68.0
111.0,456.0,602.1,528.6,528.9,73.1
111.5,431.4,598.3,506.5,512.1,83.6
112.0,406.4,572.0,499.0,492.5,83.0
112.5,385.3,568.3,490.6,481.4,91.9
113.0,359.6,547.5,469.3,458.8,94.4
113.5,336.9,543.3,472.2,450.8,104.8
114.0,318.0,525.0,440.3,427.7,104.1
114.5,299.1,519.6,431.2,416.6,111.0
115.0,270.5,505.1,417.4,397.7,118.5
115.5,251.5,480.5,405.8,379.2,116.8
116.0,222.8,472.3,383.5,359.5,126.5
116.5,207.9,457.0,359.3,341.4,125.5
117.0,186.1,428.6,342.4,319.0,122.9
117.5,166.5,423.4,314.5,301.5,129.0
118.0,151.9,394.6,297.3,281.3,122.2
118.5,134.3,387.8,279.8,267.3,127.2
119.0,123.7,364.4,252.5,246.9,120.4
119.5,110.8,339.6,239.6,230.0,114.7
120.0,99.2,324.0,215.4,212.9,112.4
120.5,92.3,302.8,201.2,198.8,105.3
121.0,85.3,292.5,180.0,185.9,103.7
121.5,77.5,269.7,166.0,171.1,96.2
122.0,71.0,255.4,149.9,158.8,92.5
122.5,64.5,237.3,135.5,145.8,86.8