Folder: fsri_materials_database/01_Data/Engineered_Wood_Furniture/FTIR/IS

Note: README.md
# Materials and Products Database
### Repository of materials and products properties and fire test data to improve fire modeling and fire investigation.

This project was supported in part by Award No. 2019-DU-BX-0018, awarded by the National Institute of Justice, Office of Justice Programs, U.S. Department of Justice. The opinions, findings, and conclusions or recommendations expressed in this publication / program / exhibition are those of the author(s) and do not necessarily reflect those of the Department of Justice.

***
***

__Cite this database:__ "McKinnon, M., Weinschenk, C., Dow, N., DiDomizio, M., and Madrzykowski, D. Materials and Products Database (Version 1.0.0), Fire Safety Research Institute, UL Research Institutes. Columbia, MD 21045, 2023."

__Cite the Technical Reference Guide:__ "McKinnon, M., Weinschenk, C., and Madrzykowski, D. Materials and Products Database - Technical Reference Guide, Fire Safety Research Institute, UL Research Institutes. Columbia, MD 21045, 2023."

__Cite the User Guide:__ "McKinnon, M., and Weinschenk, C. Materials and Products Database - User Guide, Fire Safety Research Institute, UL Research Institutes. Columbia, MD 21045, 2023."

***
***

## Database Structure

## 01_Data/
Raw data generated from each apparatus are included here in plain-text format. The data is organized first by material, next by the short name of test apparatus used, and where applicable additional filtering by test settings.

### Test Apparatus and Data File Structure
- __Cone Calorimeter__ (Cone)
    + Data file structure includes the material, the short name for the apparatus, heat flux setting and scan/scalar, date of test, and replicate number. Scan is for the raw output data and scalar is for the initial conditions and high-level test parameters. 
        * Example: __MDF_Cone_HF25scalar_210323_R1__ stands for the first replicate of scalar data generated from a medium density fiber board test in cone calorimeter exposed to 25 kW/m<sup>2</sup> on March 23, 2021.
    + A _Cone_Notes.csv_ is generated for each material from the __plot_Cone_data.py__ script. For materials whose experiments deviated from typical behavior relevant pictures are included in the respective material directory.
- __Fourier Transform Infrared Spectrometer__ (FTIR)
    + The FTIR directory contains subdirectories for the Attenuated Total Reflectance method (ATR) and the Integrating Sphere (IS)
    + Data file structure for the ATR experiment files includes the material, the abbreviated name for the apparatus, date of test, and replicate number. 
        * Example: __MDF_ATR_210323_R5__ stands for the fifth replicate of data collected with the ATR accessory conducted on June 8, 2021.
    + Data file structure for the IS experiment files includes the material, the abbreviated name for the apparatus, the measurand, whether the test is a sample measurement or standard reference, date of test, and replicate number.
        * Example: __OSB_IS_REFLECT_MEAS_2

File: Engineered_Wood_Furniture_IS_S_221005_R1.dpt
7497.03,0.18164
7473.89,0.18354
7450.74,0.17488
7427.6,0.17597
7404.45,0.17299
7381.31,0.17845
7358.16,0.17045
7335.02,0.17513
7311.87,0.17351
7288.73,0.17564
7265.58,0.17428
7242.44,0.17844
7219.29,0.16938
7196.15,0.17255
7173,0.18237
7149.86,0.16795
7126.71,0.16994
7103.57,0.16545
7080.42,0.16408
7057.28,0.16474
7034.13,0.16271
7010.99,0.15768
6987.84,0.15890
6964.7,0.15964
6941.55,0.15709
6918.41,0.15607
6895.26,0.15542
6872.12,0.15759
6848.97,0.15828
6825.83,0.16174
6802.68,0.15761
6779.54,0.15625
6756.39,0.15520
6733.25,0.16090
6710.1,0.15554
6686.96,0.15738
6663.82,0.16048
6640.67,0.15735
6617.53,0.16097
6594.38,0.16119
6571.24,0.16431
6548.09,0.15548
6524.95,0.16443
6501.8,0.16425
6478.66,0.16142
6455.51,0.16193
6432.37,0.16423
6409.22,0.16834
6386.08,0.16541
6362.93,0.16717
6339.79,0.16950
6316.64,0.16766
6293.5,0.16768
6270.35,0.17089
6247.21,0.17258
6224.06,0.17447
6200.92,0.17365
6177.77,0.17467
6154.63,0.17448
6131.48,0.17576
6108.34,0.17656
6085.19,0.17605
6062.05,0.17465
6038.9,0.17390
6015.76,0.17060
5992.61,0.17336
5969.47,0.17289
5946.32,0.17579
5923.18,0.17257
5900.03,0.17084
5876.89,0.17137
5853.74,0.17220
5830.6,0.16969
5807.45,0.16923
5784.31,0.17129
5761.16,0.17068
5738.02,0.17375
5714.87,0.17358
5691.73,0.17426
5668.58,0.17435
5645.44,0.17463
5622.29,0.17630
5599.15,0.17676
5576,0.17676
5552.86,0.17741
5529.71,0.17926
5506.57,0.17993
5483.42,0.18062
5460.28,0.18090
5437.13,0.18188
5413.99,0.18409
5390.84,0.18437
5367.7,0.18361
5344.55,0.18302
5321.41,0.18307
5298.26,0.17681
5275.12,0.16742
5251.97,0.15792
5228.83,0.14924
5205.68,0.14637
5182.54,0.14658
5159.39,0.14714
5136.25,0.14887
5113.1,0.15197
5089.96,0.15382
5066.81,0.15624
5043.67,0.15802
5020.52,0.16094
4997.38,0.16056
4974.23,0.16185
4951.09,0.15956
4927.94,0.15584
4904.8,0.15320
4881.65,0.15106
4858.51,0.14987
4835.36,0.14892
4812.22,0.14774
4789.07,0.14829
4765.93,0.14745
4742.78,0.14778
4719.64,0.14709
4696.49,0.14696
4673.35,0.14652
4650.2,0.14906
4627.06,0.15104
4603.92,0.15285
4580.77,0.15328
4557.63,0.15423
4534.48,0.15534
4511.34,0.15584
4488.19,0.15321
4465.05,0.14692
4441.9,0.13809
4418.76,0.13465
4395.61,0.13357
4372.47,0.13314
4349.32,0.13167
4326.18,0.12810
4303.03,0.13102
4279.89,0.13078
4256.74,0.12912
4233.6,0.13232
4210.45,0.13340
4187.31,0.13327
4164.16,0.13437
4141.02,0.13172
4117.87,0.12986
4094.73,0.12623
4071.58,0.12262
4048.44,0.11940
4025.29,0.11678
4002.15,0.11668
3979,0.11759
3955.86,0.12010
3932.71,0.12233
3909.57,0.12509
3886.42,0.12818
3863.28,0.13102
3840.13,0.13345
3816.99,0.13427
3793.84,0.13268
3770.7,0.13159
3747.55,0.12913
3724.41,0.12389
3701.26,0.11363
3678.12,0.08908
3654.97,0.07731
3631.83,0.06696
3608.68,0.06100
3585.54,0.05655
3562.39,0.05507
3539.25,0.05306
3516.1,0.05160
3492.96,0.05179
3469.81,0.05086
3446.67,0.05137
3423.52,0.05157
3400.38,0.05170
3377.23,0.05126
3354.09,0.05125
3330.94,0.05165
3307.8,0.05178
3284.65,0.05322
3261.51,0.05331
3238.36,0.05406
3215.22,0.05555
3192.07,0.05657
3168.93,0.05699
3145.78,0.05823
3122.64,0.05922
3099.49,0.06018
3076.35,0.06004
3053.2,0.06117
3030.06,0.06070
3006.91,0.05849
2983.77,0.05581
2960.62,0.05262
2937.48,0.05186
2914.33,0.05585
2891.19,0.05548
2868.04,0.05556
2844.9,0.05928
2821.75,0.06487
2798.61,0.06842
2775.46,0.07099
2752.32,0.07226
2729.17,0.07338
2706.03,0.07528
2682.88,0.07713
2659.74,0.07801
2636.59,0.07932
2613.45,0.08179
2590.3,0.08332
2567.16,0.08339
2544.02,0.08409
2520.87,0.08774
2497.73,0.09116
2474.58,0.09524
2451.44,0.09682
2428.29,0.09894
2405.15,0.10142
2382,0.10298
2358.86,0.10533
2335.71,0.10621
2312.57,0.10786
2289.42,0.10724
2266.28,0.10594
2243.13,0.10447
2219.99,0.10316
2196.84,0.10164
2173.7,0.09816
2150.55,0.09423
2127.41,0.09425
2104.26,0.09525
2081.12,0.09664
2057.97,0.09693
2034.83,0.09769
2011.68,0.10010
1988.54,0.09954
1965.39,0.09891
1942.25,0.10035
1919.1,0.10369
1895.96,0.10390
1872.81,0.10033
1849.67,0.09304
1826.52,0.08652
1803.38,0.07509
1780.23,0.05765
1757.09,0.03828
1733.94,0.04474
1710.8,0.05671
1687.65,0.04596
1664.51,0.04698
1641.36,0.06461
1618.22,0.06300
1595.07,0.05939
1571.93,0.06380
1548.78,0.07286
1525.64,0.06407
1502.49,0.05873
1479.35,0.05482
1456.2,0.04910
1433.06,0.05255
1409.91,0.04897
1386.77,0.04542
1363.62,0.04516
1340.48,0.04040
1317.33,0.03604
1294.19,0.03843
1271.04,0.07770
1247.9,0.06738
1224.75,0.05893
1201.61,0.05416
1178.46,0.04782
1155.32,0.04562
1132.17,0.05015
1109.03,0.05694
1085.88,0.05171
1062.74,0.06925
1039.59,0.06919
1016.45,0.07113
993.304,0.06898
970.159,0.07073
947.014,0.06842
923.869,0.06360
900.724,0.05964
877.579,0.05423
854.434,0.05808
831.289,0.07493
808.144,0.07066
784.999,0.06419
761.854,0.05899
738.709,0.06772
715.565,0.06050
692.42,0.06389
669.275,0.06584
646.13,0.05904
622.985,0.05658
599.84,0.05745

File: Engineered_Wood_Furniture_IS_S_221005_R2.dpt
7497.03,0.17277
7473.89,0.18459
7450.74,0.17131
7427.6,0.17145
7404.45,0.17972
7381.31,0.16664
7358.16,0.18039
7335.02,0.17761
7311.87,0.17238
7288.73,0.17638
7265.58,0.17583
7242.44,0.17360
7219.29,0.17503
7196.15,0.16915
7173,0.17272
7149.86,0.16610
7126.71,0.17526
7103.57,0.17086
7080.42,0.16346
7057.28,0.16966
7034.13,0.15991
7010.99,0.16161
6987.84,0.16375
6964.7,0.16080
6941.55,0.15744
6918.41,0.15826
6895.26,0.15535
6872.12,0.15821
6848.97,0.15543
6825.83,0.15444
6802.68,0.15395
6779.54,0.15363
6756.39,0.15639
6733.25,0.15712
6710.1,0.15545
6686.96,0.15564
6663.82,0.15841
6640.67,0.15820
6617.53,0.16232
6594.38,0.16103
6571.24,0.16266
6548.09,0.16719
6524.95,0.16032
6501.8,0.16525
6478.66,0.16213
6455.51,0.16806
6432.37,0.16471
6409.22,0.16494
6386.08,0.16566
6362.93,0.16567
6339.79,0.16367
6316.64,0.16804
6293.5,0.16761
6270.35,0.17077
6247.21,0.17028
6224.06,0.17192
6200.92,0.17386
6177.77,0.17056
6154.63,0.17367
6131.48,0.17286
6108.34,0.17732
6085.19,0.17386
6062.05,0.17557
6038.9,0.17465
6015.76,0.17345
5992.61,0.17226
5969.47,0.17498
5946.32,0.17579
5923.18,0.17511
5900.03,0.17394
5876.89,0.17452
5853.74,0.17062
5830.6,0.17063
5807.45,0.17257
5784.31,0.17042
5761.16,0.17043
5738.02,0.17403
5714.87,0.17397
5691.73,0.17594
5668.58,0.17059
5645.44,0.17424
5622.29,0.17644
5599.15,0.17497
5576,0.17749
5552.86,0.17809
5529.71,0.17834
5506.57,0.17883
5483.42,0.18062
5460.28,0.18098
5437.13,0.18269
5413.99,0.18483
5390.84,0.18447
5367.7,0.18349
5344.55,0.18554
5321.41,0.18087
5298.26,0.17517
5275.12,0.16933
5251.97,0.15864
5228.83,0.15091
5205.68,0.14750
5182.54,0.14739
5159.39,0.14761
5136.25,0.15090
5113.1,0.15187
5089.96,0.15593
5066.81,0.15671
5043.67,0.15985
5020.52,0.16099
4997.38,0.16251
4974.23,0.16158
4951.09,0.16019
4927.94,0.15725
4904.8,0.15311
4881.65,0.15159
4858.51,0.14953
4835.36,0.14889
4812.22,0.14849
4789.07,0.14888
4765.93,0.14675
4742.78,0.14820
4719.64,0.14800
4696.49,0.14760
4673.35,0.14698
4650.2,0.15024
4627.06,0.15129
4603.92,0.15268
4580.77,0.15355
4557.63,0.15469
4534.48,0.15559
4511.34,0.15465
4488.19,0.15378
4465.05,0.14686
4441.9,0.13901
4418.76,0.13566
4395.61,0.13339
4372.47,0.13452
4349.32,0.13146
4326.18,0.12931
4303.03,0.13139
4279.89,0.13097
4256.74,0.12916
4233.6,0.13239
4210.45,0.13442
4187.31,0.13355
4164.16,0.13443
4141.02,0.13260
4117.87,0.13066
4094.73,0.12665
4071.58,0.12294
4048.44,0.11918
4025.29,0.11702
4002.15,0.11702
3979,0.11773
3955.86,0.11974
3932.71,0.12270
3909.57,0.12499
3886.42,0.12877
3863.28,0.13143
3840.13,0.13332
3816.99,0.13417
3793.84,0.13460
3770.7,0.13198
3747.55,0.12984
3724.41,0.12539
3701.26,0.11494
3678.12,0.09079
3654.97,0.07817
3631.83,0.06886
3608.68,0.06130
3585.54,0.05710
3562.39,0.05540
3539.25,0.05290
3516.1,0.05252
3492.96,0.05156
3469.81,0.05165
3446.67,0.05176
3423.52,0.05142
3400.38,0.05189
3377.23,0.05158
3354.09,0.05240
3330.94,0.05231
3307.8,0.05276
3284.65,0.05306
3261.51,0.05395
3238.36,0.05450
3215.22,0.05522
3192.07,0.05635
3168.93,0.05705
3145.78,0.05912
3122.64,0.06025
3099.49,0.06080
3076.35,0.06038
3053.2,0.06146
3030.06,0.06099
3006.91,0.05879
2983.77,0.05551
2960.62,0.05210
2937.48,0.05158
2914.33,0.05543
2891.19,0.05642
2868.04,0.05618
2844.9,0.05945
2821.75,0.06522
2798.61,0.06903
2775.46,0.07160
2752.32,0.07271
2729.17,0.07373
2706.03,0.07577
2682.88,0.07730
2659.74,0.07810
2636.59,0.08011
2613.45,0.08211
2590.3,0.08406
2567.16,0.08331
2544.02,0.08429
2520.87,0.08847
2497.73,0.09161
2474.58,0.09484
2451.44,0.09718
2428.29,0.09887
2405.15,0.10144
2382,0.10374
2358.86,0.10613
2335.71,0.10666
2312.57,0.10836
2289.42,0.10814
2266.28,0.10652
2243.13,0.10469
2219.99,0.10431
2196.84,0.10239
2173.7,0.09875
2150.55,0.09528
2127.41,0.09488
2104.26,0.09581
2081.12,0.09719
2057.97,0.09745
2034.83,0.09850
2011.68,0.10070
1988.54,0.10062
1965.39,0.09957
1942.25,0.10058
1919.1,0.10455
1895.96,0.10463
1872.81,0.10087
1849.67,0.09395
1826.52,0.08681
1803.38,0.07513
1780.23,0.05784
1757.09,0.03822
1733.94,0.04446
1710.8,0.05657
1687.65,0.04605
1664.51,0.04735
1641.36,0.06455
1618.22,0.06345
1595.07,0.05960
1571.93,0.06388
1548.78,0.07301
1525.64,0.06457
1502.49,0.05852
1479.35,0.05483
1456.2,0.04906
1433.06,0.05276
1409.91,0.04887
1386.77,0.04552
1363.62,0.04488
1340.48,0.04063
1317.33,0.03608
1294.19,0.03828
1271.04,0.07791
1247.9,0.06725
1224.75,0.05901
1201.61,0.05415
1178.46,0.04803
1155.32,0.04562
1132.17,0.05030
1109.03,0.05657
1085.88,0.05116
1062.74,0.06938
1039.59,0.06898
1016.45,0.07080
993.304,0.06925
970.159,0.07045
947.014,0.06829
923.869,0.06393
900.724,0.05990
877.579,0.05498
854.434,0.05832
831.289,0.07522
808.144,0.07104
784.999,0.06481
761.854,0.05923
738.709,0.06690
715.565,0.06083
692.42,0.06425
669.275,0.06564
646.13,0.06062
622.985,0.05961
599.84,0.05770

File: Engineered_Wood_Furniture_IS_S_221005_R3.dpt
7497.03,0.17562
7473.89,0.16351
7450.74,0.17233
7427.6,0.17100
7404.45,0.17424
7381.31,0.18550
7358.16,0.17842
7335.02,0.16787
7311.87,0.18120
7288.73,0.16546
7265.58,0.17672
7242.44,0.17033
7219.29,0.16696
7196.15,0.17765
7173,0.16697
7149.86,0.17331
7126.71,0.16814
7103.57,0.17078
7080.42,0.16352
7057.28,0.15905
7034.13,0.16090
7010.99,0.15603
6987.84,0.15599
6964.7,0.15567
6941.55,0.15856
6918.41,0.15786
6895.26,0.15948
6872.12,0.15311
6848.97,0.15820
6825.83,0.15039
6802.68,0.15684
6779.54,0.15467
6756.39,0.15306
6733.25,0.15748
6710.1,0.15897
6686.96,0.15601
6663.82,0.15862
6640.67,0.15557
6617.53,0.16367
6594.38,0.15911
6571.24,0.16513
6548.09,0.16180
6524.95,0.16046
6501.8,0.16214
6478.66,0.16430
6455.51,0.16185
6432.37,0.16167
6409.22,0.16361
6386.08,0.16287
6362.93,0.16497
6339.79,0.16873
6316.64,0.16707
6293.5,0.16704
6270.35,0.16912
6247.21,0.16696
6224.06,0.17186
6200.92,0.17378
6177.77,0.17451
6154.63,0.17619
6131.48,0.17627
6108.34,0.17801
6085.19,0.17752
6062.05,0.17550
6038.9,0.17499
6015.76,0.17302
5992.61,0.17238
5969.47,0.17249
5946.32,0.17346
5923.18,0.17322
5900.03,0.17321
5876.89,0.17147
5853.74,0.17306
5830.6,0.17315
5807.45,0.17057
5784.31,0.16918
5761.16,0.17352
5738.02,0.17393
5714.87,0.17328
5691.73,0.17318
5668.58,0.17401
5645.44,0.17483
5622.29,0.17536
5599.15,0.17751
5576,0.17814
5552.86,0.17771
5529.71,0.17669
5506.57,0.17933
5483.42,0.17824
5460.28,0.17980
5437.13,0.18257
5413.99,0.18249
5390.84,0.18452
5367.7,0.18403
5344.55,0.18311
5321.41,0.18112
5298.26,0.17673
5275.12,0.16743
5251.97,0.15792
5228.83,0.15178
5205.68,0.14705
5182.54,0.14730
5159.39,0.14723
5136.25,0.14916
5113.1,0.15241
5089.96,0.15462
5066.81,0.15554
5043.67,0.15824
5020.52,0.16063
4997.38,0.16175
4974.23,0.16032
4951.09,0.15999
4927.94,0.15639
4904.8,0.15339
4881.65,0.15148
4858.51,0.14956
4835.36,0.14824
4812.22,0.14735
4789.07,0.14726
4765.93,0.14762
4742.78,0.14744
4719.64,0.14714
4696.49,0.14713
4673.35,0.14696
4650.2,0.14892
4627.06,0.14950
4603.92,0.15250
4580.77,0.15352
4557.63,0.15393
4534.48,0.15344
4511.34,0.15516
4488.19,0.15331
4465.05,0.14638
4441.9,0.13801
4418.76,0.13388
4395.61,0.13203
4372.47,0.13334
4349.32,0.13138
4326.18,0.12759
4303.03,0.13025
4279.89,0.13034
4256.74,0.12852
4233.6,0.13289
4210.45,0.13331
4187.31,0.13276
4164.16,0.13420
4141.02,0.13146
4117.87,0.12896
4094.73,0.12653
4071.58,0.12238
4048.44,0.11934
4025.29,0.11709
4002.15,0.11616
3979,0.11744
3955.86,0.11918
3932.71,0.12195
3909.57,0.12531
3886.42,0.12818
3863.28,0.13035
3840.13,0.13309
3816.99,0.13347
3793.84,0.13389
3770.7,0.13114
3747.55,0.12966
3724.41,0.12462
3701.26,0.11470
3678.12,0.09029
3654.97,0.07818
3631.83,0.06861
3608.68,0.06189
3585.54,0.05819
3562.39,0.05464
3539.25,0.05274
3516.1,0.05165
3492.96,0.05075
3469.81,0.05107
3446.67,0.05157
3423.52,0.05132
3400.38,0.05131
3377.23,0.05167
3354.09,0.05124
3330.94,0.05170
3307.8,0.05263
3284.65,0.05261
3261.51,0.05398
3238.36,0.05507
3215.22,0.05530
3192.07,0.05621
3168.93,0.05730
3145.78,0.05831
3122.64,0.05951
3099.49,0.05992
3076.35,0.06038
3053.2,0.06106
3030.06,0.06091
3006.91,0.05800
2983.77,0.05546
2960.62,0.05260
2937.48,0.05165
2914.33,0.05529
2891.19,0.05572
2868.04,0.05573
2844.9,0.05957
2821.75,0.06518
2798.61,0.06890
2775.46,0.07114
2752.32,0.07259
2729.17,0.07267
2706.03,0.07506
2682.88,0.07718
2659.74,0.07776
2636.59,0.07967
2613.45,0.08171
2590.3,0.08332
2567.16,0.08294
2544.02,0.08377
2520.87,0.08793
2497.73,0.09124
2474.58,0.09431
2451.44,0.09672
2428.29,0.09840
2405.15,0.10130
2382,0.10308
2358.86,0.10594
2335.71,0.10622
2312.57,0.10809
2289.42,0.10738
2266.28,0.10606
2243.13,0.10380
2219.99,0.10378
2196.84,0.10203
2173.7,0.09797
2150.55,0.09443
2127.41,0.09456
2104.26,0.09559
2081.12,0.09731
2057.97,0.09688
2034.83,0.09825
2011.68,0.10042
1988.54,0.09977
1965.39,0.09915
1942.25,0.10043
1919.1,0.10380
1895.96,0.10376
1872.81,0.10064
1849.67,0.09325
1826.52,0.08644
1803.38,0.07507
1780.23,0.05752
1757.09,0.03797
1733.94,0.04460
1710.8,0.05643
1687.65,0.04582
1664.51,0.04702
1641.36,0.06446
1618.22,0.06287
1595.07,0.05967
1571.93,0.06353
1548.78,0.07288
1525.64,0.06386
1502.49,0.05807
1479.35,0.05428
1456.2,0.04917
1433.06,0.05265
1409.91,0.04890
1386.77,0.04521
1363.62,0.04483
1340.48,0.04019
1317.33,0.03551
1294.19,0.03769
1271.04,0.07734
1247.9,0.06731
1224.75,0.05880
1201.61,0.05376
1178.46,0.04725
1155.32,0.04574
1132.17,0.04996
1109.03,0.05602
1085.88,0.05143
1062.74,0.06924
1039.59,0.06838
1016.45,0.07028
993.304,0.06903
970.159,0.07029
947.014,0.06781
923.869,0.06406
900.724,0.05951
877.579,0.05424
854.434,0.05842
831.289,0.07433
808.144,0.07132
784.999,0.06452
761.854,0.05881
738.709,0.06720
715.565,0.06209
692.42,0.06365
669.275,0.06496
646.13,0.06044
622.985,0.05702
599.84,0.05709

File: Engineered_Wood_Furniture_IS_S_221005_R5.dpt
7497.03,0.17439
7473.89,0.17148
7450.74,0.17100
7427.6,0.17376
7404.45,0.18085
7381.31,0.17409
7358.16,0.17351
7335.02,0.17409
7311.87,0.16492
7288.73,0.17407
7265.58,0.17276
7242.44,0.16638
7219.29,0.16937
7196.15,0.17272
7173,0.16933
7149.86,0.17093
7126.71,0.17025
7103.57,0.16557
7080.42,0.16417
7057.28,0.16297
7034.13,0.16652
7010.99,0.16055
6987.84,0.16364
6964.7,0.15542
6941.55,0.15170
6918.41,0.16160
6895.26,0.15393
6872.12,0.15797
6848.97,0.15592
6825.83,0.15804
6802.68,0.15974
6779.54,0.16017
6756.39,0.15933
6733.25,0.16070
6710.1,0.15956
6686.96,0.15829
6663.82,0.15542
6640.67,0.15561
6617.53,0.16264
6594.38,0.15836
6571.24,0.16544
6548.09,0.16313
6524.95,0.16273
6501.8,0.16080
6478.66,0.16018
6455.51,0.16283
6432.37,0.16652
6409.22,0.16840
6386.08,0.16429
6362.93,0.16419
6339.79,0.16951
6316.64,0.16497
6293.5,0.16775
6270.35,0.16801
6247.21,0.16983
6224.06,0.17204
6200.92,0.17532
6177.77,0.17512
6154.63,0.17382
6131.48,0.17724
6108.34,0.18146
6085.19,0.17643
6062.05,0.17453
6038.9,0.17358
6015.76,0.17502
5992.61,0.17330
5969.47,0.17486
5946.32,0.17385
5923.18,0.17310
5900.03,0.17400
5876.89,0.17329
5853.74,0.16986
5830.6,0.17072
5807.45,0.16941
5784.31,0.16987
5761.16,0.17291
5738.02,0.17346
5714.87,0.17550
5691.73,0.17541
5668.58,0.17494
5645.44,0.17476
5622.29,0.17546
5599.15,0.17504
5576,0.17827
5552.86,0.17952
5529.71,0.17864
5506.57,0.17860
5483.42,0.18021
5460.28,0.18069
5437.13,0.18292
5413.99,0.18475
5390.84,0.18378
5367.7,0.18402
5344.55,0.18324
5321.41,0.18000
5298.26,0.17681
5275.12,0.16871
5251.97,0.15980
5228.83,0.15295
5205.68,0.14884
5182.54,0.14658
5159.39,0.14849
5136.25,0.15150
5113.1,0.15267
5089.96,0.15587
5066.81,0.15680
5043.67,0.16009
5020.52,0.16106
4997.38,0.16185
4974.23,0.16202
4951.09,0.15967
4927.94,0.15704
4904.8,0.15344
4881.65,0.15029
4858.51,0.14939
4835.36,0.14886
4812.22,0.14854
4789.07,0.14759
4765.93,0.14807
4742.78,0.14874
4719.64,0.14829
4696.49,0.14701
4673.35,0.14712
4650.2,0.14948
4627.06,0.15094
4603.92,0.15227
4580.77,0.15391
4557.63,0.15474
4534.48,0.15599
4511.34,0.15538
4488.19,0.15353
4465.05,0.14709
4441.9,0.13798
4418.76,0.13405
4395.61,0.13426
4372.47,0.13332
4349.32,0.13234
4326.18,0.12985
4303.03,0.13130
4279.89,0.13048
4256.74,0.12847
4233.6,0.13185
4210.45,0.13396
4187.31,0.13422
4164.16,0.13466
4141.02,0.13247
4117.87,0.12999
4094.73,0.12650
4071.58,0.12348
4048.44,0.11913
4025.29,0.11706
4002.15,0.11691
3979,0.11796
3955.86,0.11981
3932.71,0.12256
3909.57,0.12550
3886.42,0.12894
3863.28,0.13094
3840.13,0.13399
3816.99,0.13431
3793.84,0.13478
3770.7,0.13225
3747.55,0.13073
3724.41,0.12580
3701.26,0.11501
3678.12,0.09017
3654.97,0.07827
3631.83,0.06892
3608.68,0.06179
3585.54,0.05863
3562.39,0.05501
3539.25,0.05325
3516.1,0.05217
3492.96,0.05169
3469.81,0.05168
3446.67,0.05126
3423.52,0.05155
3400.38,0.05093
3377.23,0.05107
3354.09,0.05147
3330.94,0.05207
3307.8,0.05212
3284.65,0.05220
3261.51,0.05317
3238.36,0.05447
3215.22,0.05591
3192.07,0.05681
3168.93,0.05718
3145.78,0.05842
3122.64,0.05983
3099.49,0.06021
3076.35,0.06016
3053.2,0.06188
3030.06,0.06090
3006.91,0.05895
2983.77,0.05560
2960.62,0.05287
2937.48,0.05187
2914.33,0.05550
2891.19,0.05565
2868.04,0.05602
2844.9,0.05958
2821.75,0.06531
2798.61,0.06900
2775.46,0.07124
2752.32,0.07231
2729.17,0.07318
2706.03,0.07585
2682.88,0.07693
2659.74,0.07834
2636.59,0.07951
2613.45,0.08202
2590.3,0.08383
2567.16,0.08342
2544.02,0.08391
2520.87,0.08835
2497.73,0.09131
2474.58,0.09522
2451.44,0.09713
2428.29,0.09896
2405.15,0.10132
2382,0.10390
2358.86,0.10606
2335.71,0.10679
2312.57,0.10807
2289.42,0.10825
2266.28,0.10650
2243.13,0.10473
2219.99,0.10419
2196.84,0.10254
2173.7,0.09890
2150.55,0.09490
2127.41,0.09472
2104.26,0.09593
2081.12,0.09725
2057.97,0.09770
2034.83,0.09882
2011.68,0.10096
1988.54,0.10035
1965.39,0.09984
1942.25,0.10108
1919.1,0.10424
1895.96,0.10443
1872.81,0.10114
1849.67,0.09354
1826.52,0.08701
1803.38,0.07481
1780.23,0.05769
1757.09,0.03811
1733.94,0.04443
1710.8,0.05684
1687.65,0.04598
1664.51,0.04740
1641.36,0.06472
1618.22,0.06300
1595.07,0.05953
1571.93,0.06410
1548.78,0.07311
1525.64,0.06428
1502.49,0.05860
1479.35,0.05477
1456.2,0.04917
1433.06,0.05254
1409.91,0.04890
1386.77,0.04534
1363.62,0.04503
1340.48,0.04041
1317.33,0.03585
1294.19,0.03763
1271.04,0.07740
1247.9,0.06703
1224.75,0.05815
1201.61,0.05410
1178.46,0.04701
1155.32,0.04551
1132.17,0.04978
1109.03,0.05644
1085.88,0.05167
1062.74,0.06894
1039.59,0.06931
1016.45,0.07145
993.304,0.06928
970.159,0.07045
947.014,0.06861
923.869,0.06413
900.724,0.05919
877.579,0.05468
854.434,0.05873
831.289,0.07476
808.144,0.07194
784.999,0.06496
761.854,0.05841
738.709,0.06810
715.565,0.06151
692.42,0.06400
669.275,0.06621
646.13,0.06017
622.985,0.05988
599.84,0.05911