Folder: fsri_materials_database/01_Data/Engineered_Wood_Furniture/FTIR/IS (part 2)

File: Engineered_Wood_Furniture_IS_S_221005_R6.dpt
7497.03,0.17958
7473.89,0.17798
7450.74,0.17358
7427.6,0.17467
7404.45,0.17193
7381.31,0.17371
7358.16,0.17709
7335.02,0.18459
7311.87,0.17463
7288.73,0.17685
7265.58,0.17557
7242.44,0.16876
7219.29,0.17487
7196.15,0.17311
7173,0.17633
7149.86,0.17330
7126.71,0.17024
7103.57,0.16371
7080.42,0.16636
7057.28,0.15926
7034.13,0.16115
7010.99,0.15754
6987.84,0.15811
6964.7,0.16171
6941.55,0.15830
6918.41,0.15154
6895.26,0.15371
6872.12,0.15597
6848.97,0.15827
6825.83,0.15914
6802.68,0.15841
6779.54,0.15523
6756.39,0.15622
6733.25,0.15720
6710.1,0.15769
6686.96,0.16021
6663.82,0.15541
6640.67,0.16008
6617.53,0.15681
6594.38,0.16473
6571.24,0.16104
6548.09,0.16280
6524.95,0.16125
6501.8,0.16383
6478.66,0.16316
6455.51,0.16388
6432.37,0.16650
6409.22,0.16680
6386.08,0.16934
6362.93,0.17336
6339.79,0.16416
6316.64,0.16989
6293.5,0.16768
6270.35,0.17161
6247.21,0.17128
6224.06,0.17574
6200.92,0.17373
6177.77,0.17530
6154.63,0.17516
6131.48,0.17806
6108.34,0.17533
6085.19,0.17737
6062.05,0.17717
6038.9,0.17383
6015.76,0.17478
5992.61,0.17443
5969.47,0.17003
5946.32,0.17514
5923.18,0.17078
5900.03,0.17563
5876.89,0.17498
5853.74,0.17224
5830.6,0.17190
5807.45,0.17162
5784.31,0.17266
5761.16,0.17353
5738.02,0.17605
5714.87,0.17471
5691.73,0.17583
5668.58,0.17713
5645.44,0.17675
5622.29,0.17661
5599.15,0.17833
5576,0.17681
5552.86,0.17911
5529.71,0.18094
5506.57,0.17784
5483.42,0.18138
5460.28,0.18195
5437.13,0.18408
5413.99,0.18319
5390.84,0.18551
5367.7,0.18702
5344.55,0.18387
5321.41,0.17976
5298.26,0.17591
5275.12,0.16920
5251.97,0.15878
5228.83,0.15343
5205.68,0.14876
5182.54,0.14807
5159.39,0.14979
5136.25,0.15141
5113.1,0.15367
5089.96,0.15543
5066.81,0.15834
5043.67,0.16044
5020.52,0.16212
4997.38,0.16372
4974.23,0.16186
4951.09,0.16038
4927.94,0.15834
4904.8,0.15415
4881.65,0.15222
4858.51,0.15007
4835.36,0.14883
4812.22,0.14857
4789.07,0.14894
4765.93,0.14810
4742.78,0.14905
4719.64,0.14765
4696.49,0.14820
4673.35,0.14720
4650.2,0.15009
4627.06,0.15196
4603.92,0.15395
4580.77,0.15455
4557.63,0.15516
4534.48,0.15582
4511.34,0.15625
4488.19,0.15393
4465.05,0.14650
4441.9,0.13884
4418.76,0.13478
4395.61,0.13384
4372.47,0.13386
4349.32,0.13165
4326.18,0.12855
4303.03,0.13166
4279.89,0.13031
4256.74,0.12929
4233.6,0.13311
4210.45,0.13390
4187.31,0.13408
4164.16,0.13425
4141.02,0.13314
4117.87,0.13035
4094.73,0.12733
4071.58,0.12331
4048.44,0.11970
4025.29,0.11794
4002.15,0.11760
3979,0.11909
3955.86,0.12018
3932.71,0.12352
3909.57,0.12608
3886.42,0.12854
3863.28,0.13117
3840.13,0.13483
3816.99,0.13517
3793.84,0.13478
3770.7,0.13323
3747.55,0.13089
3724.41,0.12529
3701.26,0.11629
3678.12,0.09123
3654.97,0.07864
3631.83,0.07031
3608.68,0.06195
3585.54,0.05785
3562.39,0.05522
3539.25,0.05361
3516.1,0.05191
3492.96,0.05184
3469.81,0.05140
3446.67,0.05098
3423.52,0.05175
3400.38,0.05112
3377.23,0.05153
3354.09,0.05102
3330.94,0.05194
3307.8,0.05166
3284.65,0.05337
3261.51,0.05372
3238.36,0.05473
3215.22,0.05537
3192.07,0.05654
3168.93,0.05828
3145.78,0.05825
3122.64,0.05918
3099.49,0.06014
3076.35,0.06044
3053.2,0.06137
3030.06,0.06097
3006.91,0.05858
2983.77,0.05575
2960.62,0.05226
2937.48,0.05196
2914.33,0.05553
2891.19,0.05567
2868.04,0.05594
2844.9,0.05940
2821.75,0.06496
2798.61,0.06910
2775.46,0.07164
2752.32,0.07237
2729.17,0.07327
2706.03,0.07597
2682.88,0.07745
2659.74,0.07850
2636.59,0.07975
2613.45,0.08189
2590.3,0.08373
2567.16,0.08359
2544.02,0.08424
2520.87,0.08801
2497.73,0.09118
2474.58,0.09536
2451.44,0.09718
2428.29,0.09908
2405.15,0.10181
2382,0.10400
2358.86,0.10624
2335.71,0.10727
2312.57,0.10876
2289.42,0.10848
2266.28,0.10705
2243.13,0.10521
2219.99,0.10430
2196.84,0.10293
2173.7,0.09889
2150.55,0.09532
2127.41,0.09513
2104.26,0.09612
2081.12,0.09809
2057.97,0.09808
2034.83,0.09940
2011.68,0.10088
1988.54,0.10109
1965.39,0.09988
1942.25,0.10158
1919.1,0.10478
1895.96,0.10446
1872.81,0.10144
1849.67,0.09395
1826.52,0.08691
1803.38,0.07524
1780.23,0.05737
1757.09,0.03782
1733.94,0.04438
1710.8,0.05690
1687.65,0.04595
1664.51,0.04743
1641.36,0.06528
1618.22,0.06322
1595.07,0.05966
1571.93,0.06403
1548.78,0.07329
1525.64,0.06414
1502.49,0.05882
1479.35,0.05474
1456.2,0.04922
1433.06,0.05261
1409.91,0.04954
1386.77,0.04545
1363.62,0.04485
1340.48,0.04055
1317.33,0.03600
1294.19,0.03790
1271.04,0.07758
1247.9,0.06733
1224.75,0.05940
1201.61,0.05462
1178.46,0.04773
1155.32,0.04556
1132.17,0.05006
1109.03,0.05586
1085.88,0.05149
1062.74,0.06934
1039.59,0.06908
1016.45,0.07111
993.304,0.06912
970.159,0.07034
947.014,0.06861
923.869,0.06389
900.724,0.06061
877.579,0.05409
854.434,0.05778
831.289,0.07485
808.144,0.07161
784.999,0.06581
761.854,0.05885
738.709,0.06777
715.565,0.06161
692.42,0.06448
669.275,0.06581
646.13,0.06037
622.985,0.05823
599.84,0.05826

File: Engineered_Wood_Furniture_IS_S_221005_R7.dpt
7497.03,0.17859
7473.89,0.18554
7450.74,0.16884
7427.6,0.17590
7404.45,0.17356
7381.31,0.17337
7358.16,0.17835
7335.02,0.17053
7311.87,0.17105
7288.73,0.17535
7265.58,0.17412
7242.44,0.17824
7219.29,0.16991
7196.15,0.17193
7173,0.16871
7149.86,0.17215
7126.71,0.17620
7103.57,0.16480
7080.42,0.16675
7057.28,0.16397
7034.13,0.16549
7010.99,0.16108
6987.84,0.15408
6964.7,0.16337
6941.55,0.15678
6918.41,0.15682
6895.26,0.16212
6872.12,0.15563
6848.97,0.15666
6825.83,0.15751
6802.68,0.15938
6779.54,0.16035
6756.39,0.15967
6733.25,0.15849
6710.1,0.15281
6686.96,0.15920
6663.82,0.16025
6640.67,0.15878
6617.53,0.16201
6594.38,0.15552
6571.24,0.16026
6548.09,0.16218
6524.95,0.16856
6501.8,0.16747
6478.66,0.16798
6455.51,0.16246
6432.37,0.16370
6409.22,0.16654
6386.08,0.16697
6362.93,0.16581
6339.79,0.17278
6316.64,0.16745
6293.5,0.16757
6270.35,0.16836
6247.21,0.16860
6224.06,0.17310
6200.92,0.17132
6177.77,0.17340
6154.63,0.17317
6131.48,0.17640
6108.34,0.17580
6085.19,0.17818
6062.05,0.17543
6038.9,0.17760
6015.76,0.17434
5992.61,0.17480
5969.47,0.17310
5946.32,0.17421
5923.18,0.17260
5900.03,0.17393
5876.89,0.17093
5853.74,0.17009
5830.6,0.17300
5807.45,0.17091
5784.31,0.17079
5761.16,0.17249
5738.02,0.17512
5714.87,0.17522
5691.73,0.17580
5668.58,0.17545
5645.44,0.17613
5622.29,0.17676
5599.15,0.17682
5576,0.17863
5552.86,0.17862
5529.71,0.18168
5506.57,0.17940
5483.42,0.18176
5460.28,0.18131
5437.13,0.18388
5413.99,0.18402
5390.84,0.18488
5367.7,0.18538
5344.55,0.18472
5321.41,0.18419
5298.26,0.17874
5275.12,0.16825
5251.97,0.15971
5228.83,0.15268
5205.68,0.14918
5182.54,0.14855
5159.39,0.14960
5136.25,0.15265
5113.1,0.15459
5089.96,0.15581
5066.81,0.15857
5043.67,0.16134
5020.52,0.16231
4997.38,0.16368
4974.23,0.16336
4951.09,0.16039
4927.94,0.15849
4904.8,0.15317
4881.65,0.15210
4858.51,0.14970
4835.36,0.14985
4812.22,0.14914
4789.07,0.14888
4765.93,0.14812
4742.78,0.14945
4719.64,0.14791
4696.49,0.14705
4673.35,0.14808
4650.2,0.14995
4627.06,0.15157
4603.92,0.15312
4580.77,0.15496
4557.63,0.15625
4534.48,0.15626
4511.34,0.15675
4488.19,0.15415
4465.05,0.14811
4441.9,0.13993
4418.76,0.13493
4395.61,0.13384
4372.47,0.13351
4349.32,0.13178
4326.18,0.12921
4303.03,0.13188
4279.89,0.13077
4256.74,0.12933
4233.6,0.13426
4210.45,0.13436
4187.31,0.13454
4164.16,0.13500
4141.02,0.13309
4117.87,0.13145
4094.73,0.12833
4071.58,0.12359
4048.44,0.11995
4025.29,0.11774
4002.15,0.11772
3979,0.11884
3955.86,0.12063
3932.71,0.12353
3909.57,0.12682
3886.42,0.12935
3863.28,0.13229
3840.13,0.13510
3816.99,0.13540
3793.84,0.13517
3770.7,0.13381
3747.55,0.13116
3724.41,0.12674
3701.26,0.11633
3678.12,0.09164
3654.97,0.07949
3631.83,0.06924
3608.68,0.06294
3585.54,0.05902
3562.39,0.05511
3539.25,0.05331
3516.1,0.05237
3492.96,0.05146
3469.81,0.05220
3446.67,0.05137
3423.52,0.05149
3400.38,0.05205
3377.23,0.05140
3354.09,0.05163
3330.94,0.05202
3307.8,0.05276
3284.65,0.05261
3261.51,0.05423
3238.36,0.05497
3215.22,0.05599
3192.07,0.05648
3168.93,0.05801
3145.78,0.05908
3122.64,0.06006
3099.49,0.06073
3076.35,0.06060
3053.2,0.06128
3030.06,0.06086
3006.91,0.05883
2983.77,0.05558
2960.62,0.05307
2937.48,0.05136
2914.33,0.05542
2891.19,0.05644
2868.04,0.05597
2844.9,0.05941
2821.75,0.06545
2798.61,0.06939
2775.46,0.07168
2752.32,0.07326
2729.17,0.07366
2706.03,0.07602
2682.88,0.07751
2659.74,0.07866
2636.59,0.08044
2613.45,0.08205
2590.3,0.08432
2567.16,0.08326
2544.02,0.08390
2520.87,0.08843
2497.73,0.09161
2474.58,0.09552
2451.44,0.09724
2428.29,0.09950
2405.15,0.10217
2382,0.10403
2358.86,0.10632
2335.71,0.10740
2312.57,0.10905
2289.42,0.10847
2266.28,0.10754
2243.13,0.10548
2219.99,0.10485
2196.84,0.10310
2173.7,0.09968
2150.55,0.09575
2127.41,0.09521
2104.26,0.09702
2081.12,0.09844
2057.97,0.09843
2034.83,0.09980
2011.68,0.10169
1988.54,0.10101
1965.39,0.10011
1942.25,0.10168
1919.1,0.10524
1895.96,0.10517
1872.81,0.10195
1849.67,0.09365
1826.52,0.08742
1803.38,0.07544
1780.23,0.05751
1757.09,0.03835
1733.94,0.04452
1710.8,0.05700
1687.65,0.04598
1664.51,0.04746
1641.36,0.06470
1618.22,0.06368
1595.07,0.05977
1571.93,0.06376
1548.78,0.07334
1525.64,0.06492
1502.49,0.05894
1479.35,0.05475
1456.2,0.04935
1433.06,0.05273
1409.91,0.04951
1386.77,0.04565
1363.62,0.04513
1340.48,0.04072
1317.33,0.03583
1294.19,0.03780
1271.04,0.07824
1247.9,0.06744
1224.75,0.05907
1201.61,0.05409
1178.46,0.04809
1155.32,0.04611
1132.17,0.05016
1109.03,0.05631
1085.88,0.05165
1062.74,0.06922
1039.59,0.06874
1016.45,0.07132
993.304,0.06964
970.159,0.07057
947.014,0.06844
923.869,0.06444
900.724,0.06004
877.579,0.05488
854.434,0.05842
831.289,0.07478
808.144,0.07182
784.999,0.06465
761.854,0.05926
738.709,0.06726
715.565,0.06057
692.42,0.06369
669.275,0.06596
646.13,0.05932
622.985,0.05804
599.84,0.05859

File: Engineered_Wood_Furniture_IS_S_221005_R8.dpt
7497.03,0.17879
7473.89,0.17979
7450.74,0.17656
7427.6,0.17308
7404.45,0.17950
7381.31,0.17551
7358.16,0.17356
7335.02,0.18050
7311.87,0.18026
7288.73,0.17238
7265.58,0.16251
7242.44,0.17626
7219.29,0.17347
7196.15,0.17256
7173,0.17054
7149.86,0.17151
7126.71,0.17097
7103.57,0.17376
7080.42,0.16388
7057.28,0.16125
7034.13,0.16625
7010.99,0.15761
6987.84,0.16083
6964.7,0.16110
6941.55,0.16083
6918.41,0.16315
6895.26,0.15744
6872.12,0.15505
6848.97,0.15968
6825.83,0.15218
6802.68,0.15840
6779.54,0.15608
6756.39,0.16066
6733.25,0.15926
6710.1,0.15892
6686.96,0.16014
6663.82,0.15967
6640.67,0.16287
6617.53,0.15753
6594.38,0.16642
6571.24,0.16025
6548.09,0.15918
6524.95,0.16229
6501.8,0.16499
6478.66,0.16629
6455.51,0.16545
6432.37,0.16524
6409.22,0.16469
6386.08,0.16612
6362.93,0.16785
6339.79,0.16721
6316.64,0.17222
6293.5,0.16828
6270.35,0.17094
6247.21,0.17097
6224.06,0.17111
6200.92,0.17021
6177.77,0.17278
6154.63,0.17522
6131.48,0.17515
6108.34,0.17979
6085.19,0.17699
6062.05,0.17503
6038.9,0.17471
6015.76,0.17410
5992.61,0.17342
5969.47,0.17300
5946.32,0.17220
5923.18,0.17503
5900.03,0.17384
5876.89,0.17370
5853.74,0.17182
5830.6,0.17078
5807.45,0.17126
5784.31,0.16995
5761.16,0.17289
5738.02,0.17179
5714.87,0.17383
5691.73,0.17382
5668.58,0.17562
5645.44,0.17514
5622.29,0.17774
5599.15,0.17711
5576,0.17776
5552.86,0.17774
5529.71,0.17733
5506.57,0.18067
5483.42,0.18051
5460.28,0.18157
5437.13,0.18125
5413.99,0.18392
5390.84,0.18483
5367.7,0.18291
5344.55,0.18464
5321.41,0.18103
5298.26,0.17605
5275.12,0.16789
5251.97,0.15859
5228.83,0.15309
5205.68,0.14919
5182.54,0.14856
5159.39,0.14890
5136.25,0.15129
5113.1,0.15425
5089.96,0.15428
5066.81,0.15846
5043.67,0.15903
5020.52,0.16186
4997.38,0.16232
4974.23,0.16192
4951.09,0.15994
4927.94,0.15616
4904.8,0.15460
4881.65,0.15151
4858.51,0.15036
4835.36,0.14957
4812.22,0.14752
4789.07,0.14789
4765.93,0.14669
4742.78,0.14876
4719.64,0.14736
4696.49,0.14664
4673.35,0.14684
4650.2,0.14957
4627.06,0.15036
4603.92,0.15218
4580.77,0.15371
4557.63,0.15507
4534.48,0.15421
4511.34,0.15540
4488.19,0.15368
4465.05,0.14676
4441.9,0.13753
4418.76,0.13475
4395.61,0.13267
4372.47,0.13272
4349.32,0.13170
4326.18,0.12869
4303.03,0.13057
4279.89,0.13035
4256.74,0.12932
4233.6,0.13248
4210.45,0.13387
4187.31,0.13381
4164.16,0.13450
4141.02,0.13221
4117.87,0.13087
4094.73,0.12673
4071.58,0.12304
4048.44,0.11941
4025.29,0.11742
4002.15,0.11700
3979,0.11743
3955.86,0.12009
3932.71,0.12227
3909.57,0.12555
3886.42,0.12875
3863.28,0.13167
3840.13,0.13432
3816.99,0.13409
3793.84,0.13417
3770.7,0.13341
3747.55,0.13026
3724.41,0.12593
3701.26,0.11599
3678.12,0.09116
3654.97,0.07926
3631.83,0.06885
3608.68,0.06180
3585.54,0.05796
3562.39,0.05478
3539.25,0.05222
3516.1,0.05201
3492.96,0.05166
3469.81,0.05113
3446.67,0.05049
3423.52,0.05142
3400.38,0.05131
3377.23,0.05089
3354.09,0.05143
3330.94,0.05219
3307.8,0.05280
3284.65,0.05256
3261.51,0.05371
3238.36,0.05463
3215.22,0.05531
3192.07,0.05666
3168.93,0.05769
3145.78,0.05944
3122.64,0.05909
3099.49,0.06050
3076.35,0.06026
3053.2,0.06166
3030.06,0.06118
3006.91,0.05898
2983.77,0.05531
2960.62,0.05241
2937.48,0.05163
2914.33,0.05598
2891.19,0.05587
2868.04,0.05535
2844.9,0.05912
2821.75,0.06500
2798.61,0.06865
2775.46,0.07105
2752.32,0.07241
2729.17,0.07366
2706.03,0.07583
2682.88,0.07693
2659.74,0.07839
2636.59,0.08001
2613.45,0.08187
2590.3,0.08356
2567.16,0.08302
2544.02,0.08372
2520.87,0.08819
2497.73,0.09128
2474.58,0.09509
2451.44,0.09731
2428.29,0.09892
2405.15,0.10151
2382,0.10399
2358.86,0.10616
2335.71,0.10739
2312.57,0.10855
2289.42,0.10807
2266.28,0.10679
2243.13,0.10503
2219.99,0.10417
2196.84,0.10270
2173.7,0.09875
2150.55,0.09531
2127.41,0.09501
2104.26,0.09595
2081.12,0.09798
2057.97,0.09827
2034.83,0.09880
2011.68,0.10112
1988.54,0.10066
1965.39,0.10012
1942.25,0.10118
1919.1,0.10468
1895.96,0.10486
1872.81,0.10112
1849.67,0.09369
1826.52,0.08706
1803.38,0.07529
1780.23,0.05755
1757.09,0.03827
1733.94,0.04440
1710.8,0.05622
1687.65,0.04590
1664.51,0.04715
1641.36,0.06452
1618.22,0.06296
1595.07,0.05942
1571.93,0.06392
1548.78,0.07275
1525.64,0.06387
1502.49,0.05825
1479.35,0.05463
1456.2,0.04913
1433.06,0.05252
1409.91,0.04852
1386.77,0.04541
1363.62,0.04521
1340.48,0.04061
1317.33,0.03574
1294.19,0.03793
1271.04,0.07745
1247.9,0.06721
1224.75,0.05873
1201.61,0.05433
1178.46,0.04804
1155.32,0.04554
1132.17,0.04970
1109.03,0.05611
1085.88,0.05138
1062.74,0.06910
1039.59,0.06874
1016.45,0.07108
993.304,0.06929
970.159,0.07029
947.014,0.06828
923.869,0.06339
900.724,0.06019
877.579,0.05432
854.434,0.05847
831.289,0.07505
808.144,0.07084
784.999,0.06452
761.854,0.05907
738.709,0.06717
715.565,0.06144
692.42,0.06428
669.275,0.06526
646.13,0.06024
622.985,0.05773
599.84,0.05724

File: Engineered_Wood_Furniture_IS_T_221005_R3.dpt
7497.03,0.02467
7473.89,0.02929
7450.74,0.01868
7427.6,0.02637
7404.45,0.03238
7381.31,0.02991
7358.16,0.03279
7335.02,0.02887
7311.87,0.02602
7288.73,0.02982
7265.58,0.02113
7242.44,0.02870
7219.29,0.02548
7196.15,0.02998
7173,0.03334
7149.86,0.02748
7126.71,0.01773
7103.57,0.02384
7080.42,0.01891
7057.28,0.02756
7034.13,0.01365
7010.99,0.02890
6987.84,0.02505
6964.7,0.02569
6941.55,0.02497
6918.41,0.02455
6895.26,0.02459
6872.12,0.02226
6848.97,0.02288
6825.83,0.02059
6802.68,0.02230
6779.54,0.02456
6756.39,0.02306
6733.25,0.01962
6710.1,0.02317
6686.96,0.02475
6663.82,0.01758
6640.67,0.02132
6617.53,0.02111
6594.38,0.01916
6571.24,0.02106
6548.09,0.02489
6524.95,0.02191
6501.8,0.02140
6478.66,0.02033
6455.51,0.02170
6432.37,0.01852
6409.22,0.02008
6386.08,0.02252
6362.93,0.01746
6339.79,0.02260
6316.64,0.02657
6293.5,0.02414
6270.35,0.02095
6247.21,0.02118
6224.06,0.02216
6200.92,0.02041
6177.77,0.02124
6154.63,0.01960
6131.48,0.02107
6108.34,0.02268
6085.19,0.02224
6062.05,0.02433
6038.9,0.02139
6015.76,0.02375
5992.61,0.02175
5969.47,0.01963
5946.32,0.01998
5923.18,0.02179
5900.03,0.02053
5876.89,0.02181
5853.74,0.01925
5830.6,0.02207
5807.45,0.02110
5784.31,0.02211
5761.16,0.02339
5738.02,0.02345
5714.87,0.02274
5691.73,0.02076
5668.58,0.02134
5645.44,0.02092
5622.29,0.02129
5599.15,0.02280
5576,0.02139
5552.86,0.02173
5529.71,0.02176
5506.57,0.02155
5483.42,0.02243
5460.28,0.02211
5437.13,0.02200
5413.99,0.02306
5390.84,0.02166
5367.7,0.02281
5344.55,0.02318
5321.41,0.02232
5298.26,0.02048
5275.12,0.02261
5251.97,0.02180
5228.83,0.02173
5205.68,0.02107
5182.54,0.02256
5159.39,0.02243
5136.25,0.02187
5113.1,0.02115
5089.96,0.02202
5066.81,0.02363
5043.67,0.02239
5020.52,0.02151
4997.38,0.02164
4974.23,0.02153
4951.09,0.02198
4927.94,0.02180
4904.8,0.02253
4881.65,0.02288
4858.51,0.02277
4835.36,0.02230
4812.22,0.02171
4789.07,0.02249
4765.93,0.02272
4742.78,0.02216
4719.64,0.02263
4696.49,0.02167
4673.35,0.02219
4650.2,0.02198
4627.06,0.02261
4603.92,0.02137
4580.77,0.02222
4557.63,0.02246
4534.48,0.02146
4511.34,0.02166
4488.19,0.02304
4465.05,0.02197
4441.9,0.02245
4418.76,0.02193
4395.61,0.02240
4372.47,0.02231
4349.32,0.02312
4326.18,0.02312
4303.03,0.02210
4279.89,0.02238
4256.74,0.02296
4233.6,0.02272
4210.45,0.02219
4187.31,0.02231
4164.16,0.02272
4141.02,0.02246
4117.87,0.02229
4094.73,0.02239
4071.58,0.02237
4048.44,0.02262
4025.29,0.02292
4002.15,0.02280
3979,0.02252
3955.86,0.02244
3932.71,0.02256
3909.57,0.02275
3886.42,0.02250
3863.28,0.02224
3840.13,0.02341
3816.99,0.02271
3793.84,0.02241
3770.7,0.02253
3747.55,0.02302
3724.41,0.02199
3701.26,0.02189
3678.12,0.02286
3654.97,0.02199
3631.83,0.02200
3608.68,0.02238
3585.54,0.02179
3562.39,0.02144
3539.25,0.02053
3516.1,0.02139
3492.96,0.02075
3469.81,0.02069
3446.67,0.02008
3423.52,0.02051
3400.38,0.02031
3377.23,0.02124
3354.09,0.02074
3330.94,0.02074
3307.8,0.02064
3284.65,0.01979
3261.51,0.02052
3238.36,0.02028
3215.22,0.02078
3192.07,0.02062
3168.93,0.02080
3145.78,0.02088
3122.64,0.02086
3099.49,0.02036
3076.35,0.02100
3053.2,0.02059
3030.06,0.02089
3006.91,0.02044
2983.77,0.01981
2960.62,0.01974
2937.48,0.01940
2914.33,0.02029
2891.19,0.02029
2868.04,0.02092
2844.9,0.02100
2821.75,0.02113
2798.61,0.02144
2775.46,0.02095
2752.32,0.02105
2729.17,0.02128
2706.03,0.02112
2682.88,0.02134
2659.74,0.02097
2636.59,0.02152
2613.45,0.02167
2590.3,0.02128
2567.16,0.02091
2544.02,0.02120
2520.87,0.02105
2497.73,0.02131
2474.58,0.02127
2451.44,0.02117
2428.29,0.02132
2405.15,0.02147
2382,0.02127
2358.86,0.02160
2335.71,0.02131
2312.57,0.02116
2289.42,0.02098
2266.28,0.02096
2243.13,0.02104
2219.99,0.02099
2196.84,0.02110
2173.7,0.02103
2150.55,0.02094
2127.41,0.02120
2104.26,0.02038
2081.12,0.02088
2057.97,0.02104
2034.83,0.02091
2011.68,0.02075
1988.54,0.02116
1965.39,0.02092
1942.25,0.02057
1919.1,0.02061
1895.96,0.02064
1872.81,0.02061
1849.67,0.02008
1826.52,0.01974
1803.38,0.01962
1780.23,0.01937
1757.09,0.01759
1733.94,0.01986
1710.8,0.02069
1687.65,0.01931
1664.51,0.01862
1641.36,0.01901
1618.22,0.01899
1595.07,0.01910
1571.93,0.01855
1548.78,0.01834
1525.64,0.01895
1502.49,0.01840
1479.35,0.01884
1456.2,0.01895
1433.06,0.01872
1409.91,0.01832
1386.77,0.01840
1363.62,0.01838
1340.48,0.01829
1317.33,0.01688
1294.19,0.01798
1271.04,0.01966
1247.9,0.01980
1224.75,0.01930
1201.61,0.01811
1178.46,0.01783
1155.32,0.01767
1132.17,0.01807
1109.03,0.01866
1085.88,0.01894
1062.74,0.01996
1039.59,0.01943
1016.45,0.01919
993.304,0.02070
970.159,0.02052
947.014,0.02011
923.869,0.01911
900.724,0.01927
877.579,0.01922
854.434,0.01882
831.289,0.01926
808.144,0.01943
784.999,0.01871
761.854,0.01788
738.709,0.01822
715.565,0.01757
692.42,0.01778
669.275,0.01781
646.13,0.01676
622.985,0.01573
599.84,0.01680