Folder: fsri_materials_database/01_Data/Laminate_Flooring/FTIR/IS

Note: README.md
# Materials and Products Database
### Repository of materials and products properties and fire test data to improve fire modeling and fire investigation.

This project was supported in part by Award No. 2019-DU-BX-0018, awarded by the National Institute of Justice, Office of Justice Programs, U.S. Department of Justice. The opinions, findings, and conclusions or recommendations expressed in this publication / program / exhibition are those of the author(s) and do not necessarily reflect those of the Department of Justice.

***
***

__Cite this database:__ "McKinnon, M., Weinschenk, C., Dow, N., DiDomizio, M., and Madrzykowski, D. Materials and Products Database (Version 1.0.0), Fire Safety Research Institute, UL Research Institutes. Columbia, MD 21045, 2023."

__Cite the Technical Reference Guide:__ "McKinnon, M., Weinschenk, C., and Madrzykowski, D. Materials and Products Database - Technical Reference Guide, Fire Safety Research Institute, UL Research Institutes. Columbia, MD 21045, 2023."

__Cite the User Guide:__ "McKinnon, M., and Weinschenk, C. Materials and Products Database - User Guide, Fire Safety Research Institute, UL Research Institutes. Columbia, MD 21045, 2023."

***
***

## Database Structure

## 01_Data/
Raw data generated from each apparatus are included here in plain-text format. The data is organized first by material, next by the short name of test apparatus used, and where applicable additional filtering by test settings.

### Test Apparatus and Data File Structure
- __Cone Calorimeter__ (Cone)
    + Data file structure includes the material, the short name for the apparatus, heat flux setting and scan/scalar, date of test, and replicate number. Scan is for the raw output data and scalar is for the initial conditions and high-level test parameters. 
        * Example: __MDF_Cone_HF25scalar_210323_R1__ stands for the first replicate of scalar data generated from a medium density fiber board test in cone calorimeter exposed to 25 kW/m<sup>2</sup> on March 23, 2021.
    + A _Cone_Notes.csv_ is generated for each material from the __plot_Cone_data.py__ script. For materials whose experiments deviated from typical behavior relevant pictures are included in the respective material directory.
- __Fourier Transform Infrared Spectrometer__ (FTIR)
    + The FTIR directory contains subdirectories for the Attenuated Total Reflectance method (ATR) and the Integrating Sphere (IS)
    + Data file structure for the ATR experiment files includes the material, the abbreviated name for the apparatus, date of test, and replicate number. 
        * Example: __MDF_ATR_210323_R5__ stands for the fifth replicate of data collected with the ATR accessory conducted on June 8, 2021.
    + Data file structure for the IS experiment files includes the material, the abbreviated name for the apparatus, the measurand, whether the test is a sample measurement or standard reference, date of test, and replicate number.
        * Example: __OSB_IS_REFLECT_MEAS_2

File: Laminate_Flooring_IS_S_221003_R1.dpt
7497.03,0.60081
7473.89,0.59692
7450.74,0.60262
7427.6,0.60505
7404.45,0.60701
7381.31,0.60119
7358.16,0.60317
7335.02,0.60080
7311.87,0.59659
7288.73,0.60154
7265.58,0.60494
7242.44,0.60354
7219.29,0.59745
7196.15,0.60327
7173,0.61075
7149.86,0.60369
7126.71,0.60078
7103.57,0.60400
7080.42,0.60883
7057.28,0.60940
7034.13,0.59863
7010.99,0.60437
6987.84,0.61488
6964.7,0.60817
6941.55,0.61047
6918.41,0.61400
6895.26,0.61432
6872.12,0.60661
6848.97,0.61617
6825.83,0.61042
6802.68,0.61973
6779.54,0.61273
6756.39,0.61710
6733.25,0.61425
6710.1,0.62111
6686.96,0.62173
6663.82,0.62242
6640.67,0.62266
6617.53,0.62184
6594.38,0.61799
6571.24,0.61741
6548.09,0.62275
6524.95,0.62680
6501.8,0.62338
6478.66,0.62443
6455.51,0.62810
6432.37,0.62840
6409.22,0.62543
6386.08,0.62861
6362.93,0.62793
6339.79,0.62953
6316.64,0.62940
6293.5,0.63056
6270.35,0.62945
6247.21,0.63241
6224.06,0.63061
6200.92,0.63492
6177.77,0.63199
6154.63,0.63196
6131.48,0.63203
6108.34,0.63859
6085.19,0.63598
6062.05,0.63768
6038.9,0.63818
6015.76,0.63884
5992.61,0.63943
5969.47,0.64173
5946.32,0.64132
5923.18,0.64383
5900.03,0.64120
5876.89,0.64067
5853.74,0.64453
5830.6,0.64403
5807.45,0.64464
5784.31,0.64471
5761.16,0.64603
5738.02,0.64519
5714.87,0.64649
5691.73,0.64694
5668.58,0.64811
5645.44,0.65165
5622.29,0.64929
5599.15,0.65117
5576,0.65297
5552.86,0.65112
5529.71,0.65191
5506.57,0.65269
5483.42,0.65546
5460.28,0.65548
5437.13,0.65327
5413.99,0.65580
5390.84,0.65611
5367.7,0.65811
5344.55,0.65674
5321.41,0.65719
5298.26,0.65731
5275.12,0.65667
5251.97,0.65292
5228.83,0.65183
5205.68,0.64729
5182.54,0.64903
5159.39,0.64806
5136.25,0.65025
5113.1,0.65072
5089.96,0.65304
5066.81,0.65344
5043.67,0.65491
5020.52,0.65571
4997.38,0.65809
4974.23,0.65933
4951.09,0.66013
4927.94,0.66244
4904.8,0.66310
4881.65,0.66415
4858.51,0.66544
4835.36,0.66505
4812.22,0.66637
4789.07,0.66705
4765.93,0.66694
4742.78,0.66760
4719.64,0.66869
4696.49,0.66710
4673.35,0.66519
4650.2,0.66482
4627.06,0.66374
4603.92,0.66107
4580.77,0.66138
4557.63,0.66041
4534.48,0.66076
4511.34,0.66139
4488.19,0.66146
4465.05,0.66179
4441.9,0.66206
4418.76,0.66250
4395.61,0.66175
4372.47,0.66089
4349.32,0.65846
4326.18,0.65639
4303.03,0.65757
4279.89,0.65705
4256.74,0.65763
4233.6,0.65526
4210.45,0.65463
4187.31,0.65411
4164.16,0.65181
4141.02,0.65192
4117.87,0.65146
4094.73,0.64783
4071.58,0.64606
4048.44,0.64348
4025.29,0.64256
4002.15,0.64121
3979,0.63896
3955.86,0.63773
3932.71,0.63646
3909.57,0.63641
3886.42,0.63597
3863.28,0.63463
3840.13,0.63200
3816.99,0.62663
3793.84,0.62199
3770.7,0.61095
3747.55,0.58852
3724.41,0.53669
3701.26,0.41684
3678.12,0.27372
3654.97,0.14950
3631.83,0.08715
3608.68,0.06444
3585.54,0.05694
3562.39,0.05350
3539.25,0.05190
3516.1,0.05075
3492.96,0.04973
3469.81,0.04936
3446.67,0.04966
3423.52,0.04993
3400.38,0.04952
3377.23,0.05064
3354.09,0.05195
3330.94,0.05157
3307.8,0.05243
3284.65,0.05336
3261.51,0.05463
3238.36,0.05690
3215.22,0.05864
3192.07,0.06164
3168.93,0.06423
3145.78,0.06821
3122.64,0.07243
3099.49,0.07875
3076.35,0.08645
3053.2,0.09559
3030.06,0.10393
3006.91,0.11233
2983.77,0.12111
2960.62,0.13338
2937.48,0.14844
2914.33,0.16382
2891.19,0.18090
2868.04,0.19322
2844.9,0.20931
2821.75,0.23134
2798.61,0.25696
2775.46,0.28020
2752.32,0.29806
2729.17,0.31088
2706.03,0.32535
2682.88,0.34348
2659.74,0.36276
2636.59,0.37713
2613.45,0.38284
2590.3,0.38258
2567.16,0.38217
2544.02,0.38621
2520.87,0.39089
2497.73,0.39639
2474.58,0.39660
2451.44,0.39072
2428.29,0.38703
2405.15,0.39120
2382,0.40258
2358.86,0.41109
2335.71,0.41131
2312.57,0.40480
2289.42,0.39902
2266.28,0.40182
2243.13,0.41183
2219.99,0.41910
2196.84,0.41458
2173.7,0.40145
2150.55,0.38996
2127.41,0.39297
2104.26,0.40912
2081.12,0.42264
2057.97,0.42370
2034.83,0.41483
2011.68,0.41034
1988.54,0.42012
1965.39,0.44069
1942.25,0.45577
1919.1,0.45235
1895.96,0.43604
1872.81,0.42598
1849.67,0.43434
1826.52,0.45070
1803.38,0.45141
1780.23,0.42955
1757.09,0.38632
1733.94,0.33274
1710.8,0.27272
1687.65,0.21176
1664.51,0.19899
1641.36,0.14605
1618.22,0.10895
1595.07,0.12233
1571.93,0.16333
1548.78,0.23836
1525.64,0.25012
1502.49,0.21164
1479.35,0.18608
1456.2,0.19785
1433.06,0.21667
1409.91,0.19302
1386.77,0.10640
1363.62,0.06255
1340.48,0.05020
1317.33,0.03825
1294.19,0.02559
1271.04,0.02263
1247.9,0.02429
1224.75,0.02371
1201.61,0.02357
1178.46,0.02582
1155.32,0.02856
1132.17,0.03078
1109.03,0.03192
1085.88,0.03114
1062.74,0.02943
1039.59,0.02830
1016.45,0.02483
993.304,0.02209
970.159,0.02368
947.014,0.03432
923.869,0.05269
900.724,0.07287
877.579,0.08992
854.434,0.10701
831.289,0.12240
808.144,0.13351
784.999,0.14088
761.854,0.14639
738.709,0.15220
715.565,0.15641
692.42,0.16224
669.275,0.16654
646.13,0.17065
622.985,0.17349
599.84,0.17603

File: Laminate_Flooring_IS_S_221003_R2.dpt
7497.03,0.59408
7473.89,0.61082
7450.74,0.59394
7427.6,0.60521
7404.45,0.60902
7381.31,0.61063
7358.16,0.60586
7335.02,0.60226
7311.87,0.60541
7288.73,0.60100
7265.58,0.59560
7242.44,0.60222
7219.29,0.59678
7196.15,0.60837
7173,0.60475
7149.86,0.59799
7126.71,0.60365
7103.57,0.60207
7080.42,0.60561
7057.28,0.60101
7034.13,0.60370
7010.99,0.60170
6987.84,0.60930
6964.7,0.60998
6941.55,0.60993
6918.41,0.61142
6895.26,0.61597
6872.12,0.61238
6848.97,0.61538
6825.83,0.61167
6802.68,0.61430
6779.54,0.61620
6756.39,0.61282
6733.25,0.61384
6710.1,0.61787
6686.96,0.61747
6663.82,0.61729
6640.67,0.62316
6617.53,0.62208
6594.38,0.61957
6571.24,0.62409
6548.09,0.61965
6524.95,0.62834
6501.8,0.62616
6478.66,0.62735
6455.51,0.62739
6432.37,0.62702
6409.22,0.62728
6386.08,0.62821
6362.93,0.62707
6339.79,0.63257
6316.64,0.63223
6293.5,0.63264
6270.35,0.63347
6247.21,0.63282
6224.06,0.62995
6200.92,0.63384
6177.77,0.63859
6154.63,0.63710
6131.48,0.64043
6108.34,0.63768
6085.19,0.63731
6062.05,0.63746
6038.9,0.64004
6015.76,0.64021
5992.61,0.63976
5969.47,0.64240
5946.32,0.63943
5923.18,0.64088
5900.03,0.64362
5876.89,0.64252
5853.74,0.64125
5830.6,0.64417
5807.45,0.64329
5784.31,0.64548
5761.16,0.64504
5738.02,0.64809
5714.87,0.64669
5691.73,0.65126
5668.58,0.64902
5645.44,0.65053
5622.29,0.64940
5599.15,0.65023
5576,0.65221
5552.86,0.65037
5529.71,0.65370
5506.57,0.65488
5483.42,0.65523
5460.28,0.65457
5437.13,0.65514
5413.99,0.65618
5390.84,0.65763
5367.7,0.65618
5344.55,0.65778
5321.41,0.65862
5298.26,0.65742
5275.12,0.65714
5251.97,0.65241
5228.83,0.65111
5205.68,0.65174
5182.54,0.65022
5159.39,0.65015
5136.25,0.65084
5113.1,0.65212
5089.96,0.65358
5066.81,0.65397
5043.67,0.65547
5020.52,0.65738
4997.38,0.65835
4974.23,0.66082
4951.09,0.66229
4927.94,0.66232
4904.8,0.66368
4881.65,0.66404
4858.51,0.66467
4835.36,0.66608
4812.22,0.66686
4789.07,0.66801
4765.93,0.66741
4742.78,0.66836
4719.64,0.66803
4696.49,0.66717
4673.35,0.66486
4650.2,0.66367
4627.06,0.66141
4603.92,0.66226
4580.77,0.66129
4557.63,0.66031
4534.48,0.66139
4511.34,0.66110
4488.19,0.66190
4465.05,0.66243
4441.9,0.66322
4418.76,0.66196
4395.61,0.66344
4372.47,0.66033
4349.32,0.65862
4326.18,0.65800
4303.03,0.65871
4279.89,0.65743
4256.74,0.65735
4233.6,0.65592
4210.45,0.65586
4187.31,0.65489
4164.16,0.65338
4141.02,0.65243
4117.87,0.65214
4094.73,0.64887
4071.58,0.64768
4048.44,0.64507
4025.29,0.64339
4002.15,0.64179
3979,0.64031
3955.86,0.63848
3932.71,0.63808
3909.57,0.63843
3886.42,0.63690
3863.28,0.63450
3840.13,0.63305
3816.99,0.62841
3793.84,0.62347
3770.7,0.61264
3747.55,0.58943
3724.41,0.53614
3701.26,0.41564
3678.12,0.27193
3654.97,0.14856
3631.83,0.08706
3608.68,0.06468
3585.54,0.05689
3562.39,0.05337
3539.25,0.05212
3516.1,0.05063
3492.96,0.04982
3469.81,0.04965
3446.67,0.04955
3423.52,0.05004
3400.38,0.05058
3377.23,0.05114
3354.09,0.05114
3330.94,0.05175
3307.8,0.05312
3284.65,0.05360
3261.51,0.05471
3238.36,0.05706
3215.22,0.05976
3192.07,0.06250
3168.93,0.06534
3145.78,0.06866
3122.64,0.07304
3099.49,0.07941
3076.35,0.08787
3053.2,0.09692
3030.06,0.10533
3006.91,0.11371
2983.77,0.12285
2960.62,0.13551
2937.48,0.14977
2914.33,0.16619
2891.19,0.18253
2868.04,0.19404
2844.9,0.21069
2821.75,0.23416
2798.61,0.25854
2775.46,0.28277
2752.32,0.29998
2729.17,0.31256
2706.03,0.32666
2682.88,0.34511
2659.74,0.36514
2636.59,0.37913
2613.45,0.38440
2590.3,0.38365
2567.16,0.38412
2544.02,0.38781
2520.87,0.39336
2497.73,0.39838
2474.58,0.39808
2451.44,0.39236
2428.29,0.38831
2405.15,0.39306
2382,0.40430
2358.86,0.41230
2335.71,0.41227
2312.57,0.40594
2289.42,0.40130
2266.28,0.40440
2243.13,0.41449
2219.99,0.42101
2196.84,0.41661
2173.7,0.40333
2150.55,0.39260
2127.41,0.39587
2104.26,0.41186
2081.12,0.42461
2057.97,0.42523
2034.83,0.41645
2011.68,0.41205
1988.54,0.42237
1965.39,0.44310
1942.25,0.45746
1919.1,0.45354
1895.96,0.43728
1872.81,0.42767
1849.67,0.43666
1826.52,0.45305
1803.38,0.45277
1780.23,0.43078
1757.09,0.38770
1733.94,0.33490
1710.8,0.27562
1687.65,0.21414
1664.51,0.20153
1641.36,0.14707
1618.22,0.11023
1595.07,0.12409
1571.93,0.16577
1548.78,0.24114
1525.64,0.25127
1502.49,0.21252
1479.35,0.18821
1456.2,0.19953
1433.06,0.21801
1409.91,0.19260
1386.77,0.10621
1363.62,0.06331
1340.48,0.05017
1317.33,0.03831
1294.19,0.02601
1271.04,0.02260
1247.9,0.02382
1224.75,0.02374
1201.61,0.02370
1178.46,0.02562
1155.32,0.02842
1132.17,0.03022
1109.03,0.03199
1085.88,0.03061
1062.74,0.02929
1039.59,0.02877
1016.45,0.02479
993.304,0.02233
970.159,0.02369
947.014,0.03417
923.869,0.05299
900.724,0.07256
877.579,0.08992
854.434,0.10735
831.289,0.12185
808.144,0.13312
784.999,0.13988
761.854,0.14589
738.709,0.15144
715.565,0.15468
692.42,0.16310
669.275,0.16613
646.13,0.16941
622.985,0.17038
599.84,0.17706

File: Laminate_Flooring_IS_S_221003_R3.dpt
7497.03,0.60278
7473.89,0.59894
7450.74,0.60136
7427.6,0.60562
7404.45,0.60253
7381.31,0.60928
7358.16,0.60449
7335.02,0.60138
7311.87,0.59675
7288.73,0.60483
7265.58,0.60177
7242.44,0.60585
7219.29,0.59374
7196.15,0.60253
7173,0.60515
7149.86,0.59921
7126.71,0.60363
7103.57,0.60854
7080.42,0.60935
7057.28,0.60755
7034.13,0.60522
7010.99,0.60696
6987.84,0.60947
6964.7,0.61136
6941.55,0.61253
6918.41,0.61157
6895.26,0.60725
6872.12,0.61610
6848.97,0.61029
6825.83,0.61314
6802.68,0.61442
6779.54,0.61816
6756.39,0.61992
6733.25,0.61566
6710.1,0.61246
6686.96,0.61648
6663.82,0.62533
6640.67,0.62028
6617.53,0.61869
6594.38,0.62551
6571.24,0.62441
6548.09,0.62727
6524.95,0.62264
6501.8,0.62338
6478.66,0.62556
6455.51,0.62606
6432.37,0.62784
6409.22,0.63022
6386.08,0.63169
6362.93,0.62921
6339.79,0.63067
6316.64,0.63147
6293.5,0.62952
6270.35,0.63441
6247.21,0.63520
6224.06,0.62944
6200.92,0.63354
6177.77,0.63393
6154.63,0.63287
6131.48,0.63541
6108.34,0.63612
6085.19,0.64078
6062.05,0.63868
6038.9,0.63948
6015.76,0.64018
5992.61,0.63978
5969.47,0.64264
5946.32,0.64197
5923.18,0.64178
5900.03,0.64398
5876.89,0.64495
5853.74,0.64555
5830.6,0.64235
5807.45,0.64453
5784.31,0.64574
5761.16,0.64284
5738.02,0.64576
5714.87,0.65017
5691.73,0.64663
5668.58,0.65024
5645.44,0.64949
5622.29,0.64995
5599.15,0.65265
5576,0.65370
5552.86,0.65332
5529.71,0.65253
5506.57,0.65239
5483.42,0.65512
5460.28,0.65404
5437.13,0.65572
5413.99,0.65600
5390.84,0.65794
5367.7,0.65840
5344.55,0.65674
5321.41,0.65850
5298.26,0.65844
5275.12,0.65681
5251.97,0.65351
5228.83,0.65137
5205.68,0.65173
5182.54,0.65044
5159.39,0.65061
5136.25,0.65101
5113.1,0.65185
5089.96,0.65402
5066.81,0.65502
5043.67,0.65611
5020.52,0.65737
4997.38,0.65998
4974.23,0.66078
4951.09,0.66234
4927.94,0.66311
4904.8,0.66301
4881.65,0.66448
4858.51,0.66418
4835.36,0.66624
4812.22,0.66712
4789.07,0.66742
4765.93,0.66695
4742.78,0.66935
4719.64,0.66782
4696.49,0.66774
4673.35,0.66510
4650.2,0.66371
4627.06,0.66220
4603.92,0.66271
4580.77,0.66118
4557.63,0.66147
4534.48,0.66123
4511.34,0.66109
4488.19,0.66224
4465.05,0.66267
4441.9,0.66216
4418.76,0.66265
4395.61,0.66216
4372.47,0.66043
4349.32,0.65928
4326.18,0.65802
4303.03,0.65875
4279.89,0.65692
4256.74,0.65782
4233.6,0.65546
4210.45,0.65503
4187.31,0.65471
4164.16,0.65363
4141.02,0.65219
4117.87,0.65100
4094.73,0.64906
4071.58,0.64674
4048.44,0.64620
4025.29,0.64308
4002.15,0.64221
3979,0.64101
3955.86,0.63948
3932.71,0.63813
3909.57,0.63776
3886.42,0.63664
3863.28,0.63629
3840.13,0.63370
3816.99,0.62855
3793.84,0.62373
3770.7,0.61307
3747.55,0.58889
3724.41,0.53627
3701.26,0.41561
3678.12,0.27207
3654.97,0.14875
3631.83,0.08743
3608.68,0.06548
3585.54,0.05670
3562.39,0.05292
3539.25,0.05155
3516.1,0.05126
3492.96,0.05001
3469.81,0.04932
3446.67,0.04976
3423.52,0.05001
3400.38,0.05051
3377.23,0.05159
3354.09,0.05171
3330.94,0.05229
3307.8,0.05281
3284.65,0.05461
3261.51,0.05525
3238.36,0.05791
3215.22,0.06021
3192.07,0.06223
3168.93,0.06527
3145.78,0.06843
3122.64,0.07329
3099.49,0.08040
3076.35,0.08825
3053.2,0.09726
3030.06,0.10597
3006.91,0.11415
2983.77,0.12367
2960.62,0.13550
2937.48,0.15026
2914.33,0.16731
2891.19,0.18343
2868.04,0.19436
2844.9,0.21138
2821.75,0.23467
2798.61,0.25928
2775.46,0.28271
2752.32,0.30004
2729.17,0.31297
2706.03,0.32784
2682.88,0.34599
2659.74,0.36489
2636.59,0.37967
2613.45,0.38480
2590.3,0.38443
2567.16,0.38424
2544.02,0.38853
2520.87,0.39366
2497.73,0.39865
2474.58,0.39824
2451.44,0.39242
2428.29,0.38848
2405.15,0.39403
2382,0.40525
2358.86,0.41347
2335.71,0.41357
2312.57,0.40599
2289.42,0.40128
2266.28,0.40529
2243.13,0.41468
2219.99,0.42127
2196.84,0.41700
2173.7,0.40384
2150.55,0.39333
2127.41,0.39612
2104.26,0.41233
2081.12,0.42500
2057.97,0.42514
2034.83,0.41688
2011.68,0.41274
1988.54,0.42338
1965.39,0.44388
1942.25,0.45829
1919.1,0.45363
1895.96,0.43739
1872.81,0.42764
1849.67,0.43714
1826.52,0.45349
1803.38,0.45316
1780.23,0.43070
1757.09,0.38808
1733.94,0.33521
1710.8,0.27611
1687.65,0.21494
1664.51,0.20193
1641.36,0.14785
1618.22,0.11040
1595.07,0.12444
1571.93,0.16687
1548.78,0.24187
1525.64,0.25197
1502.49,0.21272
1479.35,0.18855
1456.2,0.20022
1433.06,0.21848
1409.91,0.19296
1386.77,0.10632
1363.62,0.06342
1340.48,0.05070
1317.33,0.03828
1294.19,0.02589
1271.04,0.02263
1247.9,0.02425
1224.75,0.02407
1201.61,0.02401
1178.46,0.02555
1155.32,0.02819
1132.17,0.03052
1109.03,0.03212
1085.88,0.03115
1062.74,0.02991
1039.59,0.02786
1016.45,0.02526
993.304,0.02189
970.159,0.02348
947.014,0.03463
923.869,0.05231
900.724,0.07244
877.579,0.09008
854.434,0.10710
831.289,0.12092
808.144,0.13305
784.999,0.14020
761.854,0.14581
738.709,0.15110
715.565,0.15541
692.42,0.16166
669.275,0.16594
646.13,0.16927
622.985,0.17228
599.84,0.17631

File: Laminate_Flooring_IS_S_221003_R4.dpt
7497.03,0.60433
7473.89,0.59978
7450.74,0.59474
7427.6,0.60419
7404.45,0.59733
7381.31,0.60448
7358.16,0.59445
7335.02,0.59789
7311.87,0.60388
7288.73,0.60098
7265.58,0.60551
7242.44,0.59908
7219.29,0.59751
7196.15,0.61162
7173,0.60525
7149.86,0.60826
7126.71,0.60961
7103.57,0.60642
7080.42,0.60535
7057.28,0.60427
7034.13,0.60633
7010.99,0.60645
6987.84,0.60222
6964.7,0.60595
6941.55,0.60327
6918.41,0.61044
6895.26,0.62010
6872.12,0.61467
6848.97,0.60886
6825.83,0.61110
6802.68,0.61555
6779.54,0.61728
6756.39,0.61514
6733.25,0.61858
6710.1,0.61730
6686.96,0.62192
6663.82,0.62258
6640.67,0.62585
6617.53,0.61814
6594.38,0.62269
6571.24,0.62476
6548.09,0.62731
6524.95,0.62333
6501.8,0.62821
6478.66,0.62659
6455.51,0.62698
6432.37,0.63081
6409.22,0.63089
6386.08,0.63100
6362.93,0.63082
6339.79,0.62865
6316.64,0.62875
6293.5,0.63281
6270.35,0.63413
6247.21,0.63389
6224.06,0.63418
6200.92,0.63185
6177.77,0.63673
6154.63,0.63589
6131.48,0.63572
6108.34,0.63935
6085.19,0.63956
6062.05,0.64036
6038.9,0.63976
6015.76,0.63858
5992.61,0.63816
5969.47,0.63954
5946.32,0.64172
5923.18,0.64371
5900.03,0.64423
5876.89,0.64455
5853.74,0.64388
5830.6,0.64354
5807.45,0.64286
5784.31,0.64594
5761.16,0.64669
5738.02,0.64510
5714.87,0.64765
5691.73,0.64780
5668.58,0.64910
5645.44,0.65002
5622.29,0.65299
5599.15,0.65131
5576,0.65037
5552.86,0.65221
5529.71,0.65223
5506.57,0.65213
5483.42,0.65444
5460.28,0.65462
5437.13,0.65581
5413.99,0.65671
5390.84,0.65588
5367.7,0.65807
5344.55,0.65939
5321.41,0.65765
5298.26,0.65928
5275.12,0.65673
5251.97,0.65448
5228.83,0.65230
5205.68,0.65053
5182.54,0.65123
5159.39,0.65224
5136.25,0.65119
5113.1,0.65193
5089.96,0.65371
5066.81,0.65453
5043.67,0.65683
5020.52,0.65780
4997.38,0.65923
4974.23,0.66085
4951.09,0.66125
4927.94,0.66323
4904.8,0.66374
4881.65,0.66572
4858.51,0.66411
4835.36,0.66577
4812.22,0.66653
4789.07,0.66726
4765.93,0.66769
4742.78,0.66955
4719.64,0.66757
4696.49,0.66708
4673.35,0.66598
4650.2,0.66455
4627.06,0.66258
4603.92,0.66199
4580.77,0.66050
4557.63,0.66069
4534.48,0.66131
4511.34,0.66079
4488.19,0.66185
4465.05,0.66201
4441.9,0.66236
4418.76,0.66330
4395.61,0.66261
4372.47,0.66144
4349.32,0.65980
4326.18,0.65809
4303.03,0.65915
4279.89,0.65655
4256.74,0.65766
4233.6,0.65625
4210.45,0.65469
4187.31,0.65535
4164.16,0.65431
4141.02,0.65321
4117.87,0.65197
4094.73,0.64927
4071.58,0.64661
4048.44,0.64590
4025.29,0.64279
4002.15,0.64107
3979,0.64147
3955.86,0.63902
3932.71,0.63908
3909.57,0.63840
3886.42,0.63695
3863.28,0.63575
3840.13,0.63355
3816.99,0.62956
3793.84,0.62366
3770.7,0.61368
3747.55,0.58864
3724.41,0.53650
3701.26,0.41520
3678.12,0.27246
3654.97,0.14949
3631.83,0.08697
3608.68,0.06579
3585.54,0.05682
3562.39,0.05361
3539.25,0.05193
3516.1,0.04959
3492.96,0.04983
3469.81,0.04986
3446.67,0.05013
3423.52,0.05019
3400.38,0.05001
3377.23,0.05071
3354.09,0.05138
3330.94,0.05176
3307.8,0.05297
3284.65,0.05361
3261.51,0.05536
3238.36,0.05703
3215.22,0.05982
3192.07,0.06272
3168.93,0.06546
3145.78,0.06909
3122.64,0.07346
3099.49,0.08029
3076.35,0.08878
3053.2,0.09779
3030.06,0.10637
3006.91,0.11453
2983.77,0.12408
2960.62,0.13634
2937.48,0.15100
2914.33,0.16677
2891.19,0.18358
2868.04,0.19507
2844.9,0.21128
2821.75,0.23469
2798.61,0.25964
2775.46,0.28350
2752.32,0.30019
2729.17,0.31365
2706.03,0.32813
2682.88,0.34583
2659.74,0.36511
2636.59,0.38008
2613.45,0.38523
2590.3,0.38451
2567.16,0.38482
2544.02,0.38888
2520.87,0.39385
2497.73,0.39909
2474.58,0.39896
2451.44,0.39243
2428.29,0.38924
2405.15,0.39418
2382,0.40549
2358.86,0.41337
2335.71,0.41304
2312.57,0.40648
2289.42,0.40187
2266.28,0.40529
2243.13,0.41548
2219.99,0.42159
2196.84,0.41711
2173.7,0.40404
2150.55,0.39357
2127.41,0.39687
2104.26,0.41297
2081.12,0.42538
2057.97,0.42560
2034.83,0.41726
2011.68,0.41262
1988.54,0.42340
1965.39,0.44463
1942.25,0.45828
1919.1,0.45430
1895.96,0.43787
1872.81,0.42857
1849.67,0.43736
1826.52,0.45361
1803.38,0.45328
1780.23,0.43123
1757.09,0.38836
1733.94,0.33588
1710.8,0.27655
1687.65,0.21530
1664.51,0.20246
1641.36,0.14832
1618.22,0.11089
1595.07,0.12486
1571.93,0.16708
1548.78,0.24200
1525.64,0.25201
1502.49,0.21268
1479.35,0.18856
1456.2,0.19964
1433.06,0.21868
1409.91,0.19314
1386.77,0.10686
1363.62,0.06322
1340.48,0.05066
1317.33,0.03818
1294.19,0.02569
1271.04,0.02270
1247.9,0.02408
1224.75,0.02357
1201.61,0.02375
1178.46,0.02561
1155.32,0.02840
1132.17,0.03071
1109.03,0.03182
1085.88,0.03177
1062.74,0.02913
1039.59,0.02836
1016.45,0.02438
993.304,0.02154
970.159,0.02350
947.014,0.03460
923.869,0.05227
900.724,0.07231
877.579,0.09022
854.434,0.10766
831.289,0.12151
808.144,0.13330
784.999,0.14083
761.854,0.14619
738.709,0.15056
715.565,0.15699
692.42,0.16240
669.275,0.16629
646.13,0.16952
622.985,0.17120
599.84,0.17738