Folder: fsri_materials_database/01_Data/Laminate_Flooring/FTIR/IS (part 2)

File: Laminate_Flooring_IS_S_221003_R5.dpt
7497.03,0.60555
7473.89,0.60248
7450.74,0.60041
7427.6,0.60515
7404.45,0.60758
7381.31,0.60054
7358.16,0.60038
7335.02,0.59915
7311.87,0.60648
7288.73,0.60748
7265.58,0.59934
7242.44,0.60458
7219.29,0.60215
7196.15,0.60452
7173,0.60236
7149.86,0.60186
7126.71,0.60121
7103.57,0.60210
7080.42,0.60756
7057.28,0.60844
7034.13,0.61260
7010.99,0.60323
6987.84,0.60638
6964.7,0.61165
6941.55,0.61287
6918.41,0.61111
6895.26,0.60753
6872.12,0.61248
6848.97,0.60981
6825.83,0.61357
6802.68,0.61695
6779.54,0.61388
6756.39,0.61689
6733.25,0.62060
6710.1,0.61458
6686.96,0.61882
6663.82,0.62165
6640.67,0.62132
6617.53,0.62463
6594.38,0.63307
6571.24,0.62678
6548.09,0.62455
6524.95,0.62941
6501.8,0.62445
6478.66,0.62656
6455.51,0.63028
6432.37,0.63011
6409.22,0.63057
6386.08,0.63044
6362.93,0.63003
6339.79,0.63253
6316.64,0.62903
6293.5,0.63590
6270.35,0.63253
6247.21,0.63425
6224.06,0.63556
6200.92,0.63597
6177.77,0.63834
6154.63,0.63551
6131.48,0.63784
6108.34,0.63762
6085.19,0.64096
6062.05,0.64052
6038.9,0.64001
6015.76,0.63831
5992.61,0.63921
5969.47,0.64414
5946.32,0.64278
5923.18,0.64229
5900.03,0.64572
5876.89,0.64335
5853.74,0.64395
5830.6,0.64321
5807.45,0.64509
5784.31,0.64724
5761.16,0.64792
5738.02,0.64700
5714.87,0.65228
5691.73,0.65092
5668.58,0.64989
5645.44,0.64852
5622.29,0.65272
5599.15,0.65247
5576,0.65295
5552.86,0.65280
5529.71,0.65464
5506.57,0.65583
5483.42,0.65609
5460.28,0.65803
5437.13,0.65857
5413.99,0.65707
5390.84,0.65768
5367.7,0.65975
5344.55,0.66065
5321.41,0.65973
5298.26,0.66017
5275.12,0.65716
5251.97,0.65623
5228.83,0.65322
5205.68,0.65048
5182.54,0.65126
5159.39,0.65194
5136.25,0.65225
5113.1,0.65354
5089.96,0.65415
5066.81,0.65560
5043.67,0.65806
5020.52,0.65876
4997.38,0.66091
4974.23,0.66120
4951.09,0.66335
4927.94,0.66562
4904.8,0.66413
4881.65,0.66600
4858.51,0.66740
4835.36,0.66733
4812.22,0.66735
4789.07,0.66923
4765.93,0.66823
4742.78,0.66981
4719.64,0.66938
4696.49,0.66818
4673.35,0.66767
4650.2,0.66614
4627.06,0.66447
4603.92,0.66237
4580.77,0.66231
4557.63,0.66226
4534.48,0.66206
4511.34,0.66252
4488.19,0.66221
4465.05,0.66349
4441.9,0.66368
4418.76,0.66377
4395.61,0.66488
4372.47,0.66234
4349.32,0.66073
4326.18,0.65904
4303.03,0.65993
4279.89,0.65896
4256.74,0.65830
4233.6,0.65796
4210.45,0.65629
4187.31,0.65583
4164.16,0.65547
4141.02,0.65406
4117.87,0.65285
4094.73,0.65054
4071.58,0.64807
4048.44,0.64603
4025.29,0.64519
4002.15,0.64259
3979,0.64249
3955.86,0.64044
3932.71,0.63994
3909.57,0.63930
3886.42,0.63820
3863.28,0.63715
3840.13,0.63450
3816.99,0.63109
3793.84,0.62491
3770.7,0.61335
3747.55,0.59067
3724.41,0.53732
3701.26,0.41535
3678.12,0.27308
3654.97,0.14929
3631.83,0.08750
3608.68,0.06509
3585.54,0.05667
3562.39,0.05362
3539.25,0.05145
3516.1,0.05039
3492.96,0.05034
3469.81,0.04999
3446.67,0.04980
3423.52,0.05016
3400.38,0.05000
3377.23,0.05106
3354.09,0.05176
3330.94,0.05205
3307.8,0.05256
3284.65,0.05417
3261.51,0.05471
3238.36,0.05781
3215.22,0.05993
3192.07,0.06282
3168.93,0.06597
3145.78,0.06921
3122.64,0.07380
3099.49,0.08025
3076.35,0.08862
3053.2,0.09751
3030.06,0.10609
3006.91,0.11448
2983.77,0.12373
2960.62,0.13639
2937.48,0.15171
2914.33,0.16744
2891.19,0.18433
2868.04,0.19595
2844.9,0.21201
2821.75,0.23590
2798.61,0.26060
2775.46,0.28414
2752.32,0.30122
2729.17,0.31409
2706.03,0.32878
2682.88,0.34723
2659.74,0.36593
2636.59,0.38046
2613.45,0.38558
2590.3,0.38566
2567.16,0.38559
2544.02,0.38994
2520.87,0.39498
2497.73,0.40025
2474.58,0.39900
2451.44,0.39356
2428.29,0.38985
2405.15,0.39461
2382,0.40604
2358.86,0.41463
2335.71,0.41392
2312.57,0.40748
2289.42,0.40281
2266.28,0.40630
2243.13,0.41659
2219.99,0.42299
2196.84,0.41804
2173.7,0.40465
2150.55,0.39411
2127.41,0.39738
2104.26,0.41396
2081.12,0.42656
2057.97,0.42703
2034.83,0.41808
2011.68,0.41374
1988.54,0.42456
1965.39,0.44497
1942.25,0.45937
1919.1,0.45489
1895.96,0.43857
1872.81,0.42959
1849.67,0.43869
1826.52,0.45505
1803.38,0.45472
1780.23,0.43208
1757.09,0.38923
1733.94,0.33707
1710.8,0.27743
1687.65,0.21618
1664.51,0.20291
1641.36,0.14846
1618.22,0.11106
1595.07,0.12481
1571.93,0.16768
1548.78,0.24277
1525.64,0.25271
1502.49,0.21366
1479.35,0.18904
1456.2,0.20067
1433.06,0.21925
1409.91,0.19316
1386.77,0.10696
1363.62,0.06308
1340.48,0.05035
1317.33,0.03812
1294.19,0.02566
1271.04,0.02288
1247.9,0.02456
1224.75,0.02373
1201.61,0.02341
1178.46,0.02551
1155.32,0.02809
1132.17,0.03057
1109.03,0.03199
1085.88,0.03114
1062.74,0.02895
1039.59,0.02782
1016.45,0.02534
993.304,0.02128
970.159,0.02365
947.014,0.03387
923.869,0.05275
900.724,0.07222
877.579,0.09035
854.434,0.10771
831.289,0.12127
808.144,0.13418
784.999,0.14059
761.854,0.14694
738.709,0.15087
715.565,0.15620
692.42,0.16155
669.275,0.16702
646.13,0.16913
622.985,0.17333
599.84,0.18014

File: Laminate_Flooring_IS_S_221003_R6.dpt
7497.03,0.60299
7473.89,0.60388
7450.74,0.59982
7427.6,0.59824
7404.45,0.60515
7381.31,0.61404
7358.16,0.59774
7335.02,0.60664
7311.87,0.60435
7288.73,0.60282
7265.58,0.59992
7242.44,0.59581
7219.29,0.61165
7196.15,0.60241
7173,0.60264
7149.86,0.60362
7126.71,0.60191
7103.57,0.61017
7080.42,0.60602
7057.28,0.60610
7034.13,0.60871
7010.99,0.60619
6987.84,0.60623
6964.7,0.61451
6941.55,0.61003
6918.41,0.61467
6895.26,0.61084
6872.12,0.61333
6848.97,0.62299
6825.83,0.61680
6802.68,0.61298
6779.54,0.62042
6756.39,0.61760
6733.25,0.61975
6710.1,0.62469
6686.96,0.62036
6663.82,0.61990
6640.67,0.62231
6617.53,0.62839
6594.38,0.62502
6571.24,0.62744
6548.09,0.62619
6524.95,0.62611
6501.8,0.63244
6478.66,0.62446
6455.51,0.63344
6432.37,0.63194
6409.22,0.63126
6386.08,0.63015
6362.93,0.63022
6339.79,0.63110
6316.64,0.63148
6293.5,0.63517
6270.35,0.63000
6247.21,0.63305
6224.06,0.63688
6200.92,0.63772
6177.77,0.63721
6154.63,0.63944
6131.48,0.63958
6108.34,0.63634
6085.19,0.63807
6062.05,0.63664
6038.9,0.63972
6015.76,0.63806
5992.61,0.63907
5969.47,0.64189
5946.32,0.63823
5923.18,0.64212
5900.03,0.64695
5876.89,0.64433
5853.74,0.64582
5830.6,0.64507
5807.45,0.64439
5784.31,0.64529
5761.16,0.64783
5738.02,0.64893
5714.87,0.64927
5691.73,0.65284
5668.58,0.64779
5645.44,0.65221
5622.29,0.65167
5599.15,0.65035
5576,0.65273
5552.86,0.65617
5529.71,0.65524
5506.57,0.65671
5483.42,0.65781
5460.28,0.65766
5437.13,0.65769
5413.99,0.65899
5390.84,0.65915
5367.7,0.65897
5344.55,0.65701
5321.41,0.66169
5298.26,0.65833
5275.12,0.65691
5251.97,0.65516
5228.83,0.65365
5205.68,0.65254
5182.54,0.65078
5159.39,0.65175
5136.25,0.65310
5113.1,0.65269
5089.96,0.65618
5066.81,0.65748
5043.67,0.65813
5020.52,0.65839
4997.38,0.65962
4974.23,0.66238
4951.09,0.66468
4927.94,0.66438
4904.8,0.66504
4881.65,0.66607
4858.51,0.66629
4835.36,0.66869
4812.22,0.66855
4789.07,0.66938
4765.93,0.66884
4742.78,0.66872
4719.64,0.66910
4696.49,0.66855
4673.35,0.66811
4650.2,0.66578
4627.06,0.66448
4603.92,0.66282
4580.77,0.66337
4557.63,0.66265
4534.48,0.66202
4511.34,0.66308
4488.19,0.66176
4465.05,0.66367
4441.9,0.66406
4418.76,0.66444
4395.61,0.66317
4372.47,0.66300
4349.32,0.66082
4326.18,0.65921
4303.03,0.66018
4279.89,0.65852
4256.74,0.65790
4233.6,0.65733
4210.45,0.65632
4187.31,0.65678
4164.16,0.65527
4141.02,0.65404
4117.87,0.65244
4094.73,0.65090
4071.58,0.64786
4048.44,0.64669
4025.29,0.64508
4002.15,0.64373
3979,0.64241
3955.86,0.64117
3932.71,0.63919
3909.57,0.64002
3886.42,0.63918
3863.28,0.63734
3840.13,0.63477
3816.99,0.63055
3793.84,0.62505
3770.7,0.61462
3747.55,0.58983
3724.41,0.53732
3701.26,0.41563
3678.12,0.27167
3654.97,0.14895
3631.83,0.08822
3608.68,0.06537
3585.54,0.05729
3562.39,0.05340
3539.25,0.05194
3516.1,0.05091
3492.96,0.05014
3469.81,0.04973
3446.67,0.04980
3423.52,0.04972
3400.38,0.05046
3377.23,0.05071
3354.09,0.05183
3330.94,0.05243
3307.8,0.05294
3284.65,0.05426
3261.51,0.05573
3238.36,0.05719
3215.22,0.06023
3192.07,0.06318
3168.93,0.06628
3145.78,0.06877
3122.64,0.07436
3099.49,0.08053
3076.35,0.08918
3053.2,0.09836
3030.06,0.10664
3006.91,0.11508
2983.77,0.12432
2960.62,0.13689
2937.48,0.15150
2914.33,0.16771
2891.19,0.18460
2868.04,0.19607
2844.9,0.21266
2821.75,0.23604
2798.61,0.26029
2775.46,0.28421
2752.32,0.30073
2729.17,0.31473
2706.03,0.32892
2682.88,0.34750
2659.74,0.36640
2636.59,0.38090
2613.45,0.38622
2590.3,0.38593
2567.16,0.38590
2544.02,0.39057
2520.87,0.39515
2497.73,0.40004
2474.58,0.39949
2451.44,0.39369
2428.29,0.39023
2405.15,0.39506
2382,0.40661
2358.86,0.41454
2335.71,0.41424
2312.57,0.40741
2289.42,0.40287
2266.28,0.40662
2243.13,0.41657
2219.99,0.42335
2196.84,0.41853
2173.7,0.40491
2150.55,0.39465
2127.41,0.39803
2104.26,0.41429
2081.12,0.42677
2057.97,0.42688
2034.83,0.41839
2011.68,0.41383
1988.54,0.42454
1965.39,0.44584
1942.25,0.45973
1919.1,0.45515
1895.96,0.43898
1872.81,0.42993
1849.67,0.43876
1826.52,0.45524
1803.38,0.45457
1780.23,0.43263
1757.09,0.38965
1733.94,0.33709
1710.8,0.27794
1687.65,0.21600
1664.51,0.20345
1641.36,0.14841
1618.22,0.11129
1595.07,0.12478
1571.93,0.16811
1548.78,0.24279
1525.64,0.25273
1502.49,0.21333
1479.35,0.18933
1456.2,0.20088
1433.06,0.21931
1409.91,0.19291
1386.77,0.10665
1363.62,0.06370
1340.48,0.05047
1317.33,0.03857
1294.19,0.02585
1271.04,0.02280
1247.9,0.02462
1224.75,0.02402
1201.61,0.02395
1178.46,0.02586
1155.32,0.02825
1132.17,0.03065
1109.03,0.03149
1085.88,0.03080
1062.74,0.03035
1039.59,0.02781
1016.45,0.02458
993.304,0.02252
970.159,0.02357
947.014,0.03423
923.869,0.05247
900.724,0.07222
877.579,0.09026
854.434,0.10741
831.289,0.12148
808.144,0.13368
784.999,0.14086
761.854,0.14635
738.709,0.15204
715.565,0.15618
692.42,0.16219
669.275,0.16664
646.13,0.16992
622.985,0.17296
599.84,0.17567

File: Laminate_Flooring_IS_S_221003_R7.dpt
7497.03,0.60437
7473.89,0.60634
7450.74,0.60509
7427.6,0.60617
7404.45,0.60016
7381.31,0.59832
7358.16,0.60335
7335.02,0.60282
7311.87,0.60461
7288.73,0.60516
7265.58,0.60910
7242.44,0.60415
7219.29,0.60744
7196.15,0.59533
7173,0.60815
7149.86,0.59894
7126.71,0.61085
7103.57,0.60055
7080.42,0.60919
7057.28,0.60725
7034.13,0.60437
7010.99,0.60381
6987.84,0.60990
6964.7,0.61229
6941.55,0.61468
6918.41,0.61006
6895.26,0.61144
6872.12,0.61178
6848.97,0.61502
6825.83,0.61683
6802.68,0.62399
6779.54,0.61941
6756.39,0.61499
6733.25,0.61896
6710.1,0.62134
6686.96,0.62135
6663.82,0.62344
6640.67,0.62281
6617.53,0.62659
6594.38,0.62759
6571.24,0.62691
6548.09,0.62829
6524.95,0.62811
6501.8,0.62707
6478.66,0.62789
6455.51,0.63175
6432.37,0.62583
6409.22,0.62639
6386.08,0.63231
6362.93,0.63098
6339.79,0.62933
6316.64,0.62905
6293.5,0.63486
6270.35,0.63564
6247.21,0.63450
6224.06,0.63692
6200.92,0.63715
6177.77,0.63717
6154.63,0.63546
6131.48,0.63904
6108.34,0.63868
6085.19,0.63818
6062.05,0.64140
6038.9,0.63828
6015.76,0.64209
5992.61,0.64008
5969.47,0.64075
5946.32,0.64170
5923.18,0.64057
5900.03,0.64367
5876.89,0.64490
5853.74,0.64393
5830.6,0.64494
5807.45,0.64508
5784.31,0.64649
5761.16,0.64588
5738.02,0.64817
5714.87,0.64701
5691.73,0.64849
5668.58,0.65193
5645.44,0.65225
5622.29,0.65239
5599.15,0.65198
5576,0.65347
5552.86,0.65520
5529.71,0.65532
5506.57,0.65463
5483.42,0.65604
5460.28,0.65594
5437.13,0.65799
5413.99,0.65699
5390.84,0.65845
5367.7,0.65796
5344.55,0.65905
5321.41,0.66098
5298.26,0.65837
5275.12,0.65738
5251.97,0.65359
5228.83,0.65301
5205.68,0.65048
5182.54,0.65185
5159.39,0.65170
5136.25,0.65292
5113.1,0.65368
5089.96,0.65594
5066.81,0.65639
5043.67,0.65671
5020.52,0.65730
4997.38,0.65933
4974.23,0.66195
4951.09,0.66189
4927.94,0.66360
4904.8,0.66537
4881.65,0.66698
4858.51,0.66677
4835.36,0.66862
4812.22,0.66887
4789.07,0.66758
4765.93,0.66981
4742.78,0.66846
4719.64,0.66913
4696.49,0.66738
4673.35,0.66744
4650.2,0.66531
4627.06,0.66377
4603.92,0.66177
4580.77,0.66310
4557.63,0.66161
4534.48,0.66216
4511.34,0.66208
4488.19,0.66299
4465.05,0.66406
4441.9,0.66485
4418.76,0.66409
4395.61,0.66442
4372.47,0.66168
4349.32,0.66077
4326.18,0.65920
4303.03,0.65994
4279.89,0.65943
4256.74,0.65791
4233.6,0.65848
4210.45,0.65688
4187.31,0.65588
4164.16,0.65495
4141.02,0.65459
4117.87,0.65321
4094.73,0.65091
4071.58,0.64859
4048.44,0.64709
4025.29,0.64452
4002.15,0.64303
3979,0.64219
3955.86,0.64092
3932.71,0.63886
3909.57,0.63916
3886.42,0.63849
3863.28,0.63651
3840.13,0.63527
3816.99,0.63047
3793.84,0.62477
3770.7,0.61398
3747.55,0.58977
3724.41,0.53614
3701.26,0.41498
3678.12,0.27170
3654.97,0.14854
3631.83,0.08779
3608.68,0.06541
3585.54,0.05745
3562.39,0.05335
3539.25,0.05170
3516.1,0.05109
3492.96,0.05049
3469.81,0.04959
3446.67,0.05007
3423.52,0.05023
3400.38,0.05005
3377.23,0.05096
3354.09,0.05187
3330.94,0.05260
3307.8,0.05260
3284.65,0.05417
3261.51,0.05533
3238.36,0.05791
3215.22,0.05985
3192.07,0.06241
3168.93,0.06541
3145.78,0.06960
3122.64,0.07436
3099.49,0.08051
3076.35,0.08914
3053.2,0.09808
3030.06,0.10660
3006.91,0.11536
2983.77,0.12407
2960.62,0.13676
2937.48,0.15179
2914.33,0.16762
2891.19,0.18448
2868.04,0.19602
2844.9,0.21267
2821.75,0.23596
2798.61,0.26107
2775.46,0.28416
2752.32,0.30139
2729.17,0.31479
2706.03,0.32939
2682.88,0.34776
2659.74,0.36676
2636.59,0.38115
2613.45,0.38584
2590.3,0.38624
2567.16,0.38585
2544.02,0.39010
2520.87,0.39519
2497.73,0.40035
2474.58,0.39935
2451.44,0.39357
2428.29,0.39014
2405.15,0.39528
2382,0.40652
2358.86,0.41480
2335.71,0.41426
2312.57,0.40776
2289.42,0.40285
2266.28,0.40647
2243.13,0.41681
2219.99,0.42341
2196.84,0.41806
2173.7,0.40526
2150.55,0.39444
2127.41,0.39829
2104.26,0.41406
2081.12,0.42698
2057.97,0.42708
2034.83,0.41850
2011.68,0.41401
1988.54,0.42501
1965.39,0.44541
1942.25,0.45966
1919.1,0.45538
1895.96,0.43883
1872.81,0.42973
1849.67,0.43905
1826.52,0.45526
1803.38,0.45433
1780.23,0.43225
1757.09,0.38970
1733.94,0.33720
1710.8,0.27795
1687.65,0.21593
1664.51,0.20343
1641.36,0.14879
1618.22,0.11085
1595.07,0.12595
1571.93,0.16793
1548.78,0.24301
1525.64,0.25307
1502.49,0.21319
1479.35,0.18934
1456.2,0.20139
1433.06,0.21970
1409.91,0.19275
1386.77,0.10681
1363.62,0.06392
1340.48,0.05079
1317.33,0.03795
1294.19,0.02568
1271.04,0.02294
1247.9,0.02427
1224.75,0.02396
1201.61,0.02364
1178.46,0.02586
1155.32,0.02800
1132.17,0.03052
1109.03,0.03192
1085.88,0.03195
1062.74,0.02973
1039.59,0.02735
1016.45,0.02488
993.304,0.02180
970.159,0.02372
947.014,0.03420
923.869,0.05229
900.724,0.07233
877.579,0.08972
854.434,0.10716
831.289,0.12106
808.144,0.13338
784.999,0.14164
761.854,0.14598
738.709,0.15137
715.565,0.15703
692.42,0.16243
669.275,0.16681
646.13,0.16922
622.985,0.17360
599.84,0.17563

File: Laminate_Flooring_IS_S_221003_R8.dpt
7497.03,0.59612
7473.89,0.59708
7450.74,0.60409
7427.6,0.59855
7404.45,0.60571
7381.31,0.60912
7358.16,0.60663
7335.02,0.60461
7311.87,0.60530
7288.73,0.60011
7265.58,0.60774
7242.44,0.60365
7219.29,0.60521
7196.15,0.60411
7173,0.60047
7149.86,0.60331
7126.71,0.60250
7103.57,0.60343
7080.42,0.60444
7057.28,0.60412
7034.13,0.60650
7010.99,0.60789
6987.84,0.61283
6964.7,0.60855
6941.55,0.61752
6918.41,0.61226
6895.26,0.61071
6872.12,0.60690
6848.97,0.62011
6825.83,0.61434
6802.68,0.61252
6779.54,0.61406
6756.39,0.61767
6733.25,0.61971
6710.1,0.61777
6686.96,0.61924
6663.82,0.62324
6640.67,0.62299
6617.53,0.62586
6594.38,0.62103
6571.24,0.62639
6548.09,0.62647
6524.95,0.62552
6501.8,0.62713
6478.66,0.62648
6455.51,0.63089
6432.37,0.62961
6409.22,0.63015
6386.08,0.62754
6362.93,0.63104
6339.79,0.63112
6316.64,0.63112
6293.5,0.63228
6270.35,0.63504
6247.21,0.63779
6224.06,0.63427
6200.92,0.63536
6177.77,0.63647
6154.63,0.63502
6131.48,0.63920
6108.34,0.63732
6085.19,0.63839
6062.05,0.63681
6038.9,0.64199
6015.76,0.63921
5992.61,0.64110
5969.47,0.64356
5946.32,0.64255
5923.18,0.64148
5900.03,0.64491
5876.89,0.64232
5853.74,0.64284
5830.6,0.64285
5807.45,0.64240
5784.31,0.64449
5761.16,0.64892
5738.02,0.64947
5714.87,0.64561
5691.73,0.65047
5668.58,0.65145
5645.44,0.65074
5622.29,0.65257
5599.15,0.65138
5576,0.65154
5552.86,0.65326
5529.71,0.65440
5506.57,0.65512
5483.42,0.65575
5460.28,0.65620
5437.13,0.65696
5413.99,0.65647
5390.84,0.66027
5367.7,0.65981
5344.55,0.65850
5321.41,0.65846
5298.26,0.65769
5275.12,0.65790
5251.97,0.65495
5228.83,0.65340
5205.68,0.65112
5182.54,0.65206
5159.39,0.65238
5136.25,0.65332
5113.1,0.65332
5089.96,0.65759
5066.81,0.65536
5043.67,0.65737
5020.52,0.65836
4997.38,0.66019
4974.23,0.66061
4951.09,0.66207
4927.94,0.66443
4904.8,0.66449
4881.65,0.66680
4858.51,0.66714
4835.36,0.66735
4812.22,0.66776
4789.07,0.66807
4765.93,0.66944
4742.78,0.67040
4719.64,0.66847
4696.49,0.66748
4673.35,0.66651
4650.2,0.66607
4627.06,0.66399
4603.92,0.66303
4580.77,0.66236
4557.63,0.66225
4534.48,0.66300
4511.34,0.66319
4488.19,0.66378
4465.05,0.66284
4441.9,0.66454
4418.76,0.66335
4395.61,0.66340
4372.47,0.66277
4349.32,0.65990
4326.18,0.65893
4303.03,0.66017
4279.89,0.65846
4256.74,0.65930
4233.6,0.65715
4210.45,0.65663
4187.31,0.65663
4164.16,0.65529
4141.02,0.65432
4117.87,0.65249
4094.73,0.65148
4071.58,0.64804
4048.44,0.64685
4025.29,0.64404
4002.15,0.64299
3979,0.64239
3955.86,0.64076
3932.71,0.63991
3909.57,0.63983
3886.42,0.63817
3863.28,0.63714
3840.13,0.63517
3816.99,0.63029
3793.84,0.62528
3770.7,0.61455
3747.55,0.59035
3724.41,0.53665
3701.26,0.41460
3678.12,0.27209
3654.97,0.14920
3631.83,0.08776
3608.68,0.06566
3585.54,0.05643
3562.39,0.05350
3539.25,0.05151
3516.1,0.05107
3492.96,0.05037
3469.81,0.04975
3446.67,0.04915
3423.52,0.04974
3400.38,0.05113
3377.23,0.05100
3354.09,0.05104
3330.94,0.05208
3307.8,0.05239
3284.65,0.05403
3261.51,0.05586
3238.36,0.05733
3215.22,0.05992
3192.07,0.06269
3168.93,0.06576
3145.78,0.06939
3122.64,0.07437
3099.49,0.08126
3076.35,0.08885
3053.2,0.09836
3030.06,0.10688
3006.91,0.11502
2983.77,0.12453
2960.62,0.13691
2937.48,0.15271
2914.33,0.16783
2891.19,0.18474
2868.04,0.19599
2844.9,0.21264
2821.75,0.23583
2798.61,0.26096
2775.46,0.28512
2752.32,0.30165
2729.17,0.31483
2706.03,0.32904
2682.88,0.34739
2659.74,0.36670
2636.59,0.38104
2613.45,0.38646
2590.3,0.38586
2567.16,0.38630
2544.02,0.39025
2520.87,0.39555
2497.73,0.40024
2474.58,0.39959
2451.44,0.39352
2428.29,0.39004
2405.15,0.39559
2382,0.40661
2358.86,0.41479
2335.71,0.41467
2312.57,0.40777
2289.42,0.40289
2266.28,0.40682
2243.13,0.41676
2219.99,0.42310
2196.84,0.41829
2173.7,0.40495
2150.55,0.39488
2127.41,0.39845
2104.26,0.41413
2081.12,0.42694
2057.97,0.42716
2034.83,0.41770
2011.68,0.41424
1988.54,0.42507
1965.39,0.44574
1942.25,0.45971
1919.1,0.45544
1895.96,0.43899
1872.81,0.42997
1849.67,0.43915
1826.52,0.45489
1803.38,0.45484
1780.23,0.43223
1757.09,0.38939
1733.94,0.33719
1710.8,0.27816
1687.65,0.21599
1664.51,0.20358
1641.36,0.14873
1618.22,0.11102
1595.07,0.12541
1571.93,0.16815
1548.78,0.24331
1525.64,0.25278
1502.49,0.21373
1479.35,0.18919
1456.2,0.20121
1433.06,0.21954
1409.91,0.19287
1386.77,0.10692
1363.62,0.06338
1340.48,0.05045
1317.33,0.03829
1294.19,0.02593
1271.04,0.02293
1247.9,0.02461
1224.75,0.02392
1201.61,0.02350
1178.46,0.02580
1155.32,0.02786
1132.17,0.03048
1109.03,0.03115
1085.88,0.03063
1062.74,0.02997
1039.59,0.02831
1016.45,0.02473
993.304,0.02125
970.159,0.02345
947.014,0.03399
923.869,0.05230
900.724,0.07168
877.579,0.08989
854.434,0.10729
831.289,0.12179
808.144,0.13304
784.999,0.14051
761.854,0.14498
738.709,0.15157
715.565,0.15583
692.42,0.16382
669.275,0.16697
646.13,0.16983
622.985,0.17373
599.84,0.17363

File: Laminate_Flooring_IS_T_221003_R5.dpt
7497.03,0.02240
7473.89,0.02553
7450.74,0.02456
7427.6,0.02015
7404.45,0.03311
7381.31,0.03270
7358.16,0.02324
7335.02,0.02071
7311.87,0.02697
7288.73,0.02642
7265.58,0.02726
7242.44,0.02559
7219.29,0.02143
7196.15,0.03180
7173,0.01960
7149.86,0.02316
7126.71,0.02443
7103.57,0.02104
7080.42,0.02630
7057.28,0.02283
7034.13,0.02476
7010.99,0.03107
6987.84,0.02506
6964.7,0.02417
6941.55,0.02667
6918.41,0.02927
6895.26,0.02438
6872.12,0.02123
6848.97,0.02669
6825.83,0.03174
6802.68,0.02128
6779.54,0.03016
6756.39,0.02588
6733.25,0.02237
6710.1,0.02805
6686.96,0.02050
6663.82,0.02625
6640.67,0.02402
6617.53,0.02614
6594.38,0.02187
6571.24,0.02021
6548.09,0.02222
6524.95,0.02417
6501.8,0.02087
6478.66,0.02085
6455.51,0.02247
6432.37,0.02036
6409.22,0.02340
6386.08,0.02180
6362.93,0.01972
6339.79,0.02264
6316.64,0.02052
6293.5,0.02129
6270.35,0.02369
6247.21,0.02232
6224.06,0.02640
6200.92,0.02331
6177.77,0.02269
6154.63,0.02212
6131.48,0.02483
6108.34,0.02075
6085.19,0.01953
6062.05,0.02501
6038.9,0.02142
6015.76,0.02009
5992.61,0.02118
5969.47,0.02197
5946.32,0.02076
5923.18,0.02418
5900.03,0.02328
5876.89,0.02069
5853.74,0.02237
5830.6,0.01970
5807.45,0.01886
5784.31,0.02111
5761.16,0.02082
5738.02,0.02239
5714.87,0.02041
5691.73,0.01901
5668.58,0.01896
5645.44,0.02288
5622.29,0.02355
5599.15,0.02025
5576,0.02312
5552.86,0.02412
5529.71,0.02386
5506.57,0.02317
5483.42,0.02309
5460.28,0.02298
5437.13,0.02171
5413.99,0.02146
5390.84,0.02246
5367.7,0.02348
5344.55,0.02217
5321.41,0.02175
5298.26,0.02228
5275.12,0.02282
5251.97,0.02198
5228.83,0.02175
5205.68,0.02187
5182.54,0.02146
5159.39,0.02200
5136.25,0.02050
5113.1,0.02255
5089.96,0.02228
5066.81,0.02170
5043.67,0.02254
5020.52,0.02231
4997.38,0.02280
4974.23,0.02132
4951.09,0.02284
4927.94,0.02168
4904.8,0.02272
4881.65,0.02280
4858.51,0.02314
4835.36,0.02318
4812.22,0.02256
4789.07,0.02313
4765.93,0.02192
4742.78,0.02175
4719.64,0.02212
4696.49,0.02261
4673.35,0.02255
4650.2,0.02300
4627.06,0.02384
4603.92,0.02258
4580.77,0.02244
4557.63,0.02278
4534.48,0.02248
4511.34,0.02221
4488.19,0.02225
4465.05,0.02257
4441.9,0.02241
4418.76,0.02288
4395.61,0.02119
4372.47,0.02270
4349.32,0.02216
4326.18,0.02294
4303.03,0.02289
4279.89,0.02238
4256.74,0.02295
4233.6,0.02259
4210.45,0.02283
4187.31,0.02303
4164.16,0.02245
4141.02,0.02232
4117.87,0.02305
4094.73,0.02253
4071.58,0.02235
4048.44,0.02343
4025.29,0.02269
4002.15,0.02259
3979,0.02321
3955.86,0.02287
3932.71,0.02303
3909.57,0.02277
3886.42,0.02318
3863.28,0.02327
3840.13,0.02259
3816.99,0.02343
3793.84,0.02301
3770.7,0.02269
3747.55,0.02309
3724.41,0.02282
3701.26,0.02199
3678.12,0.02286
3654.97,0.02250
3631.83,0.02212
3608.68,0.02098
3585.54,0.02125
3562.39,0.02148
3539.25,0.02108
3516.1,0.02211
3492.96,0.02083
3469.81,0.02070
3446.67,0.02093
3423.52,0.02084
3400.38,0.02088
3377.23,0.01985
3354.09,0.02138
3330.94,0.02052
3307.8,0.02060
3284.65,0.02065
3261.51,0.02077
3238.36,0.02118
3215.22,0.02122
3192.07,0.02131
3168.93,0.02124
3145.78,0.02104
3122.64,0.02076
3099.49,0.02140
3076.35,0.02083
3053.2,0.02086
3030.06,0.02012
3006.91,0.02075
2983.77,0.02028
2960.62,0.01952
2937.48,0.01953
2914.33,0.02050
2891.19,0.02042
2868.04,0.02037
2844.9,0.02172
2821.75,0.02138
2798.61,0.02128
2775.46,0.02153
2752.32,0.02096
2729.17,0.02090
2706.03,0.02132
2682.88,0.02135
2659.74,0.02140
2636.59,0.02166
2613.45,0.02141
2590.3,0.02150
2567.16,0.02112
2544.02,0.02128
2520.87,0.02126
2497.73,0.02119
2474.58,0.02126
2451.44,0.02119
2428.29,0.02144
2405.15,0.02105
2382,0.02148
2358.86,0.02123
2335.71,0.02178
2312.57,0.02137
2289.42,0.02101
2266.28,0.02199
2243.13,0.02132
2219.99,0.02118
2196.84,0.02130
2173.7,0.02138
2150.55,0.02121
2127.41,0.02111
2104.26,0.02118
2081.12,0.02094
2057.97,0.02076
2034.83,0.02095
2011.68,0.02088
1988.54,0.02081
1965.39,0.02107
1942.25,0.02053
1919.1,0.02106
1895.96,0.02063
1872.81,0.02063
1849.67,0.02030
1826.52,0.02031
1803.38,0.01982
1780.23,0.01946
1757.09,0.01792
1733.94,0.01996
1710.8,0.02043
1687.65,0.01949
1664.51,0.01843
1641.36,0.01839
1618.22,0.01914
1595.07,0.01908
1571.93,0.01811
1548.78,0.01879
1525.64,0.01870
1502.49,0.01897
1479.35,0.01834
1456.2,0.01866
1433.06,0.01884
1409.91,0.01845
1386.77,0.01782
1363.62,0.01864
1340.48,0.01779
1317.33,0.01698
1294.19,0.01744
1271.04,0.01937
1247.9,0.02020
1224.75,0.01976
1201.61,0.01933
1178.46,0.01851
1155.32,0.01733
1132.17,0.01802
1109.03,0.01888
1085.88,0.01832
1062.74,0.01914
1039.59,0.01934
1016.45,0.01956
993.304,0.02086
970.159,0.02035
947.014,0.02022
923.869,0.01911
900.724,0.01941
877.579,0.01883
854.434,0.01919
831.289,0.01971
808.144,0.01927
784.999,0.01854
761.854,0.01803
738.709,0.01920
715.565,0.01797
692.42,0.01826
669.275,0.01809
646.13,0.01564
622.985,0.01682
599.84,0.01514