Folder: fsri_materials_database/01_Data/Overstuffed_Chair_Polyurethane_Foam/Cone

Note: README.md
# Materials and Products Database
### Repository of materials and products properties and fire test data to improve fire modeling and fire investigation.

This project was supported in part by Award No. 2019-DU-BX-0018, awarded by the National Institute of Justice, Office of Justice Programs, U.S. Department of Justice. The opinions, findings, and conclusions or recommendations expressed in this publication / program / exhibition are those of the author(s) and do not necessarily reflect those of the Department of Justice.

***
***

__Cite this database:__ "McKinnon, M., Weinschenk, C., Dow, N., DiDomizio, M., and Madrzykowski, D. Materials and Products Database (Version 1.0.0), Fire Safety Research Institute, UL Research Institutes. Columbia, MD 21045, 2023."

__Cite the Technical Reference Guide:__ "McKinnon, M., Weinschenk, C., and Madrzykowski, D. Materials and Products Database - Technical Reference Guide, Fire Safety Research Institute, UL Research Institutes. Columbia, MD 21045, 2023."

__Cite the User Guide:__ "McKinnon, M., and Weinschenk, C. Materials and Products Database - User Guide, Fire Safety Research Institute, UL Research Institutes. Columbia, MD 21045, 2023."

***
***

## Database Structure

## 01_Data/
Raw data generated from each apparatus are included here in plain-text format. The data is organized first by material, next by the short name of test apparatus used, and where applicable additional filtering by test settings.

### Test Apparatus and Data File Structure
- __Cone Calorimeter__ (Cone)
    + Data file structure includes the material, the short name for the apparatus, heat flux setting and scan/scalar, date of test, and replicate number. Scan is for the raw output data and scalar is for the initial conditions and high-level test parameters. 
        * Example: __MDF_Cone_HF25scalar_210323_R1__ stands for the first replicate of scalar data generated from a medium density fiber board test in cone calorimeter exposed to 25 kW/m<sup>2</sup> on March 23, 2021.
    + A _Cone_Notes.csv_ is generated for each material from the __plot_Cone_data.py__ script. For materials whose experiments deviated from typical behavior relevant pictures are included in the respective material directory.
- __Fourier Transform Infrared Spectrometer__ (FTIR)
    + The FTIR directory contains subdirectories for the Attenuated Total Reflectance method (ATR) and the Integrating Sphere (IS)
    + Data file structure for the ATR experiment files includes the material, the abbreviated name for the apparatus, date of test, and replicate number. 
        * Example: __MDF_ATR_210323_R5__ stands for the fifth replicate of data collected with the ATR accessory conducted on June 8, 2021.
    + Data file structure for the IS experiment files includes the material, the abbreviated name for the apparatus, the measurand, whether the test is a sample measurement or standard reference, date of test, and replicate number.
        * Example: __OSB_IS_REFLECT_MEAS_2

File: Overstuffed_Chair_Polyurethane_Foam_HRRPUA_25.csv
Time after Ignition,Overstuffed_Chair_Polyurethane_Foam_R1,Overstuffed_Chair_Polyurethane_Foam_R2,Overstuffed_Chair_Polyurethane_Foam_R3,Mean,Std. Dev.
0.0,22.8,19.9,14.1,18.9,4.4
0.5,30.7,28.9,25.9,28.5,2.4
1.0,42.1,37.5,34.8,38.1,3.7
1.5,55.3,43.8,46.5,48.6,6.0
2.0,67.5,52.6,62.3,60.8,7.6
2.5,80.9,64.0,71.7,72.2,8.5
3.0,91.4,73.0,82.4,82.2,9.2
3.5,102.9,84.5,92.9,93.4,9.2
4.0,111.0,91.1,103.0,101.7,10.0
4.5,120.0,100.3,112.3,110.9,9.9
5.0,129.2,112.6,118.3,120.0,8.4
5.5,131.5,126.6,129.9,129.3,2.5
6.0,140.7,134.5,138.9,138.0,3.2
6.5,143.7,142.2,145.7,143.9,1.7
7.0,150.1,154.4,153.0,152.5,2.2
7.5,154.4,159.7,160.3,158.1,3.2
8.0,157.6,168.7,167.3,164.5,6.1
8.5,166.7,171.0,173.6,170.4,3.5
9.0,169.8,176.6,177.7,174.7,4.3
9.5,174.7,181.4,185.4,180.5,5.4
10.0,180.3,186.4,188.6,185.1,4.3
10.5,181.3,190.0,190.1,187.1,5.0
11.0,186.9,193.8,196.9,192.5,5.2
11.5,190.9,196.5,199.1,195.5,4.2
12.0,189.5,203.6,199.1,197.4,7.2
12.5,197.0,208.3,207.5,204.3,6.3
13.0,199.7,209.6,210.4,206.6,6.0
13.5,207.9,215.4,211.7,211.7,3.7
14.0,207.4,225.6,215.1,216.0,9.1
14.5,210.2,227.7,216.8,218.2,8.8
15.0,210.2,233.2,216.6,220.0,11.8
15.5,219.9,240.2,221.3,227.1,11.4
16.0,227.1,246.3,222.3,231.9,12.7
16.5,235.5,242.5,226.0,234.7,8.3
17.0,233.7,249.7,226.8,236.7,11.7
17.5,237.8,249.5,228.0,238.5,10.8
18.0,245.6,255.3,232.7,244.5,11.3
18.5,246.7,262.0,237.1,248.6,12.6
19.0,250.2,258.8,231.8,246.9,13.8
19.5,243.0,261.6,237.6,247.4,12.6
20.0,253.7,263.5,240.4,252.5,11.6
20.5,255.9,273.5,241.3,256.9,16.1
21.0,260.9,272.7,244.3,259.3,14.3
21.5,260.5,278.2,243.3,260.7,17.5
22.0,267.2,277.2,247.9,264.1,14.9
22.5,275.1,284.6,254.8,271.5,15.2
23.0,282.0,283.1,258.0,274.3,14.1
23.5,293.8,281.9,263.9,279.8,15.1
24.0,312.1,294.0,257.6,287.9,27.8
24.5,303.7,301.1,276.4,293.8,15.1
25.0,303.1,299.8,272.2,291.7,17.0
25.5,304.8,291.5,279.7,292.0,12.6
26.0,320.2,297.6,287.4,301.8,16.8
26.5,310.3,304.4,291.1,301.9,9.8
27.0,326.7,322.8,295.4,315.0,17.1
27.5,323.9,315.4,301.1,313.5,11.5
28.0,323.5,323.9,313.0,320.1,6.2
28.5,333.2,327.7,324.8,328.6,4.3
29.0,344.7,345.5,328.3,339.5,9.7
29.5,344.6,345.9,331.0,340.5,8.3
30.0,356.5,349.7,328.0,344.7,14.8
30.5,344.6,364.2,339.7,349.5,12.9
31.0,354.8,360.0,350.2,355.0,4.9
31.5,362.4,373.1,358.0,364.5,7.8
32.0,371.2,388.3,371.0,376.9,9.9
32.5,381.0,394.3,372.3,382.5,11.1
33.0,372.7,398.9,371.9,381.2,15.3
33.5,385.6,385.3,396.0,389.0,6.1
34.0,396.1,399.0,396.2,397.1,1.6
34.5,392.7,396.6,407.0,398.8,7.4
35.0,396.5,410.6,396.7,401.2,8.1
35.5,406.2,396.8,403.5,402.2,4.8
36.0,438.0,400.8,401.4,413.4,21.3
36.5,429.3,403.8,424.3,419.1,13.5
37.0,430.9,415.9,426.2,424.3,7.7
37.5,446.6,410.6,421.8,426.4,18.4
38.0,466.4,408.6,435.2,436.7,28.9
38.5,447.3,419.5,438.5,435.1,14.2
39.0,464.4,416.4,418.5,433.1,27.1
39.5,442.0,421.4,426.4,430.0,10.8
40.0,450.5,406.1,428.8,428.4,22.2
40.5,466.7,399.8,431.0,432.5,33.5
41.0,454.8,423.0,440.8,439.5,15.9
41.5,463.2,423.5,431.0,439.2,21.1
42.0,452.4,426.7,431.0,436.7,13.8
42.5,462.6,436.1,434.3,444.3,15.9
43.0,462.2,444.9,450.9,452.7,8.8
43.5,456.5,420.2,437.6,438.1,18.1
44.0,468.2,423.8,439.9,444.0,22.5
44.5,471.4,420.4,432.6,441.5,26.6
45.0,473.5,424.9,428.1,442.2,27.2
45.5,475.8,434.3,415.2,441.8,31.0
46.0,469.7,414.6,434.0,439.5,28.0
46.5,459.6,420.4,432.7,437.5,20.1
47.0,461.1,420.8,417.5,433.1,24.3
47.5,452.0,412.7,422.6,429.1,20.4
48.0,465.2,421.9,415.2,434.1,27.2
48.5,449.6,398.1,419.0,422.2,25.9
49.0,442.5,411.3,408.0,420.6,19.0
49.5,446.1,412.9,418.1,425.7,17.9
50.0,445.1,394.3,405.4,414.9,26.7
50.5,439.6,398.3,402.6,413.5,22.7
51.0,423.8,406.0,404.4,411.4,10.8
51.5,429.6,408.3,398.8,412.2,15.8
52.0,431.2,397.4,398.1,408.9,19.3
52.5,441.7,392.6,388.1,407.4,29.7
53.0,425.7,380.4,392.7,399.6,23.4
53.5,410.3,393.2,398.9,400.8,8.7
54.0,424.1,387.9,412.6,408.2,18.5
54.5,406.1,390.8,408.8,401.9,9.7
55.0,401.5,396.3,409.4,402.4,6.6
55.5,404.5,391.3,398.6,398.1,6.6
56.0,404.3,381.7,398.4,394.8,11.7
56.5,402.0,372.5,392.7,389.1,15.1
57.0,407.2,393.8,384.7,395.2,11.3
57.5,394.4,390.3,392.3,392.3,2.1
58.0,388.4,375.0,396.2,386.6,10.7
58.5,380.8,376.0,391.2,382.7,7.8
59.0,385.2,372.8,388.9,382.3,8.4
59.5,373.3,376.6,393.2,381.1,10.7
60.0,371.4,372.1,377.9,373.8,3.6
60.5,352.9,372.0,373.4,366.1,11.4
61.0,354.5,368.7,380.2,367.8,12.9
61.5,341.1,365.0,360.4,355.5,12.6
62.0,327.7,362.4,359.0,349.7,19.1
62.5,322.1,350.5,355.7,342.8,18.0
63.0,306.2,340.7,346.6,331.2,21.8
63.5,295.1,332.5,341.8,323.1,24.7
64.0,284.2,318.1,344.4,315.6,30.2
64.5,277.0,306.6,329.1,304.3,26.1
65.0,259.1,302.0,314.7,291.9,29.1
65.5,252.2,290.9,316.2,286.4,32.2
66.0,244.1,288.0,306.3,279.5,31.9
66.5,239.9,271.2,297.2,269.4,28.7
67.0,223.2,260.8,286.9,257.0,32.0
67.5,218.4,256.1,278.8,251.1,30.5
68.0,210.9,240.6,278.2,243.3,33.7
68.5,210.4,236.7,274.1,240.4,32.0
69.0,197.4,227.2,267.5,230.7,35.1
69.5,191.8,222.6,261.8,225.4,35.1
70.0,182.4,212.1,241.5,212.0,29.5
70.5,175.7,211.5,231.3,206.2,28.2
71.0,164.6,202.7,215.5,194.3,26.5
71.5,159.0,197.9,205.2,187.4,24.8
72.0,147.5,194.3,187.3,176.4,25.3
72.5,141.4,181.0,176.9,166.4,21.8
73.0,135.5,175.7,164.5,158.6,20.7
73.5,127.3,164.4,155.1,148.9,19.3
74.0,118.7,152.5,146.2,139.1,18.0
74.5,114.2,142.6,134.6,130.5,14.7
75.0,108.4,130.5,128.6,122.5,12.3
75.5,100.9,120.1,121.2,114.1,11.4
76.0,96.2,109.1,114.4,106.6,9.4
76.5,90.3,99.6,109.1,99.7,9.4
77.0,84.5,90.8,103.8,93.0,9.8
77.5,79.2,85.0,98.9,87.7,10.1
78.0,73.2,77.6,93.4,81.4,10.6
78.5,67.7,72.7,88.9,76.4,11.1
79.0,60.7,67.9,83.4,70.7,11.6
79.5,58.0,65.3,78.4,67.2,10.4
80.0,53.3,61.1,75.3,63.2,11.1
80.5,49.3,56.8,70.2,58.7,10.6
81.0,46.0,52.5,66.5,55.0,10.5
81.5,41.7,50.3,62.0,51.3,10.2
82.0,38.7,46.0,59.6,48.1,10.6
82.5,36.5,43.7,56.3,45.5,10.0
83.0,34.5,39.7,52.7,42.3,9.4
83.5,31.6,37.9,51.9,40.4,10.4

File: Overstuffed_Chair_Polyurethane_Foam_HRRPUA_50.csv
Time after Ignition,Overstuffed_Chair_Polyurethane_Foam_R1,Overstuffed_Chair_Polyurethane_Foam_R2,Overstuffed_Chair_Polyurethane_Foam_R3,Mean,Std. Dev.
0.0,12.8,6.0,28.3,15.7,11.4
0.25,16.3,6.7,35.0,19.3,14.4
0.5,19.9,11.4,41.1,24.1,15.3
0.75,29.5,15.3,47.3,30.7,16.0
1.0,38.6,19.3,52.8,36.9,16.8
1.25,46.7,22.9,57.8,42.5,17.8
1.5,54.9,31.7,60.5,49.0,15.2
1.75,59.7,40.5,68.9,56.4,14.5
2.0,70.7,47.3,77.7,65.2,16.0
2.25,79.6,54.8,87.2,73.9,17.0
2.5,90.3,66.8,91.1,82.7,13.8
2.75,95.7,79.6,101.3,92.2,11.3
3.0,100.8,88.9,111.7,100.5,11.4
3.25,111.9,99.7,117.8,109.8,9.2
3.5,120.6,109.4,125.3,118.4,8.2
3.75,129.3,119.4,131.4,126.7,6.4
4.0,135.5,130.0,141.3,135.6,5.7
4.25,147.4,138.3,150.6,145.4,6.4
4.5,156.3,142.8,155.5,151.5,7.6
4.75,161.5,155.6,163.9,160.4,4.3
5.0,167.9,159.6,170.7,166.0,5.8
5.25,175.8,166.7,180.8,174.5,7.1
5.5,181.3,172.2,188.4,180.6,8.1
5.75,188.4,177.0,191.6,185.7,7.6
6.0,196.2,186.1,193.9,192.1,5.3
6.25,199.0,192.6,204.1,198.6,5.8
6.5,206.1,200.8,209.7,205.5,4.5
6.75,210.2,196.1,212.5,206.2,8.9
7.0,216.2,208.3,223.6,216.0,7.7
7.25,223.1,205.3,223.4,217.3,10.4
7.5,228.8,214.5,231.4,224.9,9.1
7.75,231.5,212.5,230.9,224.9,10.8
8.0,232.1,224.8,236.4,231.1,5.8
8.25,242.4,225.4,243.5,237.1,10.1
8.5,244.6,233.4,247.5,241.8,7.4
8.75,246.8,233.1,250.2,243.4,9.0
9.0,246.0,244.0,250.8,247.0,3.5
9.25,253.4,245.1,251.9,250.2,4.4
9.5,258.9,251.5,258.7,256.4,4.2
9.75,258.7,260.2,264.7,261.2,3.1
10.0,256.4,254.6,258.9,256.6,2.2
10.25,258.2,260.7,258.9,259.3,1.3
10.5,265.7,276.8,276.7,273.1,6.3
10.75,268.0,278.7,267.2,271.3,6.5
11.0,268.9,282.8,268.4,273.4,8.2
11.25,263.5,285.6,267.7,272.3,11.7
11.5,271.6,285.7,286.3,281.2,8.3
11.75,271.1,290.1,276.8,279.3,9.8
12.0,274.7,297.4,288.2,286.7,11.4
12.25,270.6,292.7,280.9,281.4,11.1
12.5,274.1,296.5,285.5,285.4,11.2
12.75,273.3,294.0,292.5,286.6,11.5
13.0,280.1,300.4,285.5,288.7,10.5
13.25,279.9,300.1,288.8,289.6,10.1
13.5,280.6,314.1,301.6,298.7,16.9
13.75,284.3,312.8,299.4,298.9,14.3
14.0,281.6,317.2,297.8,298.9,17.8
14.25,280.7,317.1,307.5,301.8,18.8
14.5,288.3,313.0,300.2,300.5,12.3
14.75,287.8,322.6,297.0,302.5,18.1
15.0,282.8,325.8,305.8,304.8,21.5
15.25,288.0,332.7,309.8,310.1,22.4
15.5,288.4,321.4,314.7,308.2,17.4
15.75,289.0,322.6,318.3,310.0,18.3
16.0,292.1,332.3,316.7,313.7,20.3
16.25,300.9,328.5,321.1,316.8,14.3
16.5,298.1,332.2,313.3,314.5,17.1
16.75,295.4,336.9,308.7,313.7,21.2
17.0,302.4,338.5,321.2,320.7,18.0
17.25,314.8,356.3,326.6,332.6,21.4
17.5,317.4,379.9,334.2,343.8,32.3
17.75,316.6,363.5,331.8,337.3,23.9
18.0,336.7,374.1,330.3,347.0,23.7
18.25,331.9,399.5,347.1,359.5,35.4
18.5,348.0,413.7,373.7,378.5,33.1
18.75,366.9,423.9,368.4,386.4,32.5
19.0,360.8,442.1,389.2,397.4,41.3
19.25,361.2,421.0,401.7,394.6,30.5
19.5,379.6,422.9,420.7,407.7,24.4
19.75,392.6,453.6,417.7,421.3,30.6
20.0,407.1,481.8,503.6,464.1,50.6
20.25,424.9,490.1,522.3,479.1,49.6
20.5,449.3,514.7,516.5,493.5,38.3
20.75,461.1,507.8,517.8,495.6,30.3
21.0,491.7,544.6,585.5,540.6,47.0
21.25,525.9,507.8,585.4,539.7,40.6
21.5,518.9,505.8,645.9,556.9,77.4
21.75,514.8,577.4,624.8,572.4,55.2
22.0,556.6,628.3,755.1,646.7,100.5
22.25,559.5,541.7,630.4,577.2,47.0
22.5,563.0,596.1,731.8,630.3,89.4
22.75,634.7,597.9,708.0,646.9,56.1
23.0,586.2,606.6,743.1,645.3,85.3
23.25,600.1,667.7,752.3,673.4,76.2
23.5,642.5,639.8,807.2,696.5,95.9
23.75,645.0,683.0,848.8,725.6,108.4
24.0,637.5,689.1,810.1,712.2,88.6
24.25,684.0,676.5,805.7,722.0,72.5
24.5,691.7,756.0,901.1,782.9,107.3
24.75,674.9,791.4,917.6,794.6,121.4
25.0,723.2,786.3,944.9,818.1,114.2
25.25,712.9,769.2,879.4,787.1,84.7
25.5,697.5,766.6,892.8,785.6,99.0
25.75,775.0,747.8,934.1,818.9,100.7
26.0,750.2,796.5,1036.5,861.1,153.7
26.25,785.1,865.2,1013.0,887.7,115.6
26.5,753.5,869.2,1020.4,881.0,133.8
26.75,782.8,813.6,992.1,862.9,113.0
27.0,756.6,833.8,980.7,857.0,113.8
27.25,803.0,898.6,967.6,889.7,82.6
27.5,754.0,874.9,1055.3,894.7,151.6
27.75,755.6,856.6,1060.3,890.8,155.2
28.0,837.4,902.6,1069.7,936.6,119.8
28.25,786.6,902.9,1053.6,914.4,133.9
28.5,820.0,886.0,986.5,897.5,83.9
28.75,795.2,869.7,1053.1,906.0,132.7
29.0,818.5,918.9,1004.5,914.0,93.1
29.25,798.7,831.9,1139.2,923.3,187.7
29.5,815.1,888.8,1084.2,929.4,139.0
29.75,821.7,907.5,1064.7,931.3,123.2
30.0,858.7,866.8,1109.9,945.1,142.7
30.25,870.9,865.2,1078.5,938.2,121.5
30.5,804.3,871.7,1028.0,901.3,114.8
30.75,824.3,876.1,1085.3,928.6,138.2
31.0,825.1,854.3,1061.5,913.6,128.9
31.25,833.2,880.0,1026.3,913.1,100.7
31.5,812.8,892.6,994.5,900.0,91.1
31.75,840.0,880.8,1071.7,930.8,123.7
32.0,829.9,872.4,960.7,887.7,66.7
32.25,796.7,897.9,1024.7,906.5,114.2
32.5,772.3,856.0,1035.9,888.1,134.7
32.75,838.4,811.1,1040.3,896.6,125.2
33.0,799.3,849.2,1017.9,888.8,114.6
33.25,824.0,843.7,1022.5,896.7,109.4
33.5,855.4,814.7,991.5,887.2,92.6
33.75,755.2,804.1,985.5,848.3,121.4
34.0,817.0,798.6,1001.5,872.4,112.2
34.25,792.6,772.2,956.8,840.5,101.2
34.5,800.5,782.0,967.6,850.0,102.2
34.75,790.5,772.3,935.3,832.7,89.3
35.0,768.3,781.2,938.8,829.5,94.9
35.25,772.9,779.1,901.6,817.9,72.5
35.5,740.1,705.0,903.0,782.7,105.7
35.75,734.7,740.1,913.4,796.1,101.7
36.0,782.0,719.8,883.2,795.0,82.5
36.25,714.4,695.4,865.1,758.3,93.0
36.5,734.4,703.2,837.4,758.3,70.2
36.75,724.0,690.3,818.8,744.4,66.6
37.0,706.1,658.2,793.0,719.1,68.3
37.25,682.4,643.4,754.5,693.4,56.3
37.5,684.4,609.3,739.0,677.6,65.1
37.75,681.8,584.6,710.7,659.0,66.1
38.0,703.7,579.7,678.9,654.1,65.6
38.25,670.4,559.9,640.1,623.5,57.1
38.5,665.7,540.7,611.7,606.0,62.7
38.75,636.9,537.1,586.1,586.7,49.9
39.0,640.6,509.3,564.7,571.5,65.9
39.25,612.2,485.5,529.7,542.4,64.3
39.5,613.9,479.1,506.7,533.2,71.2
39.75,598.3,465.9,491.1,518.4,70.3
40.0,598.2,450.4,457.3,502.0,83.4
40.25,583.1,438.3,440.5,487.3,83.0
40.5,566.5,419.2,425.3,470.3,83.3
40.75,559.7,401.9,394.3,452.0,93.4
41.0,551.6,402.6,380.7,445.0,93.0
41.25,534.8,389.6,366.7,430.4,91.2
41.5,511.5,377.0,351.6,413.3,85.9
41.75,499.7,366.2,334.2,400.0,87.8
42.0,473.3,363.3,323.8,386.8,77.5
42.25,461.3,346.4,303.7,370.5,81.5
42.5,439.1,342.9,294.8,358.9,73.5
42.75,433.7,328.6,285.1,349.1,76.4
43.0,413.2,320.6,282.5,338.8,67.2

File: Overstuffed_Chair_Polyurethane_Foam_HRRPUA_75.csv
Time after Ignition,Overstuffed_Chair_Polyurethane_Foam_R1,Overstuffed_Chair_Polyurethane_Foam_R2,Overstuffed_Chair_Polyurethane_Foam_R3,Mean,Std. Dev.
0.0,33.6,29.5,6.9,23.3,14.4
0.25,38.7,34.0,7.9,26.9,16.6
0.5,47.0,33.8,8.8,29.9,19.4
0.75,57.4,37.4,14.1,36.3,21.6
1.0,63.2,41.1,19.5,41.3,21.8
1.25,77.7,51.8,24.2,51.3,26.7
1.5,90.1,60.5,28.4,59.7,30.9
1.75,100.5,68.1,39.7,69.4,30.4
2.0,109.2,77.6,48.8,78.5,30.2
2.25,117.5,92.9,56.8,89.1,30.5
2.5,130.4,107.0,64.6,100.7,33.3
2.75,142.6,115.4,82.6,113.5,30.1
3.0,148.8,128.7,96.8,124.8,26.2
3.25,156.9,136.7,125.2,139.6,16.1
3.5,170.3,148.4,121.7,146.8,24.3
3.75,179.7,161.3,135.3,158.8,22.3
4.0,189.0,174.1,152.1,171.7,18.6
4.25,204.5,179.2,158.5,180.7,23.0
4.5,209.5,193.5,172.4,191.8,18.6
4.75,220.2,207.4,183.3,203.6,18.7
5.0,224.0,219.9,185.2,209.7,21.3
5.25,237.2,224.6,203.2,221.7,17.2
5.5,236.8,235.7,212.0,228.2,14.0
5.75,244.7,241.8,219.1,235.2,14.1
6.0,256.3,256.1,230.0,247.5,15.1
6.25,262.8,266.1,237.8,255.6,15.5
6.5,272.3,270.9,245.7,263.0,15.0
6.75,280.1,278.2,249.6,269.3,17.1
7.0,283.0,290.4,268.7,280.7,11.0
7.25,286.7,294.3,266.6,282.5,14.3
7.5,300.2,306.1,273.5,293.3,17.4
7.75,300.3,306.3,294.2,300.3,6.0
8.0,308.6,313.2,290.6,304.1,11.9
8.25,310.6,316.5,297.6,308.2,9.7
8.5,321.5,328.3,302.8,317.5,13.2
8.75,324.2,323.8,308.7,318.9,8.8
9.0,322.8,335.8,323.8,327.5,7.2
9.25,329.0,339.2,314.0,327.4,12.7
9.5,331.5,345.3,322.4,333.0,11.5
9.75,346.1,336.6,330.7,337.8,7.8
10.0,338.1,345.2,335.7,339.7,5.0
10.25,340.9,355.6,342.1,346.2,8.1
10.5,343.4,357.3,341.6,347.4,8.6
10.75,352.6,359.8,348.8,353.7,5.6
11.0,345.7,357.7,353.7,352.4,6.1
11.25,357.0,362.4,365.7,361.7,4.4
11.5,366.9,371.2,364.2,367.4,3.5
11.75,364.9,389.5,364.1,372.8,14.5
12.0,377.7,383.6,367.4,376.2,8.2
12.25,374.6,373.0,378.1,375.3,2.6
12.5,378.9,404.1,383.8,388.9,13.4
12.75,376.4,411.2,380.7,389.4,18.9
13.0,402.0,423.5,389.8,405.1,17.0
13.25,387.4,427.1,400.0,404.8,20.3
13.5,417.1,444.1,396.3,419.2,24.0
13.75,434.6,478.5,391.7,434.9,43.4
14.0,456.3,478.5,413.0,449.3,33.3
14.25,433.3,481.8,426.3,447.1,30.2
14.5,435.9,527.5,452.5,472.0,48.8
14.75,465.1,525.9,436.2,475.7,45.8
15.0,465.2,530.5,491.7,495.8,32.9
15.25,514.7,587.6,482.2,528.1,54.0
15.5,494.4,570.8,540.9,535.4,38.5
15.75,521.2,611.4,497.7,543.4,60.0
16.0,462.4,619.3,554.2,545.3,78.9
16.25,539.2,718.4,587.5,615.0,92.7
16.5,566.1,655.0,592.3,604.5,45.7
16.75,609.5,738.8,613.4,653.9,73.6
17.0,613.8,729.4,670.5,671.2,57.8
17.25,657.2,827.6,667.4,717.4,95.6
17.5,639.0,810.4,685.1,711.5,88.7
17.75,678.8,882.6,765.9,775.8,102.3
18.0,718.2,893.2,809.3,806.9,87.5
18.25,727.5,854.2,840.4,807.4,69.5
18.5,742.4,1074.0,797.8,871.4,177.7
18.75,704.1,988.4,933.8,875.5,150.9
19.0,791.5,913.9,849.5,851.6,61.3
19.25,856.0,886.3,943.3,895.2,44.3
19.5,815.6,1143.1,1053.3,1004.0,169.2
19.75,922.8,986.9,945.5,951.8,32.5
20.0,862.5,1163.4,974.4,1000.1,152.1
20.25,854.5,1072.7,1041.0,989.4,117.9
20.5,929.0,1123.1,953.8,1002.0,105.7
20.75,1000.3,1171.1,1056.2,1075.9,87.1
21.0,1032.3,1185.1,1109.9,1109.1,76.4
21.25,1027.1,1115.4,1064.0,1068.9,44.4
21.5,883.0,1259.0,1141.1,1094.4,192.3
21.75,1002.3,1188.4,1090.2,1093.7,93.1
22.0,1053.8,1117.6,1046.6,1072.7,39.1
22.25,1034.7,1200.8,1119.6,1118.4,83.0
22.5,1125.1,1286.2,1089.1,1166.8,105.0
22.75,1069.4,1226.0,1179.7,1158.4,80.4
23.0,1041.6,1189.4,1107.2,1112.7,74.0
23.25,1055.6,1255.4,1129.0,1146.7,101.1
23.5,1086.5,1341.6,1171.1,1199.7,129.9
23.75,1126.4,1361.5,1156.1,1214.6,128.0
24.0,1147.5,1211.5,1232.9,1197.3,44.5
24.25,1029.9,1411.1,1278.1,1239.7,193.5
24.5,1185.5,1390.8,1244.9,1273.7,105.6
24.75,1067.7,1234.4,1219.1,1173.7,92.1
25.0,1040.1,1319.9,1178.6,1179.5,139.9
25.25,1125.5,1248.9,1104.4,1159.6,78.1
25.5,1138.7,1296.7,1216.0,1217.1,79.0
25.75,1064.8,1327.4,1257.6,1216.6,136.0
26.0,1109.9,1317.6,1228.5,1218.7,104.2
26.25,1107.0,1272.3,1153.5,1177.6,85.3
26.5,1105.0,1278.8,1204.4,1196.0,87.2
26.75,1078.8,1280.8,1220.5,1193.4,103.7
27.0,1056.7,1263.3,1246.5,1188.9,114.8
27.25,1121.7,1249.2,1201.1,1190.7,64.4
27.5,1057.0,1235.3,1201.1,1164.5,94.6
27.75,1042.6,1185.3,1201.4,1143.1,87.4
28.0,995.5,1139.5,1219.3,1118.1,113.4
28.25,1015.4,1096.2,1175.9,1095.8,80.3
28.5,993.3,1053.8,1144.1,1063.7,75.9
28.75,968.4,1016.5,1138.8,1041.3,87.9
29.0,941.2,991.6,1112.3,1015.0,87.9
29.25,951.3,924.4,1078.0,984.6,82.0
29.5,921.4,903.3,1041.5,955.4,75.1
29.75,907.0,864.8,1046.6,939.5,95.2
30.0,894.8,832.6,1015.9,914.4,93.2
30.25,859.4,791.7,954.1,868.4,81.6
30.5,827.5,754.3,916.4,832.7,81.2
30.75,834.5,722.2,887.0,814.6,84.2
31.0,798.2,701.0,865.5,788.2,82.7
31.25,783.7,655.8,815.8,751.8,84.6
31.5,771.2,610.9,769.3,717.1,92.0
31.75,757.5,591.3,743.2,697.4,92.1
32.0,711.3,576.2,707.1,664.9,76.8
32.25,687.7,535.3,682.1,635.0,86.5
32.5,673.5,503.5,647.7,608.2,91.6
32.75,646.6,474.5,615.9,579.0,91.8
33.0,615.1,457.5,588.1,553.6,84.3
33.25,601.5,428.3,568.8,532.9,92.0
33.5,584.2,408.0,540.0,510.7,91.7
33.75,576.3,385.9,525.4,495.9,98.6
34.0,547.1,374.0,504.1,475.1,90.2
34.25,536.0,358.9,481.9,458.9,90.8
34.5,525.2,338.5,451.5,438.4,94.0
34.75,504.7,321.1,442.6,422.8,93.4
35.0,485.2,306.3,425.8,405.8,91.1
35.25,472.3,296.3,412.1,393.6,89.4
35.5,450.6,280.6,389.7,373.6,86.1
35.75,446.0,269.5,369.9,361.8,88.5
36.0,435.4,,354.9,395.2,56.9
36.25,420.4,,336.6,378.5,59.3
36.5,409.7,,329.0,369.4,57.0
36.75,393.8,,309.2,351.5,59.8
37.0,384.7,,,384.7,
37.25,368.3,,,368.3,
37.5,357.1,,,357.1,
37.75,341.6,,,341.6,
38.0,320.7,,,320.7,
38.25,308.8,,,308.8,