Folder: fsri_materials_database/01_Data/Pallet_Wood/Cone (part 2)

File: Pallet_Wood_Cone_HF35Scan_180728_R3.csv
Names,Time,Stack TC,Smoke TC,Exh Press,Smoke Comp,Smoke Meas,CO Meter,CO2 Meter,O2 Meter,Sample Mass,Ext Coeff,Start Test,Flame Verif
Chan Gain,,500,500,1,1,1,1,1,1,1,1,1,1
Offset,,0,0,0.124825,0,0,0,0,0,0,0,0,0
Gain,,1,1,25.011,13.6595,14.2307,1,1,1,1.00094,1.03371,1,1
Units,sec,C,C,Pa,%,%,%,%,%,g,/m,,
Baseline,,33.684,35.6605,170.561,100.102,99.4177,0.0112125,0.0629392,20.8762,-918.978,0.0622268,,
37,9,33.7042,35.6641,169.22,100.421,100.001,0.0114997,0.0655389,20.8748,58.8654,0.038031,0,0
74,18.25,34.39,36.1078,170.352,100.469,99.452,0.0108745,0.06371703,20.8764,58.8854,0.0922718,0,0
111,27.5,34.5573,37.2426,166.134,100.518,99.046,0.0111942,0.0633726,20.8756,58.8353,0.133808,0,0
148,36.75,34.6965,36.2046,169.23,100.539,98.7993,0.01105359,0.0634884,20.8768,58.7453,0.158299,0,0
185,46,35.6686,36.7603,172.469,100.593,97.7288,0.0114182,0.0641815,20.8747,58.6652,0.261897,0,0
222,55.25,35.8968,37.534,166.904,100.639,100.118,0.01216856,0.0907288,20.8388,58.4149,0.0470695,0,1
259,64.5,41.0576,46.1836,157.597,100.681,99.0503,0.01290761,0.24796,20.673,57.8744,0.148064,0,0
296,73.75,44.0703,52.382,156.152,100.702,99.1706,0.0133885,0.28006,20.6416,57.1538,0.138935,0,0
333,83,47.6663,54.8218,155.329,100.721,100.116,0.0134122,0.282934,20.6358,56.303,0.0546637,0,0
370,92.25,48.7814,55.8227,164.339,100.75,99.1415,0.0134698,0.2738235,20.6443,55.6323,0.14595,0,0
407,101.5,48.0673,57.0701,159.375,100.779,98.699,0.0132705,0.264554,20.6565,54.8916,0.189066,0,0
444,110.75,48.7882,55.0777,160.724,100.781,99.178,0.0133899,0.253613,20.6664,54.181,0.145389,0,0
481,120,48.3656,55.5829,157.07,100.796,99.1958,0.0132129,0.243433,20.6787,53.5003,0.145073,0,0
518,129.25,49.0852,54.4192,161.693,100.794,99.138,0.0133351,0.235587,20.6887,52.8597,0.150167,0,0
555,138.5,49.0856,53.9627,159.904,100.803,99.5784,0.0132938,0.226756,20.6971,52.2291,0.110842,0,0
592,147.75,48.5028,54.5076,160.165,100.817,99.8993,0.0130841,0.221435,20.7033,51.5585,0.0829388,0,0
629,157,47.9983,54.7599,160.614,100.816,99.7083,0.0136861,0.216521,20.7085,50.9579,0.100225,0,0
666,166.25,48.5398,53.1853,160.367,100.831,100.032,0.0136674,0.211822,20.7134,50.3073,0.0720841,0,0
703,175.5,48.7154,54.6468,159.219,100.823,100.273,0.0133811,0.211126,20.7148,49.7368,0.04955,0,0
740,184.75,48.9096,53.9881,164.278,100.826,99.3825,0.0133734,0.205762,20.7197,49.1262,0.130719,0,0
777,194,49.5952,53.4488,168.245,100.827,99.8042,0.0132813,0.201542,20.7253,48.4556,0.0924377,0,0
814,203.25,48.9347,54.1202,162.006,100.834,100.124,0.013655,0.201133,20.7249,47.9451,0.0640795,0,0
851,212.5,49.3703,54.1134,163.579,100.821,100.367,0.0137917,0.201691,20.7246,47.3245,0.0409207,0,0
888,221.75,49.4765,53.1057,159.867,100.827,99.8481,0.0134337,0.199955,20.7259,46.6939,0.0884907,0,0
925,231,49.5074,53.0096,166.702,100.798,100.063,0.013872,0.196859,20.728,46.1034,0.0662882,0,0
962,240.25,49.5152,54.0495,160.162,100.783,100.45,0.01393282,0.198856,20.7262,45.4327,0.0299801,0,0
999,249.5,49.1937,54.9764,162.584,100.772,99.244,0.0137383,0.198996,20.7262,44.8922,0.138531,0,0
1036,258.75,50.1365,54.2974,159.142,100.73,99.3578,0.0136571,0.199219,20.7265,44.2616,0.124389,0,0
1073,268,50.5574,53.9642,161.684,100.701,99.6744,0.013967,0.197466,20.7273,43.6511,0.09287744,0,0
1110,277.25,49.4036,54.1813,157.542,100.638,100.181,0.01405434,0.196561,20.7288,43.1306,0.0412952,0,0
1147,286.5,49.6671,53.0481,167.748,100.556,99.6488,0.0139539,0.197442,20.7267,42.48,0.0822115,0,0
1184,295.75,50.6281,54.5911,160.104,100.444,100.344,0.0138178,0.198878,20.7252,41.9595,0.009007363,0,0
1221,305,49.9344,54.5003,158.166,100.31,99.9532,0.0134814,0.200445,20.7239,41.2788,0.0322703,0,0
1258,314.25,50.1656,55.4944,156.881,100.156,99.5854,0.0134394,0.200374,20.7255,40.7583,0.0517869,0,0
1295,323.5,51.0214,54.6484,156.167,99.9986,99.2648,0.013192,0.201776,20.7238,40.1578,0.0667775,0,0
1332,332.75,50.9569,54.6234,159.622,99.7889,99.5007,0.0133451,0.203815,20.7232,39.5672,0.0262301,0,0
1369,342,50.8833,55.3095,152.786,99.5905,99.1741,0.0132276,0.205611,20.7192,38.9967,0.0379923,0,0
1406,351.25,51.9854,55.4661,154.735,99.415,99.2019,0.0135992,0.207332,20.7187,38.3361,0.0194577,0,0
1443,360.5,50.6585,56.3477,159.455,99.2036,98.3437,0.0137327,0.209422,20.714,37.8056,0.0789416,0,0
1480,369.75,51.6073,56.2128,160.849,99.0102,98.3033,0.0134059,0.213083,20.7115,37.175,0.0649704,0,0
1517,379,51.1829,57.0498,159.033,98.8476,97.2841,0.0129634,0.213214,20.7119,36.6245,0.144579,0,0
1554,388.25,51.3212,57.3798,162.646,98.7814,98.3103,0.0131499,0.214798,20.7095,36.0239,0.0433448,0,0
1591,397.5,52.2205,57.4204,160.933,98.796,97.7288,0.0129091,0.218728,20.7034,35.4934,0.09848,0,0
1628,406.75,52.7023,57.4023,160.98,98.8472,98.2304,0.0130713,0.222345,20.7,34.8228,0.0567629,0,0
1665,416,52.7647,56.6312,153.774,99.0261,98.0497,0.01314809,0.224834,20.6962,34.2522,0.0898458,0,0
1702,425.25,53.4247,58.138,158.761,99.2366,98.2994,0.0131309,0.227953,20.6915,33.6416,0.08603587,0,0
1739,434.5,52.5307,58.4429,162.273,99.4312,98.9257,0.0129353,0.232172,20.6854,33.0811,0.0462221,0,0
1776,443.75,54.0093,57.9435,165.538,99.6096,98.9548,0.0130024,0.23517,20.6852,32.4505,0.059812,0,0
1813,453,53.4868,60.2113,159.697,99.7918,98.289,0.0132483,0.244714,20.6754,31.8199,0.137592,0,0
1850,462.25,54.2915,59.1271,154.769,99.9882,99.3395,0.01289447,0.248829,20.6704,31.2394,0.059012,0,0
1887,471.5,55.2273,60.9823,155.073,100.1278,98.4627,0.01297853,0.25617,20.6622,30.5487,0.152059,0,0
1924,480.75,56.3987,61.5244,160.858,100.242,99.5467,0.01333,0.265034,20.6536,29.8581,0.0631156,0,0
1961,490,56.9937,62.3485,154.041,100.286,98.5622,0.0130754,0.274703,20.6412,29.1574,0.157201,0,0
1998,499.25,57.2062,63.4036,158.174,100.284,98.3072,0.0129122,0.284127,20.6309,28.4468,0.180533,0,0
2035,508.5,58.3006,63.8253,151.67,100.21,97.9946,0.0133032,0.295714,20.6171,27.636,0.202747,0,0
2072,517.75,58.9723,64.6504,157.433,100.082,99.1102,0.0138121,0.307369,20.6041,26.8352,0.0884683,0,0
2109,527,59.7821,67.1308,151.235,99.974,97.4052,0.0141799,0.320367,20.5886,25.9844,0.23603,0,0
2146,536.25,60.0146,68.4071,152.775,99.9015,97.5594,0.0136495,0.33482,20.5732,25.1437,0.215109,0,0
2183,545.5,62.3849,69.2628,151.261,99.9256,98.5704,0.0137849,0.349671,20.556,24.2128,0.123817,0,0
2220,554.75,62.427,70.6338,148.701,100.331,97.1677,0.0135428,0.35831,20.5453,23.3119,0.290478,0,0
2257,564,63.9256,71.3114,150.535,100.61,98.5748,0.014141,0.365262,20.5384,22.301,0.185281,0,0
2294,573.25,64.8716,72.293,151.168,100.749,97.4695,0.0140615,0.366018,20.5359,21.3701,0.300065,0,0
2331,582.5,64.4362,72.8115,149.093,100.759,97.7444,0.0139458,0.365398,20.5375,20.4392,0.275426,0,0
2368,591.75,65.2019,72.2266,153.368,100.637,97.9685,0.0138988,0.35969,20.5421,19.5284,0.2437,0,0
2405,601,65.008,72.7416,154.581,100.386,96.9775,0.01414674,0.356429,20.5455,18.6175,0.313218,0,0
2442,610.25,64.1379,72.9915,153.143,100.139,97.2676,0.0138788,0.343808,20.5582,17.7467,0.263815,0,0
2479,619.5,64.2635,72.2794,149.681,100.33,98.5266,0.0137877,0.334131,20.5665,16.9559,0.164435,0,0
2516,628.75,65.2446,71.1928,157.961,100.549,98.4045,0.0136446,0.324266,20.5767,16.0851,0.195505,0,0
2553,638,63.4536,70.3819,154.797,100.715,97.7957,0.0132367,0.311421,20.5887,15.3444,0.266697,0,0
2590,647.25,63.9788,69.8397,154.07,100.801,98.6034,0.0132982,0.299355,20.6028,14.6037,0.199873,0,0
2627,656.5,63.2504,68.3665,150.193,100.79,98.5465,0.0130121,0.280189,20.6238,14.0232,0.20413,0,0
2664,665.75,62.2862,66.3931,156.101,100.709,98.6608,0.012855,0.258054,20.6483,13.4326,0.186349,0,0
2701,675,61.1594,65.2272,150.718,100.57,99.254,0.01289612,0.241438,20.6646,12.9222,0.119408,0,0
2738,684.25,59.7892,63.0249,157.757,100.396,99.1545,0.01301461,0.220288,20.6882,12.4917,0.112812,0,0
2775,693.5,58.0162,62.2816,154.939,100.167,99.0959,0.01360087,0.204201,20.7081,12.0914,0.0975197,0,0
2812,702.75,56.8205,60.644,156.694,99.8077,99.1233,0.01439124,0.191056,20.7216,11.661,0.062391,0,0
2849,712,56.0644,59.418,156.369,99.4988,98.4914,0.0149854,0.182057,20.7314,11.4508,0.0922729,0,0
2886,721.25,55.7591,58.8644,156.967,99.2107,97.5611,0.0155159,0.170945,20.7428,11.1205,0.152035,0,0
2923,730.5,55.3628,56.8382,158.497,98.989,97.2645,0.015696,0.163856,20.7518,10.9203,0.159354,0,0
2960,739.75,55.1319,56.2525,158.307,98.8593,97.6133,0.0158671,0.155225,20.7609,10.68,0.115018,0,0
2997,749,53.5895,55.8809,160.578,98.7893,98.4419,0.0176853,0.147334,20.7701,10.3998,0.0319429,0,0
3034,758.25,52.9357,53.3705,160.217,98.7805,97.6671,0.0180933,0.142217,20.7767,10.1896,0.102787,0,0
3071,767.5,51.5665,53.5892,164.624,98.8472,97.9286,0.01764968,0.136423,20.7803,10.0294,0.0846674,0,0
3108,776.75,51.4351,52.7921,160.135,98.9585,98.0792,0.0188016,0.129741,20.7853,9.91933,0.0809292,0,0
3145,786,50.814,51.9769,160.086,99.1182,98.5431,0.0196299,0.121177,20.7955,9.71914,0.052766,0,0
3182,795.25,50.4645,50.9547,160.631,99.3762,99.062,0.0199609,0.117844,20.7999,9.68911,0.028713,0,0
3219,804.5,49.7109,50.8251,164.255,99.623,98.8723,0.0203928,0.11431,20.8039,9.50894,0.0685907,0,0
3256,813.75,49.6571,50.1644,162.864,99.8739,99.3391,0.0204934,0.114788,20.8019,9.40885,0.0486878,0,0
3293,823,48.6595,50.2198,160.298,100.08,99.7269,0.0204885,0.11262,20.806,9.27873,0.0320334,0,0
3330,832.25,48.0162,49.385,165.888,100.204,99.4937,0.0202953,0.112849,20.8057,9.20866,0.0644734,0,0
3367,841.5,48.6196,49.2425,163.709,100.259,99.3682,0.0201184,0.112059,20.8052,9.06853,0.080897,0,0
3404,850.75,48.098,48.9364,159.875,100.231,99.029,0.0201369,0.11214,20.8069,9.0385,0.109375,0,0
3441,860,47.7834,48.6796,159.804,100.143,99.8477,0.0194374,0.112751,20.8076,9.00847,0.0268013,0,0
3478,869.25,46.94,49.159,164.007,100.004,99.4103,0.0193706,0.110212,20.8099,8.90838,0.0540265,0,0
3515,878.5,47.4263,49.1823,163.857,99.886,99.571,0.0194954,0.111671,20.8085,8.80829,0.0286408,0,0
3552,887.75,47.4676,48.214,160.738,99.8323,99.1281,0.0190943,0.110855,20.8102,8.73822,0.0641879,0,0
3589,897,47.0868,48.1231,162.409,100.077,99.839,0.0191417,0.109437,20.8114,8.65814,0.0216255,0,0
3626,906.25,46.5486,48.494,163.064,100.446,99.9167,0.01883922,0.108967,20.8098,8.57807,0.047933,0,0
3663,915.5,46.5573,48.6845,166.919,100.665,100.094,0.0187728,0.10939,20.8128,8.48798,0.051601,0,0
3700,924.75,46.5966,47.6758,164.443,100.747,100.198,,,,8.40791,0.0495575,0,0
3715,928.5,47.1003,48.634,161.552,100.736,100.262,,,,8.35786,0.042808,0,0

File: Pallet_Wood_HRRPUA_35.csv
Time after Ignition,Pallet_Wood_R1,Pallet_Wood_R2,Pallet_Wood_R3,Mean,Std. Dev.
0.0,6.2,11.5,12.6,10.1,3.4
2.75,37.3,49.2,48.7,45.1,6.8
5.5,71.8,76.0,74.8,74.2,2.2
8.25,92.6,96.1,98.0,95.6,2.7
11.0,107.6,109.0,107.3,108.0,0.9
13.75,115.4,116.9,111.4,114.6,2.9
16.5,120.2,119.8,115.9,118.6,2.4
19.25,127.4,122.1,118.4,122.6,4.6
22.0,127.1,121.7,120.0,122.9,3.7
24.75,128.6,122.4,118.8,123.3,4.9
27.5,128.0,125.2,120.1,124.4,4.0
30.25,127.2,121.4,120.6,123.1,3.6
33.0,127.2,124.4,119.6,123.8,3.8
35.75,128.7,119.0,116.5,121.4,6.4
38.5,123.5,118.6,116.5,119.5,3.6
41.25,120.8,115.5,112.0,116.1,4.4
44.0,120.6,115.2,110.7,115.5,4.9
46.75,118.8,112.0,110.0,113.6,4.6
49.5,116.6,110.5,107.5,111.5,4.6
52.25,113.4,107.6,107.4,109.4,3.4
55.0,110.4,107.9,105.0,107.8,2.7
57.75,110.6,106.9,104.8,107.4,2.9
60.5,109.6,105.9,101.6,105.7,4.0
63.25,105.7,105.4,100.6,103.9,2.8
66.0,103.8,103.5,97.8,101.7,3.4
68.75,103.9,100.8,96.1,100.3,4.0
71.5,102.8,99.8,95.4,99.3,3.8
74.25,102.5,98.6,92.7,97.9,4.9
77.0,100.6,97.7,93.2,97.2,3.8
79.75,98.2,97.1,90.3,95.2,4.3
82.5,96.6,95.4,89.0,93.7,4.1
85.25,95.6,95.2,89.6,93.5,3.3
88.0,95.5,94.0,88.4,92.6,3.8
90.75,94.7,94.2,88.3,92.4,3.6
93.5,93.0,93.6,86.8,91.1,3.8
96.25,92.0,93.0,87.6,90.9,2.9
99.0,89.9,90.9,85.2,88.7,3.0
101.75,89.5,89.8,83.8,87.7,3.4
104.5,88.5,90.9,85.1,88.2,2.9
107.25,88.1,89.8,82.3,86.7,3.9
110.0,86.2,89.5,81.8,85.8,3.9
112.75,86.6,90.5,81.6,86.3,4.5
115.5,86.1,87.2,84.0,85.8,1.7
118.25,84.4,87.6,81.9,84.6,2.8
121.0,83.7,84.6,81.4,83.2,1.7
123.75,84.7,84.8,80.0,83.2,2.7
126.5,82.7,83.9,78.8,81.8,2.7
129.25,81.3,83.5,78.7,81.1,2.4
132.0,80.3,82.8,77.1,80.1,2.9
134.75,77.9,80.7,77.7,78.8,1.7
137.5,77.4,79.4,76.3,77.7,1.6
140.25,76.9,79.1,76.0,77.3,1.6
143.0,76.1,78.1,74.9,76.4,1.6
145.75,76.1,79.0,76.6,77.2,1.6
148.5,75.0,78.4,76.4,76.6,1.7
151.25,75.1,79.2,75.0,76.4,2.4
154.0,75.1,80.5,74.9,76.8,3.2
156.75,74.0,79.5,76.5,76.7,2.7
159.5,72.0,81.2,76.6,76.6,4.6
162.25,71.7,79.9,75.7,75.8,4.1
165.0,71.4,80.3,76.4,76.0,4.5
167.75,71.8,79.7,74.8,75.4,4.0
170.5,71.1,80.5,75.7,75.8,4.7
173.25,70.9,79.5,72.6,74.3,4.6
176.0,69.7,78.2,73.9,73.9,4.2
178.75,68.9,78.0,74.8,73.9,4.6
181.5,67.8,77.9,75.9,73.9,5.4
184.25,67.5,76.7,75.9,73.4,5.1
187.0,66.4,75.0,74.9,72.1,4.9
189.75,66.6,74.7,75.7,72.3,5.0
192.5,65.7,73.9,74.8,71.4,5.0
195.25,64.0,73.1,75.9,71.0,6.2
198.0,65.8,72.8,75.0,71.2,4.8
200.75,66.8,74.2,75.0,72.0,4.5
203.5,67.7,73.9,75.4,72.3,4.1
206.25,66.6,73.4,75.2,71.7,4.5
209.0,65.2,73.8,74.7,71.2,5.3
211.75,65.7,73.6,73.9,71.0,4.7
214.5,67.6,74.2,73.8,71.9,3.7
217.25,66.6,71.5,73.3,70.4,3.5
220.0,66.5,73.3,73.7,71.2,4.1
222.75,67.4,72.2,73.1,70.9,3.1
225.5,66.2,72.4,74.3,70.9,4.2
228.25,65.7,71.9,74.5,70.7,4.5
231.0,65.0,72.3,73.4,70.2,4.5
233.75,65.9,72.0,74.7,70.9,4.5
236.5,65.6,73.5,75.7,71.6,5.3
239.25,64.9,72.1,74.6,70.5,5.0
242.0,65.0,71.4,75.5,70.6,5.3
244.75,64.5,71.3,76.0,70.6,5.8
247.5,64.3,71.8,76.3,70.8,6.0
250.25,64.1,73.2,75.9,71.1,6.2
253.0,63.9,72.8,76.0,70.9,6.3
255.75,62.9,72.0,75.5,70.1,6.5
258.5,63.6,72.3,75.9,70.6,6.3
261.25,63.3,71.6,74.7,69.9,5.9
264.0,63.0,72.2,75.8,70.3,6.6
266.75,63.0,72.6,76.2,70.6,6.8
269.5,62.0,72.5,75.8,70.1,7.2
272.25,61.9,72.3,77.8,70.6,8.0
275.0,63.7,72.3,76.3,70.7,6.4
277.75,63.8,71.9,76.2,70.7,6.3
280.5,64.3,74.9,75.8,71.7,6.4
283.25,64.2,73.3,77.3,71.6,6.8
286.0,63.6,73.7,78.5,71.9,7.6
288.75,63.6,74.0,79.0,72.2,7.9
291.5,63.8,73.8,79.3,72.3,7.9
294.25,64.4,74.2,78.9,72.5,7.4
297.0,64.5,74.8,77.7,72.4,6.9
299.75,66.0,75.4,79.7,73.7,7.0
302.5,65.8,76.4,79.7,74.0,7.3
305.25,65.4,76.4,81.0,74.3,8.0
308.0,66.0,76.2,80.7,74.3,7.5
310.75,66.6,76.9,81.8,75.1,7.7
313.5,68.3,75.6,80.8,74.9,6.3
316.25,68.2,76.3,82.5,75.6,7.2
319.0,67.4,77.1,82.8,75.8,7.8
321.75,68.6,77.6,82.7,76.3,7.1
324.5,67.7,78.3,81.8,75.9,7.3
327.25,69.6,78.7,81.1,76.5,6.0
330.0,70.2,79.6,81.0,76.9,5.9
332.75,71.3,81.6,83.4,78.8,6.5
335.5,70.5,81.1,83.1,78.2,6.8
338.25,71.6,81.5,84.7,79.3,6.8
341.0,72.0,82.8,85.1,79.9,7.0
343.75,72.8,84.4,86.9,81.4,7.5
346.5,73.1,85.1,85.5,81.3,7.0
349.25,74.2,87.2,88.1,83.2,7.8
352.0,75.5,86.1,88.1,83.3,6.8
354.75,76.4,88.0,88.5,84.3,6.8
357.5,77.6,88.8,87.4,84.6,6.1
360.25,78.0,87.7,88.7,84.8,5.9
363.0,79.2,89.8,89.5,86.1,6.0
365.75,80.0,92.2,91.2,87.8,6.7
368.5,82.4,91.1,89.0,87.5,4.6
371.25,84.2,93.1,92.2,89.8,4.9
374.0,84.1,92.1,92.8,89.7,4.8
376.75,83.7,90.8,94.4,89.6,5.4
379.5,85.6,92.9,94.9,91.2,4.9
382.25,85.1,93.1,93.2,90.5,4.7
385.0,85.9,94.5,95.3,91.9,5.2
387.75,88.6,97.1,93.1,92.9,4.3
390.5,86.6,97.5,94.6,92.9,5.6
393.25,88.8,99.5,97.3,95.2,5.7
396.0,89.7,99.5,97.5,95.6,5.2
398.75,91.1,99.6,101.0,97.3,5.3
401.5,92.9,103.0,98.3,98.1,5.0
404.25,91.0,102.8,100.9,98.3,6.3
407.0,93.8,106.3,100.4,100.2,6.2
409.75,95.5,108.3,101.2,101.6,6.4
412.5,95.7,108.7,104.2,102.9,6.6
415.25,96.6,110.0,105.0,103.9,6.8
418.0,100.1,112.4,105.8,106.1,6.1
420.75,100.5,113.3,104.9,106.2,6.5
423.5,103.8,115.0,109.1,109.3,5.6
426.25,105.2,117.5,109.8,110.9,6.2
429.0,105.8,121.0,109.4,112.1,7.9
431.75,108.1,121.6,111.7,113.8,7.0
434.5,110.8,123.2,116.7,116.9,6.2
437.25,113.0,125.3,115.4,117.9,6.5
440.0,116.3,126.8,116.1,119.7,6.1
442.75,116.7,129.8,119.9,122.1,6.8
445.5,118.0,133.2,120.1,123.8,8.3
448.25,120.6,134.6,120.4,125.2,8.2
451.0,124.1,134.2,123.8,127.4,5.9
453.75,126.9,134.8,124.5,128.7,5.4
456.5,128.6,138.1,127.7,131.5,5.7
459.25,128.9,144.6,130.1,134.5,8.7
462.0,132.5,146.0,132.0,136.8,8.0
464.75,131.6,147.7,134.7,138.0,8.5
467.5,136.9,152.4,136.0,141.8,9.2
470.25,138.4,152.4,136.4,142.4,8.7
473.0,139.4,155.7,139.8,145.0,9.3
475.75,142.0,156.0,141.6,146.5,8.2
478.5,145.0,159.6,142.3,149.0,9.3
481.25,144.1,156.8,144.1,148.3,7.4
484.0,149.4,161.7,147.2,152.8,7.8
486.75,149.7,162.0,148.0,153.2,7.7
489.5,146.3,163.9,152.2,154.1,8.9
492.25,152.5,163.4,154.6,156.8,5.8
495.0,151.0,165.0,154.7,156.9,7.2
497.75,147.4,165.1,155.9,156.2,8.8
500.5,144.6,170.5,158.3,157.8,12.9
503.25,145.0,162.7,160.3,156.0,9.6
506.0,145.3,169.4,161.7,158.8,12.3
508.75,144.1,165.1,162.2,157.2,11.4
511.5,143.4,163.0,160.0,155.5,10.6
514.25,143.9,165.9,160.8,156.9,11.5
517.0,144.7,168.7,162.8,158.8,12.5
519.75,142.2,165.2,161.4,156.2,12.3
522.5,141.4,164.8,163.2,156.5,13.1
525.25,141.2,163.7,158.0,154.3,11.7
528.0,141.2,162.0,161.7,155.0,11.9
530.75,139.9,161.1,162.8,154.6,12.7
533.5,142.7,162.2,161.9,155.6,11.2
536.25,138.0,162.1,159.0,153.1,13.1
539.0,138.2,154.1,159.5,150.6,11.1
541.75,136.5,160.4,154.7,150.6,12.5
544.5,135.7,155.1,158.3,149.7,12.2
547.25,133.8,157.2,156.4,149.1,13.3
550.0,130.5,151.6,155.0,145.7,13.3
552.75,132.4,150.3,152.6,145.1,11.0
555.5,132.3,146.6,152.1,143.7,10.3
558.25,129.6,143.0,150.2,140.9,10.4
561.0,126.2,140.2,149.9,138.8,11.9
563.75,124.6,141.4,147.4,137.8,11.8
566.5,123.3,134.8,145.9,134.7,11.3
569.25,122.5,133.4,145.8,133.9,11.7
572.0,118.9,129.3,142.6,130.2,11.9
574.75,117.0,129.1,142.4,129.5,12.7
577.5,114.5,126.4,142.6,127.8,14.1
580.25,110.2,119.3,139.9,123.1,15.2
583.0,111.2,118.0,138.5,122.6,14.2
585.75,107.1,114.1,135.7,119.0,14.9
588.5,105.3,111.9,133.5,116.9,14.8
591.25,102.5,109.1,132.4,114.7,15.7
594.0,97.8,106.1,129.0,111.0,16.2
596.75,96.5,104.0,126.6,109.0,15.6
599.5,93.7,100.4,125.3,106.5,16.6
602.25,89.9,98.1,119.9,102.6,15.5
605.0,86.6,94.4,116.9,99.3,15.8
607.75,85.5,91.3,113.4,96.7,14.7
610.5,83.2,86.8,110.7,93.5,14.9
613.25,81.4,82.3,106.7,90.1,14.3
616.0,79.8,82.6,106.2,89.5,14.5
618.75,77.1,78.6,103.1,86.2,14.6
621.5,76.9,76.5,101.4,84.9,14.3
624.25,74.7,73.2,95.2,81.0,12.3
627.0,74.1,73.0,93.5,80.2,11.5
629.75,73.2,70.8,92.4,78.8,11.9
632.5,70.5,68.8,89.0,76.1,11.2
635.25,69.3,66.9,83.2,73.1,8.8
638.0,67.9,64.2,82.8,71.6,9.9
640.75,68.1,63.0,81.3,70.8,9.4
643.5,65.8,60.1,78.8,68.3,9.6
646.25,64.0,56.4,77.1,65.8,10.4
649.0,62.5,54.2,75.7,64.1,10.8
651.75,61.1,53.1,75.9,63.4,11.5
654.5,59.0,50.9,72.0,60.6,10.6
657.25,58.9,49.6,71.1,59.9,10.8
660.0,59.1,47.4,69.7,58.7,11.1
662.75,57.9,45.8,68.0,57.3,11.1
665.5,57.7,45.1,67.6,56.8,11.2
668.25,55.8,43.5,65.3,54.9,10.9
671.0,53.9,42.7,64.4,53.7,10.9
673.75,53.6,42.0,63.2,52.9,10.6
676.5,52.3,41.1,60.6,51.3,9.8
679.25,52.3,41.2,60.7,51.4,9.8
682.0,52.3,39.6,59.8,50.6,10.2
684.75,51.7,,57.3,54.5,3.9
687.5,50.9,,55.2,53.0,3.1
690.25,48.8,,54.0,51.4,3.7
693.0,48.5,,53.8,51.1,3.7
695.75,48.6,,52.0,50.3,2.4
698.5,47.8,,51.9,49.9,2.9
701.25,46.9,,50.1,48.5,2.2
704.0,46.4,,50.0,48.2,2.5
706.75,46.2,,49.5,47.9,2.4
709.5,46.0,,48.8,47.4,2.0
712.25,44.4,,48.0,46.2,2.5
715.0,44.2,,47.5,45.9,2.3
717.75,42.7,,47.0,44.8,3.1
720.5,41.5,,45.7,43.6,3.0
723.25,41.3,,44.8,43.0,2.5
726.0,42.3,,43.1,42.7,0.6
728.75,41.5,,41.6,41.6,0.1
731.5,41.5,,40.2,40.9,1.0
734.25,40.8,,39.7,40.3,0.8
737.0,41.6,,39.1,40.3,1.8
739.75,40.0,,39.0,39.5,0.7
742.5,39.3,,38.7,39.0,0.5
745.25,39.7,,37.4,38.6,1.6
748.0,39.4,,37.1,38.2,1.6
750.75,38.4,,36.4,37.4,1.5
753.5,37.9,,36.4,37.1,1.0
756.25,37.5,,,37.5,
759.0,36.8,,,36.8,
761.75,36.6,,,36.6,
764.5,36.3,,,36.3,
767.25,35.8,,,35.8,
770.0,35.3,,,35.3,
772.75,34.5,,,34.5,
775.5,34.4,,,34.4,
778.25,34.1,,,34.1,
781.0,35.2,,,35.2,
783.75,35.1,,,35.1,
786.5,34.1,,,34.1,
789.25,33.7,,,33.7,
792.0,33.1,,,33.1,
794.75,33.2,,,33.2,
797.5,33.7,,,33.7,
800.25,33.9,,,33.9,
803.0,33.1,,,33.1,
805.75,32.2,,,32.2,
808.5,31.8,,,31.8,
811.25,31.7,,,31.7,
812.0,31.3,,,31.3,