Folder: fsri_materials_database/01_Data/Latex_Pillow_Foam/Cone (part 4)

File: Latex_Pillow_Foam_Cone_HF50Scan_230628_R2.csv
Names,Time,Stack TC,Smoke TC,Exh Press,Smoke Comp,Smoke Meas,CO Meter,CO2 Meter,O2 Meter,Sample Mass,Ext Coeff,Start Test,Flame Verif
Chan Gain,,500,500,1,1,1,1,1,1,1,1,1.0,1.0
Offset,,0,0,0.13804,0,0,0,0,0,0,0,0.0,0.0
Gain,,1,1,25.011,12.9078,45.9244,1,1,1,1.00091,0.969894,1.0,1.0
Units,sec,C,C,Pa,%,%,%,%,%,g,/m,,
Baseline,,58.5101,60.0361,155.629,100.324,67.0257,0.000786396,0.0474711,20.932,-444.978,3.43152,,
10,2.25,54.9932,56.2239,155.806,99.3515,63.9154,0.000954877,0.0513796,20.9294,70.3443,3.75284,0.0,0.0
20,4.75,55.3555,56.9078,151.143,99.4165,61.5146,0.00127004,0.0519456,20.9272,70.2842,4.08413,0.0,0.0
30,7.25,55.9036,57.6356,137.74,99.4618,38.3268,0.00164057,0.0517491,20.9264,69.8638,8.11328,0.0,1.0
40,9.75,59.6555,65.8055,125.183,99.5043,36.5105,0.00192246,0.0511237,20.926,69.4635,8.52998,0.0,1.0
50,12.25,65.0421,76.1553,114.097,99.5874,31.6809,0.00181856,0.0502837,20.9259,68.9029,9.74422,0.0,1.0
60,14.75,71.3557,86.5991,117.502,99.5969,28.8232,0.00217945,0.0935786,20.9232,68.2323,10.5493,0.0,1.0
70,17.25,77.3641,95.9927,110.882,99.6536,31.1525,0.00659591,0.314609,20.8912,67.8019,9.89296,0.0,0.0
80,19.75,83.3023,105.426,114.436,99.6891,30.0145,0.0155528,0.615986,20.5079,67.0913,10.2126,0.0,0.0
90,22.25,88.9027,112.941,109.524,99.7166,28.8765,0.0271075,0.856197,20.0092,66.4507,10.5438,0.0,0.0
100,24.75,93.8836,120.495,108.953,99.76,27.6236,0.0378598,1.02978,19.5795,65.9603,10.9249,0.0,0.0
110,27.25,98.7875,126.978,107.672,99.7816,28.4799,0.0459403,1.13728,19.2658,65.3097,10.667,0.0,0.0
120,29.75,103.059,132.978,104.561,99.8187,27.4778,0.0507553,1.19275,19.0698,64.7291,10.9749,0.0,0.0
130,32.25,107.906,138.2,117.543,99.8321,27.6628,0.0546496,1.24586,18.971,64.1386,10.919,0.0,0.0
140,34.75,111.826,144.316,109.937,99.8502,29.4581,0.0573965,1.27226,18.866,63.5781,10.3855,0.0,0.0
150,37.25,115.816,148.695,98.8134,99.851,26.5416,0.0590876,1.28859,18.8163,62.9675,11.2726,0.0,0.0
160,39.75,119.636,153.517,114.809,99.8908,25.1401,0.0602192,1.31133,18.7905,62.337,11.7375,0.0,0.0
170,42.25,122.96,157.436,101.023,99.8927,26.6019,0.0610495,1.34173,18.7499,61.7064,11.2569,0.0,0.0
180,44.75,125.771,161.031,115.845,99.8821,25.1289,0.0617468,1.36249,18.7079,61.1959,11.7406,0.0,0.0
190,47.25,129.103,164.252,104.831,99.9053,25.0098,0.0617858,1.37734,18.6624,60.4152,11.783,0.0,0.0
200,49.75,132.231,168.75,103.517,99.8644,27.503,0.0611254,1.37966,18.6476,59.8447,10.971,0.0,0.0
210,52.25,135.396,172.423,107.15,99.8455,27.8198,0.0609238,1.39054,18.6358,59.2842,10.872,0.0,0.0
220,54.75,138.121,174.375,101.481,99.8155,24.1689,0.0611536,1.41326,18.623,58.6336,12.0663,0.0,0.0
230,57.25,140.305,177.09,104.482,99.7962,29.1176,0.0618853,1.43762,18.5849,58.043,10.4799,0.0,0.0
240,59.75,142.379,179.542,109.52,99.771,28.8513,0.0627045,1.45098,18.5432,57.4925,10.5559,0.0,0.0
250,62.25,144.463,180.749,111.547,99.7478,28.4168,0.0634599,1.4373,18.5222,56.882,10.683,0.0,0.0
260,64.75,146.003,181.802,103.564,99.7178,27.5114,0.0640739,1.41892,18.5291,56.3215,10.9559,0.0,0.0
270,67.25,147.443,183.106,94.8596,99.6773,27.845,0.0641387,1.41274,18.5563,55.7509,10.8499,0.0,0.0
280,69.75,149.072,184.441,102.4,99.6343,23.8199,0.0638055,1.39301,18.5661,55.0703,12.1746,0.0,0.0
290,72.25,150.835,186.545,106.445,99.6032,23.7624,0.0634676,1.35711,18.5976,54.5398,12.1925,0.0,0.0
300,74.75,153.224,189.679,98.8286,99.589,22.41,0.0635885,1.33918,18.6488,53.8092,12.6898,0.0,0.0
310,77.25,156.121,193.863,101.684,99.5804,21.5761,0.0642507,1.35015,18.6785,53.1285,13.0117,0.0,0.0
320,79.75,158.92,197.444,104.136,99.5677,22.9902,0.0656464,1.39235,18.6734,52.518,12.4705,0.0,0.0
330,82.25,160.588,198.908,105.274,99.5681,21.7695,0.0687199,1.47641,18.618,51.8874,12.9347,0.0,0.0
340,84.75,161.287,198.378,127.583,99.552,25.241,0.0733588,1.57264,18.4866,51.3769,11.6745,0.0,0.0
350,87.25,160.762,196.198,119.729,99.5571,25.8619,0.0775832,1.62141,18.312,50.9065,11.4682,0.0,0.0
360,89.75,159.629,192.259,123.259,99.5213,33.308,0.0792209,1.59253,18.2119,50.4961,9.31245,0.0,0.0
370,92.25,156.307,185.668,132.71,99.5236,39.2658,0.0768447,1.48083,18.2196,50.2259,7.91264,0.0,0.0
380,94.75,152.829,178.06,133.173,99.5035,43.6133,0.0717895,1.34323,18.3811,50.0057,7.01754,0.0,0.0
390,97.25,148.818,170.415,139.742,99.5,55.6998,0.0644863,1.16213,18.6003,49.9056,4.93609,0.0,0.0
400,99.75,144.379,162.353,140.628,99.4941,62.1916,0.0559226,0.962749,18.8204,49.9156,3.99765,0.0,0.0
410,102.25,139.019,154.344,147.915,99.4882,65.9798,0.0460407,0.751461,19.198,49.9456,3.49409,0.0,0.0
420,104.75,134.587,147.302,147.545,99.4957,66.6722,0.0360956,0.58097,19.5942,49.8856,3.40591,0.0,0.0
430,107.25,130.188,140.505,145.769,99.4724,67.0618,0.0262982,0.43012,19.9076,49.8255,3.35435,0.0,0.0
440,109.75,125.885,134.572,147.115,99.4791,66.3891,0.0185697,0.315871,20.2108,49.8255,3.4407,0.0,0.0
450,112.25,121.982,129.151,153.639,99.4661,67.3617,0.0139713,0.234302,20.4091,49.8455,3.31585,0.0,0.0
460,114.75,118.916,124.638,149.678,99.4578,67.1697,0.0124008,0.176219,20.5933,49.8656,3.33943,0.0,0.0
470,117.25,115.75,119.912,148.255,99.4322,67.4738,0.0120577,0.140871,20.7153,50.0357,3.2988,0.0,0.0
480,119.75,112.917,116.304,151.385,99.4232,67.0744,0.0114121,0.118645,20.7821,49.8355,3.34854,0.0,0.0
490,122.25,110.31,113.041,148.561,99.4031,66.745,0.0104841,0.103403,20.8188,49.8555,3.3887,0.0,0.0
500,124.75,107.842,109.613,148.271,99.3999,67.3729,0.00900713,0.0918351,20.8438,49.8355,3.30877,0.0,0.0
510,127.25,105.464,106.994,146.605,99.3885,67.0295,0.0073491,0.0824396,20.8636,49.8355,3.35127,0.0,0.0
520,129.75,103.392,104.461,145.375,99.3822,66.539,0.00596285,0.0747155,20.8801,49.8055,3.41322,0.0,0.0
530,132.25,101.354,101.653,153.603,99.3645,66.8487,0.00489399,0.0687092,20.8918,49.8656,3.37219,0.0,0.0
540,134.75,99.2273,99.6892,147.887,99.3542,66.5096,0.00383033,0.064033,20.9008,49.8555,3.41459,0.0,0.0
550,137.25,97.7626,97.7523,147.417,99.3495,66.4395,0.00290757,0.0606021,20.908,49.8455,3.42315,0.0,0.0
560,139.75,96.3999,96.2899,146.074,99.3117,67.2874,0.0021947,0.0583059,20.9134,49.8555,3.31202,0.0,0.0
570,142.25,94.8834,94.2672,145.929,99.3109,66.2377,0.00168426,0.056615,20.9184,49.8255,3.44573,0.0,0.0
580,144.75,92.7382,93.5645,151.269,99.2861,66.5194,0.00138955,0.0549695,20.9198,49.8555,3.40749,0.0,0.0
590,147.25,91.3719,91.786,145.878,99.2727,66.2419,0.00121209,0.0530885,20.9214,49.8255,3.44191,0.0,0.0
600,149.75,90.1478,91.0202,149.838,99.2684,66.6511,0.00111184,0.0514142,20.9234,49.8155,3.38914,0.0,0.0
610,152.25,89.5545,89.1329,149.01,99.2534,66.902,0.00101222,0.0500789,20.9257,49.8155,3.3559,0.0,0.0
620,154.75,87.9604,88.3088,148.47,99.2534,66.9791,0.000987041,0.049069,20.9286,49.8355,3.3461,0.0,0.0
630,157.25,87.461,86.8494,145.939,99.2443,66.738,0.00103053,0.0483788,20.9311,49.7855,3.376,0.0,0.0
640,159.75,86.4372,86.1754,150.22,99.2428,66.326,0.00107977,0.0479322,20.932,49.8155,3.42855,0.0,0.0
650,162.25,85.7389,85.374,151.096,99.2601,66.5656,0.00105945,0.0477709,20.9323,49.7354,3.39935,0.0,0.0
660,164.75,84.2031,83.9351,151.823,99.2786,66.4605,0.00092304,0.0474826,20.9324,49.7755,3.41438,0.0,0.0
670,167.25,83.4792,83.6706,146.406,99.3302,66.6133,0.000810204,0.0473466,20.9321,49.8055,3.39927,0.0,0.0
680,169.75,82.9493,82.5398,147.774,99.3854,66.6035,0.000790894,0.0471281,20.9317,49.8055,3.40525,0.0,0.0
690,172.25,82.1519,82.2212,151.05,99.4102,66.9426,0.000858638,0.047009,20.9316,49.8155,3.36416,0.0,0.0
700,174.75,81.5986,81.547,150.858,99.4622,66.4956,0.00108028,0.0467933,20.9328,49.7955,3.42562,0.0,0.0
710,177.25,80.5495,80.9255,150.632,99.5733,66.5895,0.00108494,0.0467188,20.9335,49.8055,3.42311,0.0,0.0
720,179.75,80.275,80.4962,149.402,99.5717,66.4087,0.000962182,0.04663,20.933,49.8055,3.4461,0.0,0.0
730,182.25,79.6998,79.8651,153.483,99.6505,66.6946,0.000889671,0.0465763,20.9336,49.7755,3.41628,0.0,0.0
740,184.75,79.2275,79.1109,149.908,99.6989,67.2538,0.000852891,0.0465246,20.9336,49.7354,3.34938,0.0,0.0
750,187.25,78.5057,78.5544,154.511,99.7454,66.483,0.000777981,0.0464716,20.9332,49.7454,3.45142,0.0,0.0
760,189.75,78.2457,78.4746,149.268,99.8175,67.0253,0.000685929,0.0463825,20.9319,49.7655,3.38844,0.0,0.0
770,192.25,77.7645,78.0407,146.47,99.8612,67.5425,0.000579533,0.0464966,20.9326,49.7855,3.32677,0.0,0.0
780,194.75,77.4758,77.2674,150.272,99.9002,67.1655,0.0006843,0.0466466,20.933,49.7655,3.37772,0.0,0.0
790,197.25,76.4548,77.4141,150.966,99.9242,67.0464,0.000814541,0.0467014,20.9329,49.7454,3.39487,0.0,0.0
800,199.75,76.3739,76.7524,152.798,99.9735,67.5313,0.000790333,0.046617,20.9316,49.7855,3.33775,0.0,0.0
810,202.25,76.0209,76.6849,150.513,100.042,67.0295,0.000709217,0.0465841,20.9312,49.7655,3.40699,0.0,0.0
820,204.75,75.9359,75.9315,149.546,100.04,67.1403,0.000864775,0.0465489,20.931,49.8155,3.39278,0.0,0.0
830,207.25,75.5235,75.6419,150.847,100.047,67.4402,0.00102904,0.0464929,20.931,49.8055,3.3555,0.0,0.0
840,209.75,75.1379,75.8629,150.48,100.058,67.6406,0.00102469,0.0464481,20.9309,49.7354,3.33119,0.0,0.0
850,212.25,74.8511,75.56,150.612,100.061,66.8572,0.000890826,0.0464352,20.9321,49.7054,3.43057,0.0,0.0
860,214.75,74.3574,75.2545,148.049,100.048,66.9062,0.00076075,0.0464555,20.9341,49.7655,3.42323,0.0,0.0
870,217.25,74.1675,74.856,152.465,100.077,67.1024,0.000575582,0.0463745,20.934,49.7454,3.40073,0.0,0.0
880,219.75,74.1733,74.5701,154.562,100.073,66.7212,0.000609592,0.0463696,20.9341,49.7555,3.4489,0.0,0.0
890,222.25,74.0738,74.3803,146.433,100.081,67.2664,0.000809986,0.0464266,20.9341,49.7354,3.3803,0.0,0.0
898,224.25,73.7123,74.4425,151.498,100.081,67.4374,0.000866429,0.0463964,20.9341,49.7254,3.35873,0.0,0.0

File: Latex_Pillow_Foam_Cone_HF50Scan_230628_R3.csv
Names,Time,Stack TC,Smoke TC,Exh Press,Smoke Comp,Smoke Meas,CO Meter,CO2 Meter,O2 Meter,Sample Mass,Ext Coeff,Start Test,Flame Verif
Chan Gain,,500,500,1,1,1,1,1,1,1,1,1.0,1.0
Offset,,0,0,0.13804,0,0,0,0,0,0,0,0.0,0.0
Gain,,1,1,25.011,12.9235,68.7969,1,1,1,1.00091,0.969894,1.0,1.0
Units,sec,C,C,Pa,%,%,%,%,%,g,/m,,
Baseline,,55.5055,58.0201,156.427,100.014,100.114,0.000767438,0.0447108,20.9336,-445.434,-0.00844003,,
10,2.25,52.9122,54.6252,160.532,99.4663,94.5685,0.00107121,0.0500843,20.9325,71.2851,0.429594,0.0,0.0
20,4.75,53.9347,57.3306,122.844,99.4816,60.2183,0.00107609,0.051032,20.9284,71.0149,4.27091,0.0,1.0
30,7.25,58.1786,65.6708,127.105,99.5518,50.9616,0.000948821,0.0502289,20.9269,70.5044,5.69691,0.0,1.0
40,9.75,63.7285,75.3394,125.107,99.5692,46.3363,0.000970645,0.0562255,20.9263,69.8939,6.50787,0.0,0.0
50,12.25,69.3195,86.1591,119.717,99.6161,44.8856,0.00225128,0.149956,20.9203,69.3634,6.78252,0.0,0.0
60,14.75,75.7843,96.4279,111.305,99.6544,41.4172,0.00786706,0.372645,20.7854,68.7328,7.47,0.0,0.0
70,17.25,82.2006,105.418,113.401,99.7017,45.824,0.0186721,0.630254,20.4482,68.0822,6.61377,0.0,0.0
80,19.75,88.1158,114.395,99.6377,99.7522,40.2309,0.0307739,0.861904,19.9662,67.4917,7.72557,0.0,0.0
90,22.25,93.6432,122.521,115.431,99.7968,43.229,0.0406883,1.02753,19.5755,66.8911,7.11786,0.0,0.0
100,24.75,98.9171,129.639,114.427,99.8216,41.329,0.0482406,1.16251,19.2931,66.2405,7.50239,0.0,0.0
110,27.25,103.53,136.441,101.594,99.8433,42.4984,0.0536568,1.2626,19.0549,65.72,7.26685,0.0,0.0
120,29.75,108.173,142.405,107.307,99.8603,41.1064,0.0577058,1.3208,18.858,65.0294,7.55162,0.0,0.0
130,32.25,112.496,147.435,98.5523,99.91,39.0405,0.0608232,1.35894,18.7402,64.3988,7.99456,0.0,0.0
140,34.75,117.153,152.661,98.0829,99.9127,39.5717,0.0625675,1.39428,18.6681,63.7883,7.87982,0.0,0.0
150,37.25,120.508,157.782,111.731,99.9707,37.0733,0.0641503,1.41795,18.616,63.1077,8.43962,0.0,0.0
160,39.75,124.225,162.142,105.777,99.9829,35.2845,0.0657157,1.42522,18.5739,62.4971,8.8614,0.0,0.0
170,42.25,128.405,167.009,107.694,100.05,35.9668,0.0661707,1.43922,18.5523,61.8265,8.70414,0.0,0.0
180,44.75,132.289,171.523,109.828,100.062,35.4587,0.0659444,1.46637,18.5361,61.0658,8.82623,0.0,0.0
190,47.25,135.441,175.276,112.738,100.089,37.2118,0.0668954,1.50295,18.5031,60.4953,8.41794,0.0,0.0
200,49.75,138.447,177.86,105.998,100.136,36.7142,0.0695486,1.53105,18.4359,59.8647,8.5365,0.0,0.0
210,52.25,140.377,179.527,103.875,100.14,36.2712,0.0727759,1.55736,18.3886,59.2441,8.64011,0.0,0.0
220,54.75,142.458,181.816,94.7772,100.202,35.866,0.0746125,1.5632,18.3395,58.5635,8.74095,0.0,0.0
230,57.25,144.904,183.589,96.5022,100.217,35.7863,0.0750138,1.55097,18.3227,57.9029,8.76114,0.0,0.0
240,59.75,146.426,183.905,100.012,100.248,38.9145,0.0748413,1.52581,18.3266,57.2923,8.05076,0.0,0.0
250,62.25,147.194,185.332,109.449,100.263,40.2435,0.0736944,1.50547,18.3654,56.7318,7.76639,0.0,0.0
260,64.75,149.182,186.16,105.952,100.282,35.2803,0.0718544,1.48514,18.3942,56.1013,8.88781,0.0,0.0
270,67.25,150.317,187.804,101.133,100.282,36.2985,0.0701605,1.45331,18.4312,55.5107,8.64573,0.0,0.0
280,69.75,152.457,190.657,102.438,100.272,33.0989,0.0692106,1.42706,18.4697,54.8701,9.43002,0.0,0.0
290,72.25,154.747,193.255,90.0723,100.284,30.7705,0.068389,1.40397,18.5273,54.1495,10.0516,0.0,0.0
300,74.75,157.72,197.354,91.4088,100.255,25.8744,0.0681668,1.41179,18.5686,53.3988,11.5235,0.0,0.0
310,77.25,161.054,203.485,106.281,100.246,27.7136,0.0686994,1.4659,18.5674,52.6481,10.9386,0.0,0.0
320,79.75,163.947,206.477,100.129,100.216,30.548,0.0707894,1.53782,18.4966,51.9975,10.1076,0.0,0.0
330,82.25,165.121,205.998,104.777,100.214,37.4449,0.0757597,1.64536,18.3749,51.5271,8.37545,0.0,0.0
340,84.75,163.62,201.903,123.45,100.174,43.5419,0.0827276,1.76427,18.1981,51.0466,7.0886,0.0,0.0
350,87.25,160.906,194.76,131.104,100.132,47.6065,0.0895273,1.81108,17.9969,50.8064,6.32578,0.0,0.0
360,89.75,156.323,185.528,139.153,100.096,79.1287,0.0898135,1.7147,17.8951,50.6963,1.99982,0.0,0.0
370,92.25,151.502,175.977,144.198,100.058,95.0955,0.0818805,1.46629,17.9493,50.6963,0.432802,0.0,0.0
380,94.75,145.986,165.704,143.429,100.036,99.7879,0.0676221,1.13489,18.3448,50.6963,0.0211393,0.0,0.0
390,97.25,140.545,157.508,142.895,99.9372,100.63,0.0524079,0.844067,18.9737,50.6663,-0.0587627,0.0,0.0
400,99.75,136.355,149.811,151.479,99.8693,101.394,0.0390131,0.594334,19.4456,50.6263,-0.128907,0.0,0.0
410,102.25,131.444,142.96,149.706,99.7731,101.577,0.0265889,0.398838,19.9024,50.6062,-0.152422,0.0,0.0
420,104.75,126.792,136.497,150.357,99.8102,100.821,0.0189777,0.268181,20.3127,50.6062,-0.0857181,0.0,0.0
430,107.25,122.964,131.107,146.225,99.8256,100.586,0.0157047,0.19342,20.546,50.6162,-0.0645408,0.0,0.0
440,109.75,119.731,126.159,149.269,99.8733,101.831,0.0139598,0.150899,20.6926,50.6162,-0.165135,0.0,0.0
450,112.25,116.487,122.053,148.14,99.9013,101.526,0.0125057,0.122959,20.7684,50.6263,-0.137278,0.0,0.0
460,114.75,113.583,118.059,149.199,99.9356,100.741,0.010776,0.103832,20.8094,50.6363,-0.0682998,0.0,0.0
470,117.25,110.904,114.711,151.142,99.9888,100.537,0.00889951,0.0891445,20.8445,50.6563,-0.0465517,0.0,0.0
480,119.75,108.428,111.011,151.703,100.032,100.342,0.00719088,0.0782903,20.868,50.6263,-0.0263546,0.0,0.0
490,122.25,106.206,108.187,149.735,100.098,101.961,0.00580483,0.0702948,20.8831,50.5962,-0.156909,0.0,0.0
500,124.75,103.587,105.689,147.58,100.14,100.743,0.00462949,0.0634447,20.8992,50.6062,-0.051069,0.0,0.0
510,127.25,101.284,102.781,148.901,100.167,100.449,0.00363273,0.0586176,20.9087,50.5962,-0.023931,0.0,0.0
520,129.75,99.2353,100.535,152.042,100.207,101.041,0.002813,0.0550187,20.9154,50.5962,-0.0705815,0.0,0.0
530,132.25,97.4146,98.9236,147.745,100.24,100.781,0.00215163,0.0522831,20.921,50.6062,-0.0457528,0.0,0.0
540,134.75,96.1007,96.617,151.901,100.273,100.987,0.00157455,0.0502244,20.9251,50.5862,-0.0603268,0.0,0.0
550,137.25,94.813,94.9611,149.222,100.298,101.785,0.0012732,0.0490198,20.9265,50.5962,-0.125202,0.0,0.0
560,139.75,92.6562,93.2902,151.676,100.36,101.524,0.00110469,0.0479381,20.9269,50.5662,-0.0980952,0.0,0.0
570,142.25,91.6236,91.9833,148.586,100.383,100.863,0.00108384,0.0470465,20.9286,50.5862,-0.0405535,0.0,0.0
580,144.75,90.7386,90.5815,151.097,100.433,101.134,0.000949608,0.0464721,20.9305,50.5862,-0.0591242,0.0,0.0
590,147.25,89.6208,89.2697,153.262,100.454,101.025,0.000725741,0.0461368,20.9314,50.5862,-0.0481978,0.0,0.0
600,149.75,88.4963,87.876,150.691,100.493,101.123,0.00057169,0.0458522,20.9317,50.5662,-0.053164,0.0,0.0
610,152.25,86.8714,86.9272,154.776,100.519,101.006,0.000574396,0.0458876,20.9318,50.5562,-0.0410635,0.0,0.0
620,154.75,86.1503,85.7972,151.981,100.534,100.983,0.000580327,0.0457885,20.9331,50.5362,-0.0378493,0.0,0.0
630,157.25,85.1189,85.2322,148.295,100.56,100.817,0.000686372,0.0455572,20.9338,50.5862,-0.0216612,0.0,0.0
640,159.75,84.1169,84.46875,148.623,100.556,100.81,0.000743918,0.045328,20.9331,50.6162,-0.0215301,0.0,0.0
650,162.25,83.7308,83.3671,150.409,100.586,100.819,0.000749779,0.0451042,20.9325,50.5962,-0.0196696,0.0,0.0
660,164.75,82.5915,82.6548,153.609,100.609,100.485,0.000786566,0.0451177,20.9323,50.6263,0.010516,0.0,0.0
670,167.25,81.9358,81.5216,147.818,100.631,100.71,0.000713492,0.0451176,20.9322,50.5962,-0.00664975,0.0,0.0
680,169.75,81.1096,81.2555,152.669,100.616,101.453,0.000748799,0.0450527,20.9322,50.5862,-0.0704404,0.0,0.0
690,172.25,80.6921,80.4163,153.618,100.639,100.258,0.000794731,0.0448979,20.9321,50.6363,0.0322688,0.0,0.0
700,174.75,79.5667,79.7334,153.566,100.655,101.369,0.000879419,0.0448724,20.9316,50.5362,-0.0601609,0.0,0.0
710,177.25,78.9665,79.0832,150.476,100.655,101.264,0.000854752,0.0450067,20.9314,50.5362,-0.0513461,0.0,0.0
720,179.75,78.6588,78.3752,149.058,100.631,101.253,0.000750376,0.0448713,20.9314,50.5962,-0.0524639,0.0,0.0
730,182.25,78.0387,78.4124,151.285,100.645,101.363,0.000829511,0.0447354,20.9314,50.5962,-0.0604321,0.0,0.0
740,184.75,77.7547,77.9261,152.52,100.66,101.318,0.000848087,0.0448289,20.932,50.5462,-0.0554305,0.0,0.0
750,187.25,77.5681,77.8666,153.116,100.615,100.794,0.000792563,0.0449093,20.9323,50.5562,-0.0150754,0.0,0.0
760,189.75,76.7102,76.9305,146.71,100.639,100.642,0.000697161,0.0450764,20.9323,50.5662,-0.000305284,0.0,0.0
770,192.25,76.3634,76.736,157.235,100.623,100.98,0.000578801,0.0452449,20.9324,50.5662,-0.0301659,0.0,0.0
780,194.75,75.9811,76.6037,154.014,100.613,101.325,0.000536949,0.0451488,20.9322,50.5862,-0.0599933,0.0,0.0
790,197.25,75.7177,75.6496,149.977,100.607,101.174,0.000643762,0.0449897,20.9318,50.5962,-0.0477914,0.0,0.0
800,199.75,74.8456,75.6551,149.759,100.591,100.888,0.000757685,0.0448983,20.9316,50.4661,-0.0250804,0.0,0.0
810,202.25,75.2286,75.1501,150.734,100.583,100.01,0.000894717,0.0448924,20.9318,50.5462,0.0485496,0.0,0.0
820,204.75,74.2584,74.9336,150.447,100.554,100.699,0.00102969,0.0448388,20.9331,50.6062,-0.0122341,0.0,0.0
830,207.25,74.1257,74.6543,151.242,100.561,100.493,0.00109992,0.044898,20.9332,50.5962,0.00576791,0.0,0.0
840,209.75,73.6277,74.4558,152.684,100.533,99.5255,0.000954723,0.0448462,20.9332,50.5862,0.085704,0.0,0.0
850,212.25,73.7482,74.0267,153.11,100.53,99.9748,0.000738377,0.0447289,20.9332,50.5762,0.0471154,0.0,0.0
860,214.75,73.2585,74.1045,155.575,100.496,100.863,0.000631476,0.0445845,20.9332,50.5762,-0.0309655,0.0,0.0
870,217.25,72.6754,73.5129,150.562,100.486,100.909,0.00078415,0.0446278,20.9325,50.5762,-0.0357627,0.0,0.0
880,219.75,72.693,73.6045,152.794,100.461,99.5276,0.000968223,0.0446204,20.933,50.5562,0.0794144,0.0,0.0
888,221.75,72.0647,73.5399,150.028,100.451,100.344,0.000985504,0.0445999,20.9331,50.5762,0.00904907,0.0,0.0