Folder: fsri_materials_database/01_Data/Latex_Pillow_Foam/Cone (part 6)

File: Latex_Pillow_Foam_Cone_HF75Scan_230628_R2.csv
Names,Time,Stack TC,Smoke TC,Exh Press,Smoke Comp,Smoke Meas,CO Meter,CO2 Meter,O2 Meter,Sample Mass,Ext Coeff,Start Test,Flame Verif
Chan Gain,,500,500,1,1,1,1,1,1,1,1,1.0,1.0
Offset,,0,0,0.13804,0,0,0,0,0,0,0,0.0,0.0
Gain,,1,1,25.011,12.9677,71.848,1,1,1,1.00091,0.969894,1.0,1.0
Units,sec,C,C,Pa,%,%,%,%,%,g,/m,,
Baseline,,63.722,66.4564,153.489,99.5642,99.6315,0.00069286,0.0405223,20.9369,-445.418,-0.00561367,,
8,1.75,61.8199,63.6308,145.786,99.9909,89.7135,0.000627409,0.0433015,20.9371,67.6818,0.922745,0.0,1.0
16,3.75,63.2983,67.5066,129.057,100.097,48.9855,0.000573337,0.043434,20.9371,67.3916,6.07987,0.0,1.0
24,5.75,67.7344,75.4462,117.727,100.153,42.3133,0.000638085,0.04475,20.9363,66.721,7.33035,0.0,1.0
32,7.75,72.8665,85.8236,107.693,100.209,35.4942,0.000722081,0.046201,20.935,66.0604,8.83022,0.0,0.0
40,9.75,79.4213,97.7061,105.986,100.285,34.661,0.00101752,0.0556288,20.9302,65.4698,9.03876,0.0,0.0
48,11.75,86.2733,109.31,104.549,100.325,29.9118,0.00310869,0.183191,20.9238,64.8893,10.2958,0.0,0.0
56,13.75,93.468,120.534,100.986,100.359,30.62,0.0105506,0.467689,20.8629,64.2687,10.0997,0.0,0.0
64,15.75,99.5247,130.615,109.61,100.393,32.1242,0.0221003,0.807642,20.4767,63.6982,9.69452,0.0,0.0
72,17.75,105.812,139.949,96.0946,100.409,32.8434,0.0373456,1.12994,20.0338,62.9775,9.50755,0.0,0.0
80,19.75,111.05,148.577,83.1189,100.397,28.3594,0.0529302,1.39953,19.4618,62.377,10.7554,0.0,0.0
88,21.75,117.005,156.124,109.837,100.37,30.3503,0.0658107,1.58238,18.8433,61.8365,10.1758,0.0,0.0
96,23.75,122.326,162.89,91.4974,100.37,27.1096,0.0751195,1.69355,18.4362,61.1959,11.1365,0.0,0.0
104,25.75,126.608,168.826,92.4866,100.325,27.5591,0.0822469,1.76157,18.1732,60.5553,10.9929,0.0,0.0
112,27.75,131.066,175.009,93.3903,100.272,27.0855,0.0876582,1.80447,18.0045,59.9648,11.1358,0.0,0.0
120,29.75,134.91,180.076,103.368,100.226,27.5679,0.0918002,1.82762,17.9034,59.3242,10.9817,0.0,0.0
128,31.75,139.247,184.633,98.3981,100.165,24.6999,0.0950093,1.84431,17.8355,58.6236,11.9111,0.0,0.0
136,33.75,142.553,189.528,101.454,100.082,27.9253,0.096511,1.86253,17.7983,58.0831,10.8599,0.0,0.0
144,35.75,145.666,192.248,101.254,99.9993,25.2963,0.0965131,1.87047,17.773,57.4425,11.6941,0.0,0.0
152,37.75,148.727,196.531,99.1912,99.9055,24.8359,0.0959881,1.8761,17.7549,56.8319,11.8424,0.0,0.0
160,39.75,151.212,198.577,102.443,99.9415,24.4105,0.0957751,1.89328,17.742,56.2714,11.9924,0.0,0.0
168,41.75,153.656,201.41,98.028,99.9902,27.9582,0.0964519,1.90505,17.7242,55.7509,10.8421,0.0,0.0
176,43.75,156.358,203.974,100.097,100.051,28.5633,0.0969915,1.8892,17.6916,55.0803,10.665,0.0,0.0
184,45.75,158.378,206.025,100.755,100.116,30.4139,0.0965832,1.87252,17.6886,54.4898,10.1365,0.0,0.0
192,47.75,160.254,206.965,106.849,100.174,28.0634,0.0952928,1.84984,17.7145,53.9993,10.8257,0.0,0.0
200,49.75,161.87,209.02,98.4668,100.271,23.5751,0.094006,1.82398,17.7398,53.3888,12.3166,0.0,0.0
208,51.75,164.191,211.335,102.778,100.346,26.818,0.0930957,1.79463,17.7753,52.6781,11.2265,0.0,0.0
216,53.75,166.935,214.114,96.3991,100.403,22.6498,0.0918207,1.75653,17.8178,52.0676,12.6685,0.0,0.0
224,55.75,169.415,218.092,103.076,100.491,20.6524,0.0901905,1.72578,17.8736,51.477,13.4615,0.0,0.0
232,57.75,170.592,219.321,106.832,100.556,23.38,0.0890842,1.73157,17.9303,50.9465,12.4115,0.0,0.0
240,59.75,171.536,217.029,118.923,100.628,28.2958,0.0903,1.77993,17.9641,50.5762,10.794,0.0,0.0
248,61.75,169.432,211.271,126.632,100.664,40.8026,0.0936198,1.85184,17.927,50.346,7.68295,0.0,0.0
256,63.75,166.066,203.244,137.485,100.715,91.4128,0.0983495,1.92746,17.8298,50.366,0.824467,0.0,0.0
264,65.75,161.164,193.702,143.794,100.742,99.4356,0.101598,1.91158,17.7072,50.2659,0.111087,0.0,0.0
272,67.75,155.585,184.556,146.722,100.767,101.025,0.0991603,1.73504,17.6432,50.306,-0.0217787,0.0,0.0
280,69.75,151.517,176.447,143.161,100.782,101.047,0.0893324,1.41657,17.7471,50.326,-0.0223893,0.0,0.0
288,71.75,147.474,169.27,140.91,100.784,100.523,0.0723388,1.07814,18.0854,50.306,0.0220488,0.0,0.0
296,73.75,143.894,162.516,141.609,100.794,102.352,0.0521621,0.740816,18.6557,50.296,-0.130461,0.0,0.0
304,75.75,139.604,156.964,145.25,100.803,101.63,0.0362588,0.494687,19.3503,50.326,-0.0695508,0.0,0.0
312,77.75,136.666,151.611,146.025,100.78,101.181,0.026164,0.33914,19.8902,50.1758,-0.03381,0.0,0.0
320,79.75,133.265,146.867,146.98,100.763,101.466,0.0206054,0.250441,20.2228,50.1658,-0.0591809,0.0,0.0
328,81.75,130.034,142.025,145.931,100.724,100.065,0.0172178,0.195587,20.4373,50.2059,0.0558768,0.0,0.0
336,83.75,127.626,138.319,144.348,100.687,102.227,0.0148414,0.157805,20.6004,50.2559,-0.129123,0.0,0.0
344,85.75,124.762,134.85,144.262,100.64,102.402,0.012951,0.132213,20.7092,50.2759,-0.147689,0.0,0.0
352,87.75,122.538,131.389,149.867,100.58,101.03,0.0109832,0.111655,20.7724,50.336,-0.0379339,0.0,0.0
360,89.75,120.789,127.487,146.036,100.52,101.087,0.0091732,0.0960111,20.8156,50.2459,-0.0477893,0.0,0.0
368,91.75,117.666,124.975,148.148,100.451,101.117,0.00755659,0.0840987,20.847,50.2059,-0.0562355,0.0,0.0
376,93.75,116.051,122.125,146.384,100.398,100.892,0.00609756,0.0740134,20.8701,50.1658,-0.0417392,0.0,0.0
384,95.75,113.893,119.805,151.202,100.343,101.652,0.00461477,0.0656033,20.8876,50.2259,-0.11032,0.0,0.0
392,97.75,111.92,116.998,146.336,100.237,101.418,0.00350971,0.059178,20.9005,50.1858,-0.0996589,0.0,0.0
400,99.75,110.628,114.773,147.444,100.175,100.949,0.00279599,0.0546419,20.9118,50.2359,-0.065413,0.0,0.0
408,101.75,109.239,112.779,144.006,100.074,102.06,0.00226882,0.0512513,20.9185,50.2359,-0.167165,0.0,0.0
416,103.75,107.414,110.899,151.953,100.001,100.49,0.00185493,0.0487968,20.9229,50.1959,-0.0415385,0.0,0.0
424,105.75,105.757,109.472,144.561,99.9102,101.269,0.00153146,0.0468484,20.9246,50.2559,-0.114898,0.0,0.0
432,107.75,104.803,107.798,147.352,99.8374,100.229,0.00132906,0.0455655,20.9272,50.2259,-0.0333355,0.0,0.0
440,109.75,103.116,105.69,150.428,99.7749,100.677,0.0011641,0.0446774,20.9289,50.2259,-0.0765499,0.0,0.0
448,111.75,102.065,104.569,147.252,99.6985,101.161,0.000985361,0.0439759,20.9303,50.2359,-0.123916,0.0,0.0
456,113.75,101.181,103.327,150.259,99.6379,100.593,0.000855009,0.0435056,20.9312,50.2259,-0.0811891,0.0,0.0
464,115.75,99.7174,102.336,149.4,99.5438,100.455,0.000819219,0.0430975,20.9326,50.2559,-0.0775441,0.0,0.0
472,117.75,98.5574,100.66,146.647,99.4531,100.657,0.000805318,0.0428081,20.9333,50.2159,-0.102361,0.0,0.0
480,119.75,97.1389,99.8607,145.172,99.3863,100.519,0.000811146,0.0425854,20.9335,50.2159,-0.0964,0.0,0.0
488,121.75,96.3882,98.5426,149.722,99.3194,100.243,0.00082913,0.04236,20.934,50.1959,-0.0787115,0.0,0.0
496,123.75,96.0592,97.5038,145.627,99.2541,100.637,0.000844062,0.0421921,20.9344,50.1658,-0.117739,0.0,0.0
504,125.75,95.0738,96.6638,147.855,99.186,99.6856,0.000816419,0.0421928,20.9344,50.2359,-0.0427442,0.0,0.0
512,127.75,94.246,95.8068,145.212,99.1266,98.5169,0.000744205,0.0421966,20.9348,50.1959,0.0524937,0.0,0.0
520,129.75,93.5409,94.9567,147.191,99.0827,100.028,0.000683919,0.0420684,20.9355,50.1758,-0.0807519,0.0,0.0
528,131.75,92.3947,94.4827,151.518,99.0404,100.1,0.000674396,0.0419921,20.9356,50.2259,-0.0905402,0.0,0.0
536,133.75,91.5233,93.9066,146.63,99.0032,99.3874,0.00070804,0.0418569,20.9354,50.2859,-0.0329532,0.0,0.0
544,135.75,90.9496,92.6361,144.682,98.9881,99.9882,0.00066938,0.0418272,20.9353,50.2259,-0.0855194,0.0,0.0
552,137.75,90.3144,91.9556,144.849,98.9699,99.3501,0.000587333,0.0417554,20.9353,50.2659,-0.0326187,0.0,0.0
560,139.75,90.1579,91.8976,147.384,98.9454,99.929,0.000579607,0.0415577,20.9352,50.2559,-0.0841544,0.0,0.0
568,141.75,89.8391,91.2236,149.506,98.9288,99.2712,0.000609149,0.0416219,20.9352,50.2159,-0.0293955,0.0,0.0
576,143.75,88.7793,90.1775,147.391,98.9232,99.6001,0.000654303,0.0415463,20.9352,50.2059,-0.0580126,0.0,0.0
584,145.75,88.8077,90.1853,143.231,98.9161,99.372,0.000681607,0.0414451,20.9352,50.2159,-0.0391239,0.0,0.0
592,147.75,87.5582,89.6972,145.636,98.9232,100.848,0.000717131,0.041399,20.9352,50.1658,-0.163921,0.0,0.0
600,149.75,87.6376,89.0628,151.059,98.9466,99.4312,0.000712543,0.0414525,20.9348,50.2159,-0.0415706,0.0,0.0
608,151.75,86.6609,88.9798,149.564,98.9486,99.7338,0.000722501,0.0413945,20.9344,50.1558,-0.0672519,0.0,0.0
616,153.75,86.4509,88.0926,149.486,98.9541,99.2668,0.00074559,0.0414598,20.9342,50.1558,-0.0268419,0.0,0.0
624,155.75,86.3443,88.0743,147.207,98.9755,99.7053,0.000821066,0.0413351,20.9342,50.1959,-0.0625063,0.0,0.0
632,157.75,85.9653,87.5838,151.419,98.9869,99.7996,0.000877189,0.0412846,20.9341,50.2059,-0.0695615,0.0,0.0
640,159.75,84.9887,86.7564,147.084,98.996,99.4839,0.000853347,0.0413931,20.9341,50.2159,-0.0418198,0.0,0.0
648,161.75,85.0705,86.719,149.611,99.036,100.227,0.000819336,0.0412594,20.9341,50.2159,-0.101716,0.0,0.0
656,163.75,84.4402,86.0788,149.852,99.0491,99.0234,0.000863862,0.0412504,20.9341,50.2259,0.00220563,0.0,0.0
664,165.75,84.2003,85.9024,144.161,99.0788,99.3172,0.000953605,0.0411819,20.9341,50.1558,-0.0204523,0.0,0.0
672,167.75,83.5567,86.0726,148.23,99.1009,99.3589,0.00105082,0.0411785,20.9341,50.2459,-0.0221168,0.0,0.0
680,169.75,83.6446,85.3397,148.171,99.1318,100.006,0.00110498,0.0411678,20.9341,50.2159,-0.0746742,0.0,0.0
688,171.75,83.2653,85.0342,147.194,99.1472,99.5058,0.00111676,0.0411651,20.9341,50.1158,-0.0307125,0.0,0.0
696,173.75,82.5189,84.7063,145.343,99.188,99.9443,0.00105342,0.0411478,20.9341,50.1458,-0.0646276,0.0,0.0
704,175.75,82.6034,84.6804,150.692,99.2232,100.096,0.000901147,0.0411295,20.9347,50.2759,-0.0744762,0.0,0.0
712,177.75,82.4307,83.9633,151.92,99.2596,100.104,0.000646826,0.0411077,20.9357,50.1558,-0.0721003,0.0,0.0
720,179.75,81.9049,83.7588,146.41,99.2952,100.44,0.000550964,0.0411187,20.9361,50.1358,-0.0975114,0.0,0.0
728,181.75,81.8498,83.7847,148.936,99.3154,99.9048,0.000603995,0.0411366,20.9363,50.1558,-0.0503441,0.0,0.0
736,183.75,82.012,83.3566,142.283,99.3609,100.817,0.000665416,0.0411008,20.9364,50.1658,-0.123771,0.0,0.0
744,185.75,81.0963,83.3323,149.804,99.3961,99.6834,0.000669439,0.0411509,20.9364,50.1458,-0.024551,0.0,0.0
745,186,81.2688,83.2293,151.096,99.4041,99.6987,0.000665999,0.0411547,20.9364,50.1458,-0.0251836,0.0,0.0

File: Latex_Pillow_Foam_Cone_HF75Scan_230628_R3.csv
Names,Time,Stack TC,Smoke TC,Exh Press,Smoke Comp,Smoke Meas,CO Meter,CO2 Meter,O2 Meter,Sample Mass,Ext Coeff,Start Test,Flame Verif
Chan Gain,,500,500,1,1,1,1,1,1,1,1,1.0,1.0
Offset,,0,0,0.13804,0,0,0,0,0,0,0,0.0,0.0
Gain,,1,1,25.011,12.9677,71.848,1,1,1,1.00091,0.969894,1.0,1.0
Units,sec,C,C,Pa,%,%,%,%,%,g,/m,,
Baseline,,65.9753,68.9884,153.294,99.8209,100.264,0.000830119,0.0416797,20.9356,-445.736,-0.0376074,,
8,1.75,62.6672,65.0383,145.759,100.283,83.5084,0.000673884,0.0422482,20.9349,67.5517,1.55735,0.0,1.0
16,3.75,64.5902,69.5262,121.983,100.256,46.0693,0.000697515,0.0420955,20.9349,67.1113,6.61554,0.0,1.0
24,5.75,69.2199,78.9568,108.51,100.191,38.8205,0.000722297,0.0422652,20.9349,66.5908,8.06656,0.0,1.0
32,7.75,75.3159,90.689,100.38,100.101,37.0159,0.000627598,0.0432479,20.9377,65.9002,8.4639,0.0,0.0
40,9.75,82.1933,101.269,100.918,100.033,32.1132,0.000753899,0.0699312,20.9374,65.2896,9.66688,0.0,0.0
48,11.75,88.8782,112.533,97.6173,99.9858,30.6398,0.00328498,0.246823,20.9295,64.7191,10.0625,0.0,0.0
56,13.75,95.2269,123.572,92.2981,100.025,30.631,0.010085,0.582236,20.7668,63.9384,10.0682,0.0,0.0
64,15.75,102.458,134.027,94.7054,100.061,29.6202,0.02221,0.929294,20.3688,63.3178,10.3568,0.0,0.0
72,17.75,107.97,144.22,93.3231,100.103,27.0088,0.0359405,1.2058,19.8268,62.6572,11.1456,0.0,0.0
80,19.75,114.501,152.522,87.1498,100.137,26.6229,0.0491426,1.44069,19.2632,62.0167,11.2709,0.0,0.0
88,21.75,120.279,162.643,86.1842,100.19,30.0653,0.0614035,1.61913,18.8132,61.346,10.2409,0.0,0.0
96,23.75,125.902,170.629,84.7187,100.222,30.4534,0.0726057,1.75906,18.4219,60.5653,10.1344,0.0,0.0
104,25.75,131.629,179.024,99.0294,100.248,29.6947,0.0824534,1.87546,18.121,60.0148,10.3513,0.0,0.0
112,27.75,137.409,186.897,92.479,100.284,27.7104,0.0909123,1.95588,17.8911,59.1941,10.9428,0.0,0.0
120,29.75,142.501,193.335,100.767,100.336,25.1385,0.0983785,2.03092,17.7275,58.5435,11.7759,0.0,0.0
128,31.75,146.29,198.374,84.9027,100.373,27.3136,0.105719,2.09734,17.6011,57.7728,11.073,0.0,0.0
136,33.75,150.886,204.982,81.1619,100.408,22.9064,0.112186,2.14551,17.4471,57.1622,12.5731,0.0,0.0
144,35.75,155.756,210.587,87.4062,100.44,25.919,0.116754,2.1784,17.3417,56.4616,11.5246,0.0,0.0
152,37.75,159.45,215.807,102.93,100.483,23.7615,0.118938,2.19779,17.2659,55.811,12.2676,0.0,0.0
160,39.75,163.459,220.987,80.6192,100.53,25.9804,0.119254,2.21638,17.2194,55.0303,11.5121,0.0,0.0
168,41.75,167.479,226.16,86.1926,100.586,22.6849,0.119654,2.24402,17.1912,54.3396,12.6708,0.0,0.0
176,43.75,170.765,229.913,72.143,100.604,23.7834,0.121077,2.25812,17.153,53.589,12.27,0.0,0.0
184,45.75,175.101,235.769,84.3768,100.649,22.948,0.122824,2.27187,17.1068,52.8783,12.578,0.0,0.0
192,47.75,178.785,241.286,84.1699,100.684,18.7798,0.124799,2.29694,17.0831,52.1877,14.2864,0.0,0.0
200,49.75,182.401,245.016,87.352,100.71,22.3341,0.127428,2.31418,17.0465,51.3869,12.8139,0.0,0.0
208,51.75,184.419,247.348,95.371,100.738,26.5242,0.129672,2.34661,17.0059,50.7564,11.3534,0.0,0.0
216,53.75,186.122,247.515,99.8644,100.799,25.3314,0.132772,2.4371,16.9793,50.2159,11.75,0.0,0.0
224,55.75,186.949,245.102,97.9035,100.838,24.0707,0.136467,2.51549,16.8838,49.6353,12.1877,0.0,0.0
232,57.75,186.381,241.94,111.163,100.86,28.9229,0.139198,2.53167,16.7434,49.275,10.6272,0.0,0.0
240,59.75,184.408,234.853,120.184,100.876,37.5378,0.138347,2.47357,16.6729,49.0248,8.41037,0.0,0.0
248,61.75,180.579,225.996,130.321,100.908,68.5898,0.133402,2.3477,16.6793,48.9347,3.28458,0.0,0.0
256,63.75,175.566,216.606,139.051,100.915,90.7967,0.123667,2.16531,16.7821,48.9347,0.898872,0.0,0.0
264,65.75,170.417,206.277,144.377,100.896,99.0124,0.113014,1.91228,17.0086,48.8947,0.160295,0.0,0.0
272,67.75,165.686,197.478,143.613,100.919,99.133,0.100692,1.60063,17.3473,48.8847,0.151874,0.0,0.0
280,69.75,160.476,188.602,141.182,100.89,98.6485,0.0859185,1.27489,17.7637,48.8947,0.191162,0.0,0.0
288,71.75,156.258,180.591,147.676,100.889,99.4992,0.0661152,0.91753,18.3044,48.8646,0.118038,0.0,0.0
296,73.75,152.27,173.859,143.373,100.863,99.3918,0.0469703,0.635126,18.8978,48.8146,0.124994,0.0,0.0
304,75.75,148.124,167.581,144.487,100.86,100.861,0.0335237,0.434504,19.4729,48.7846,-0.00010345,0.0,0.0
312,77.75,144.55,162.088,145.939,100.819,99.4071,0.0249539,0.306572,19.9406,48.7145,0.119973,0.0,0.0
320,79.75,141.561,156.658,144.433,100.777,101.058,0.0204939,0.228878,20.2878,48.7145,-0.0236798,0.0,0.0
328,81.75,138.37,151.468,147.764,100.727,99.6834,0.0175299,0.179284,20.5137,48.7145,0.0886103,0.0,0.0
336,83.75,134.819,147.663,146.23,100.654,100.111,0.0152491,0.147298,20.6454,48.7345,0.0460442,0.0,0.0
344,85.75,132.538,143.812,150.054,100.611,99.7557,0.012942,0.124911,20.7273,48.7045,0.0726042,0.0,0.0
352,87.75,130.136,139.922,147.626,100.542,99.2931,0.0109165,0.108107,20.7855,48.6645,0.106328,0.0,0.0
360,89.75,127.773,136.206,143.149,100.484,100.172,0.00925901,0.0958678,20.8225,48.7045,0.0263985,0.0,0.0
368,91.75,124.81,133.229,143.857,100.397,100.26,0.00792627,0.0854665,20.8465,48.7045,0.0115785,0.0,0.0
376,93.75,122.945,130.618,144.897,100.34,98.5498,0.00651482,0.0764475,20.8644,48.7445,0.153195,0.0,0.0
384,95.75,120.976,127.736,145.562,100.294,100.449,0.005237,0.0689743,20.8805,48.7646,-0.013065,0.0,0.0
392,97.75,119.294,125.011,149.032,100.22,99.69,0.00425897,0.0632967,20.8906,48.7946,0.0451555,0.0,0.0
400,99.75,116.83,122.758,144.911,100.165,100.078,0.00344844,0.0580217,20.8982,48.7445,0.00742689,0.0,0.0
408,101.75,114.685,120.492,150.483,100.071,99.6242,0.00276502,0.054175,20.9071,48.7445,0.0380624,0.0,0.0
416,103.75,113.719,118.419,144.184,99.9981,99.6286,0.00230131,0.0515596,20.9135,48.7445,0.0314948,0.0,0.0
424,105.75,111.867,115.988,151.307,99.9102,99.3655,0.00196873,0.0495217,20.9186,48.7345,0.0465163,0.0,0.0
432,107.75,110.348,114.517,144.84,99.8326,99.0695,0.00169718,0.0480604,20.9227,48.7646,0.0652904,0.0,0.0
440,109.75,109.315,112.348,148.307,99.7408,99.4203,0.00140624,0.0471412,20.9263,48.7245,0.0273883,0.0,0.0
448,111.75,107.214,110.665,143.529,99.6463,98.2341,0.00109112,0.0462579,20.9284,48.7145,0.121436,0.0,0.0
456,113.75,106.177,109.449,144.566,99.5461,99.0278,0.000872311,0.0456117,20.9303,48.7245,0.044416,0.0,0.0
464,115.75,104.654,108.386,145.231,99.4753,99.0344,0.000830804,0.0451157,20.9313,48.7746,0.0377948,0.0,0.0
472,117.75,103.823,106.504,146.936,99.4183,99.133,0.000841173,0.0447142,20.9318,48.7445,0.024448,0.0,0.0
480,119.75,102.666,105.498,148.048,99.3783,98.2143,0.000859293,0.044424,20.932,48.7746,0.10024,0.0,0.0
488,121.75,101.662,104.231,145.104,99.3099,99.3786,0.00091048,0.0441895,20.9318,48.6545,-0.00588701,0.0,0.0
496,123.75,100.775,102.818,149.986,99.2307,98.8063,0.000903192,0.0440651,20.9301,48.7145,0.0364649,0.0,0.0
504,125.75,99.7311,102.066,148.343,99.2078,98.7713,0.000833831,0.0438803,20.9294,48.7946,0.0375171,0.0,0.0
512,127.75,98.7654,100.978,153.907,99.1591,98.2012,0.000837363,0.0437905,20.9291,48.7445,0.0825889,0.0,0.0
520,129.75,97.7476,99.9312,146.929,99.129,98.4687,0.000944008,0.0438155,20.929,48.7145,0.0568641,0.0,0.0
528,131.75,97.1342,98.6829,144.175,99.1116,98.6814,0.000990674,0.0436707,20.9289,48.7245,0.0370132,0.0,0.0
536,133.75,96.142,98.1792,145.679,99.0958,98.8239,0.000946347,0.0435716,20.9299,48.7045,0.0233759,0.0,0.0
544,135.75,95.341,97.9431,143.8,99.0867,98.3985,0.00091256,0.0434461,20.9306,48.7145,0.0592948,0.0,0.0
552,137.75,94.4887,96.7567,145.583,99.1061,98.7055,0.000925328,0.0432758,20.931,48.7545,0.034459,0.0,0.0
560,139.75,94.2983,96.2656,148.775,99.1136,98.267,0.0010123,0.0432247,20.9311,48.7445,0.0729863,0.0,0.0
568,141.75,93.4602,95.0215,145.188,99.1322,97.3132,0.00104955,0.0432306,20.9312,48.7345,0.157565,0.0,0.0
576,143.75,93.0229,94.9658,146.308,99.19,98.3305,0.000991726,0.0432665,20.9306,48.6945,0.074037,0.0,0.0
584,145.75,91.7455,94.0719,145.524,99.2375,98.6901,0.000901618,0.0433284,20.9316,48.7445,0.0470539,0.0,0.0
592,147.75,91.7561,93.249,147.81,99.2956,98.381,0.000706218,0.0433711,20.9323,48.6545,0.0787331,0.0,0.0
600,149.75,91.1862,92.917,148.252,99.3265,98.2121,0.000449679,0.0431862,20.9327,48.6244,0.0959903,0.0,0.0
608,151.75,90.4339,92.4998,149.662,99.3882,98.2406,0.000254207,0.0430835,20.9328,48.6845,0.0988078,0.0,0.0
616,153.75,90.1234,91.6198,148.542,99.4488,98.9489,0.000164963,0.0430302,20.9329,48.6144,0.0428762,0.0,0.0
624,155.75,90.0247,90.8942,147.266,99.4986,98.6704,0.000248888,0.0429444,20.9329,48.5944,0.0711178,0.0,0.0
632,157.75,89.4321,91.4046,146.79,99.539,98.5432,0.000424134,0.0428236,20.9329,48.6444,0.0855414,0.0,0.0
640,159.75,89.1679,90.3519,148.213,99.5968,97.9863,0.000563031,0.0427608,20.9329,48.6144,0.138697,0.0,0.0
648,161.75,87.9877,90.3768,147.643,99.6261,99.6812,0.000694656,0.0426915,20.9329,48.6344,-0.00470624,0.0,0.0
656,163.75,88.1866,89.872,145.746,99.7056,99.1374,0.000816499,0.0426897,20.9332,48.6344,0.0486232,0.0,0.0
664,165.75,88.1344,89.8418,145.16,99.7468,98.7515,0.000848496,0.0426446,20.9335,48.6444,0.0853165,0.0,0.0
672,167.75,87.0487,89.3122,147.513,99.8089,99.7579,0.000893266,0.04251,20.9332,48.7145,0.00434581,0.0,0.0
680,169.75,86.0027,88.949,147.059,99.892,98.3415,0.000954004,0.0424446,20.9309,48.7045,0.133093,0.0,0.0
688,171.75,86.563,88.8313,146.446,99.9526,98.951,0.000962438,0.0424601,20.9309,48.7045,0.0856769,0.0,0.0
696,173.75,86.0878,88.4168,146.146,100.017,99.0651,0.000892221,0.0424758,20.9311,48.6344,0.0813695,0.0,0.0
704,175.75,86.1739,88.0045,150.619,100.069,99.4225,0.000826497,0.0425097,20.9309,48.6344,0.0551392,0.0,0.0
712,177.75,85.505,88.2505,149.335,100.124,99.4751,0.000764956,0.0422828,20.9308,48.6845,0.0553125,0.0,0.0
720,179.75,85.905,87.111,145.582,100.159,99.6001,0.000663999,0.0421809,20.9307,48.6645,0.0475885,0.0,0.0
728,181.75,85.5473,87.1564,147.607,100.209,99.8128,0.000652119,0.0422952,20.9307,48.6444,0.0337418,0.0,0.0
736,183.75,85.2411,86.8975,145.227,100.207,98.8809,0.000803857,0.0423048,20.9303,48.6645,0.113311,0.0,0.0
744,185.75,84.6451,87.177,147.756,100.235,98.9489,0.000982314,0.0424159,20.9297,48.6545,0.109883,0.0,0.0
752,187.75,84.673,86.8034,146.023,100.268,100.199,0.00108507,0.0422845,20.9294,48.7045,0.00588345,0.0,0.0
754,188.25,84.4498,86.8584,145.137,100.239,100.764,0.00109063,0.0422364,20.9294,48.6845,-0.0444329,0.0,0.0