Folder: fsri_materials_database/01_Data/Latex_Pillow_Foam/Cone (part 7)

File: Latex_Pillow_Foam_Cone_HF75Scan_230630_R4.csv
Names,Time,Stack TC,Smoke TC,Exh Press,Smoke Comp,Smoke Meas,CO Meter,CO2 Meter,O2 Meter,Sample Mass,Ext Coeff,Start Test,Flame Verif
Chan Gain,,500,500,1,1,1,1,1,1,1,1,1.0,1.0
Offset,,0,0,0.13804,0,0,0,0,0,0,0,0.0,0.0
Gain,,1,1,25.011,13.0643,73.5858,1,1,1,1.00091,0.969894,1.0,1.0
Units,sec,C,C,Pa,%,%,%,%,%,g,/m,,
Baseline,,62.9857,66.1758,154.093,100.222,100.475,0.000912786,0.0417423,20.9315,-446.513,-0.0214514,,
9,2,61.8601,64.2102,138.29,100.674,81.7219,0.000650923,0.0418427,20.9336,67.0112,1.77447,0.0,1.0
18,4.25,64.1509,68.6113,109.772,100.696,54.1182,0.00069393,0.0419851,20.9329,66.4307,5.28284,0.0,1.0
27,6.5,68.4256,78.2441,111.305,100.72,43.6781,0.000718447,0.0420343,20.9326,65.9803,7.10829,0.0,0.0
36,8.75,74.6108,89.0257,103.903,100.727,35.2951,0.000784237,0.0448002,20.9319,65.2596,8.92192,0.0,0.0
45,11,81.9103,100.901,104.711,100.726,36.1933,0.00176626,0.122283,20.9255,64.6491,8.70803,0.0,0.0
54,13.25,89.4108,113.81,103.917,100.771,34.8414,0.00647166,0.355073,20.8975,63.8684,9.03567,0.0,0.0
63,15.5,97.0065,126.288,100.147,100.783,32.0389,0.0166213,0.678678,20.5934,63.1577,9.75013,0.0,0.0
72,17.75,104.373,137.77,89.5724,100.778,30.1121,0.0311487,1.00231,20.0615,62.4871,10.2774,0.0,0.0
81,20,111.319,148.499,91.6836,100.811,30.5455,0.0473429,1.28609,19.5557,61.6964,10.1587,0.0,0.0
90,22.25,117.858,157.495,104.888,100.839,31.9378,0.0611265,1.54561,19.0323,60.9357,9.78176,0.0,0.0
99,24.5,123.797,166.541,93.9223,100.832,30.9228,0.0729147,1.72664,18.5271,60.235,10.0559,0.0,0.0
108,26.75,128.948,173.451,102.422,100.852,27.9226,0.0827157,1.84934,18.2192,59.4743,10.9259,0.0,0.0
117,29,135.456,181.883,90.8967,100.862,25.7218,0.090586,1.93246,17.9622,58.6436,11.6253,0.0,0.0
126,31.25,141.014,189.577,102.25,100.901,25.2435,0.0956248,1.98248,17.7453,57.8829,11.7882,0.0,0.0
135,33.5,145.91,196.438,87.6467,100.887,26.0362,0.0989577,2.0139,17.623,57.0721,11.524,0.0,0.0
144,35.75,150.886,203.42,89.6938,100.931,29.6607,0.102039,2.06061,17.5432,56.3014,10.4188,0.0,0.0
153,38,155.839,208.814,96.7342,100.965,25.5938,0.105131,2.12945,17.4684,55.5107,11.6764,0.0,0.0
162,40.25,159.098,214.398,85.7522,100.983,25.2098,0.108289,2.1935,17.3744,54.6199,11.8065,0.0,0.0
171,42.5,163.878,219.867,102.418,101.01,24.7315,0.111793,2.24405,17.2677,53.8692,11.9718,0.0,0.0
180,44.75,167.847,224.701,86.2247,101.031,23.3234,0.115291,2.27795,17.1585,53.1486,12.4722,0.0,0.0
189,47,170.353,228.281,94.4322,101.034,24.206,0.117839,2.27634,17.0902,52.4179,12.1565,0.0,0.0
198,49.25,173.093,229.377,92.9987,101.077,24.8101,0.119712,2.28754,17.0559,51.7172,11.9504,0.0,0.0
207,51.5,175.587,231.769,101.983,101.123,28.1494,0.123378,2.30745,17.0376,51.1968,10.8799,0.0,0.0
216,53.75,177.665,233.904,93.9322,101.115,25.605,0.127787,2.29704,17.0057,50.4861,11.6853,0.0,0.0
225,56,178.462,232.442,102.12,101.137,22.9776,0.12808,2.23461,16.9902,49.8455,12.6083,0.0,0.0
234,58.25,179.344,230.317,109.979,101.153,27.6553,0.122906,2.15611,17.0507,49.3251,11.0331,0.0,0.0
243,60.5,177.748,225.822,117.037,101.154,25.1447,0.116437,2.10924,17.176,48.8646,11.8429,0.0,0.0
252,62.75,175.049,218.702,125.261,101.175,37.4284,0.11157,2.03236,17.2587,48.6144,8.46034,0.0,0.0
261,65,171.142,209.953,135.759,101.201,59.8783,0.106843,1.89769,17.3512,48.4342,4.46483,0.0,0.0
270,67.25,167.098,201.613,138.314,101.194,76.9543,0.100865,1.71867,17.5131,48.3141,2.32966,0.0,0.0
279,69.5,162.149,192.456,137.269,101.201,87.482,0.0915922,1.45808,17.7509,48.214,1.23938,0.0,0.0
288,71.75,157.639,184.12,143.247,101.215,94.6165,0.0787824,1.21257,18.0958,48.204,0.573551,0.0,0.0
297,74,153.517,176.644,144.065,101.218,100.471,0.0641474,0.923558,18.4689,48.144,0.0630356,0.0,0.0
306,76.25,149.787,170.023,142.001,101.205,101.124,0.0469806,0.685484,18.9247,48.144,0.00673881,0.0,0.0
315,78.5,145.759,163.708,144.659,101.2,102.362,0.033168,0.49994,19.5109,48.104,-0.0971001,0.0,0.0
324,80.75,140.705,156.521,148.819,101.204,101.596,0.0237931,0.36873,19.9456,48.184,-0.0328788,0.0,0.0
333,83,137.84,151.083,141.795,101.196,101.989,0.0181781,0.28315,20.2038,48.0939,-0.0664285,0.0,0.0
342,85.25,133.901,146.217,147.962,101.188,101.677,0.0142784,0.215815,20.4291,48.0739,-0.0409861,0.0,0.0
351,87.5,131.496,142.232,147.157,101.179,102.851,0.0120119,0.170047,20.579,48.0739,-0.139436,0.0,0.0
360,89.75,128.3,137.972,145.567,101.207,101.45,0.0104511,0.138612,20.6852,48.0439,-0.0204117,0.0,0.0
369,92,125.498,133.806,148.641,101.191,101.446,0.00927594,0.115906,20.7579,48.0939,-0.0214096,0.0,0.0
378,94.25,123.137,130.329,145.153,101.176,101.34,0.00817091,0.0996426,20.8047,48.134,-0.0137933,0.0,0.0
387,96.5,120.863,126.975,145.653,101.165,102.139,0.00696752,0.0877849,20.8306,48.114,-0.0815853,0.0,0.0
396,98.75,118.59,124.777,147.781,101.159,103.226,0.00577233,0.0777041,20.8517,48.104,-0.172145,0.0,0.0
405,101,116.357,121.961,145.279,101.169,101.419,0.00483651,0.0703824,20.8696,48.0539,-0.0209256,0.0,0.0
414,103.25,114.341,118.954,153.033,101.175,101.677,0.00414834,0.0645132,20.8821,48.0939,-0.042126,0.0,0.0
423,105.5,112.109,116.975,147.365,101.125,101.874,0.00358226,0.0600154,20.8933,48.114,-0.0628047,0.0,0.0
432,107.75,110.71,114.407,150.085,101.123,101.591,0.00302305,0.0564747,20.9021,48.0739,-0.0393088,0.0,0.0
441,110,108.784,112.882,146.711,101.118,102.465,0.00240193,0.0534388,20.9089,48.0139,-0.112589,0.0,0.0
450,112.25,107.353,110.561,147.354,101.091,102.77,0.00197755,0.050949,20.9148,48.0739,-0.140159,0.0,0.0
459,114.5,105.793,108.769,144.714,101.067,101.542,0.00169042,0.0488813,20.9186,48.0039,-0.0399013,0.0,0.0
468,116.75,104.586,107.063,145.767,101.075,103.289,0.00146374,0.0472447,20.9214,48.0239,-0.18437,0.0,0.0
477,119,103.134,105.347,148.719,101.058,102.44,0.00125845,0.046156,20.9217,47.9538,-0.115571,0.0,0.0
486,121.25,101.502,104.427,147.418,101.04,102.112,0.00115728,0.0452361,20.9224,48.0139,-0.0898078,0.0,0.0
495,123.5,100.906,103.187,146.305,101.032,102.988,0.00103295,0.0447633,20.9227,48.0039,-0.16314,0.0,0.0
504,125.75,100.066,102.353,150.017,100.998,102.227,0.000882233,0.044365,20.9241,48.0839,-0.102905,0.0,0.0
513,128,98.7806,100.539,143.66,100.977,102.353,0.000800534,0.043922,20.9256,48.0439,-0.115144,0.0,0.0
522,130.25,97.2266,99.7904,144.802,100.953,102.283,0.000763687,0.0437693,20.9268,48.0639,-0.111405,0.0,0.0
531,132.5,96.8174,98.7258,148.44,100.95,102.117,0.000699114,0.043615,20.9274,48.0239,-0.0978069,0.0,0.0
540,134.75,95.7144,98.1129,147.013,100.908,103.256,0.000533881,0.0433774,20.9275,48.0339,-0.195635,0.0,0.0
549,137,94.9965,97.2266,147.858,100.902,102.187,0.0003624,0.0432515,20.9276,48.0939,-0.107638,0.0,0.0
558,139.25,94.1254,96.328,152.438,100.902,103.044,0.00043232,0.043113,20.9276,48.0539,-0.178795,0.0,0.0
567,141.5,93.9049,95.4664,146.206,100.855,101.821,0.000656846,0.0430342,20.9278,48.0739,-0.0810406,0.0,0.0
576,143.75,92.9916,94.7252,146.91,100.83,102.708,0.000830172,0.0428172,20.9287,48.0839,-0.156957,0.0,0.0
585,146,92.272,94.2789,148.5,100.818,102.205,0.000834926,0.0427403,20.9291,48.104,-0.116196,0.0,0.0
594,148.25,91.6986,93.6104,148.821,100.779,102.178,0.000727009,0.0426852,20.9292,48.114,-0.11725,0.0,0.0
603,150.5,90.6125,92.6923,148.261,100.747,101.908,0.000634789,0.0426429,20.9293,48.0639,-0.097475,0.0,0.0
612,152.75,90.3659,92.6176,148.67,100.709,102.452,0.000506607,0.0425332,20.9293,48.0339,-0.145991,0.0,0.0
621,155,89.7012,91.5862,147.942,100.707,102.447,0.000397009,0.0424759,20.9304,48.0839,-0.145787,0.0,0.0
630,157.25,88.8805,91.0583,146.424,100.664,101.439,0.000312929,0.0423666,20.9308,48.0639,-0.0652408,0.0,0.0
639,159.5,88.2616,90.3254,150.915,100.628,101.522,0.000321266,0.0422978,20.9308,48.0139,-0.07524,0.0,0.0
648,161.75,88.5743,89.6253,146.765,100.595,101.711,0.000367758,0.0422759,20.9308,48.0339,-0.0938657,0.0,0.0
657,164,87.3212,89.3827,148.48,100.557,102.252,0.000462759,0.042114,20.9308,48.0339,-0.142219,0.0,0.0
666,166.25,87.0933,88.7713,151.837,100.542,100.419,0.000618179,0.0421437,20.9292,48.0139,0.0103843,0.0,0.0
675,168.5,86.5168,89.0024,147.301,100.521,102.045,0.000728873,0.0420631,20.9286,48.0539,-0.128048,0.0,0.0
684,170.75,86.4211,88.4186,146.604,100.496,102.227,0.000828666,0.0421367,20.9283,48.0839,-0.145259,0.0,0.0
693,173,86.0961,88.1762,146.744,100.478,101.668,0.000959054,0.04204,20.9282,48.0239,-0.100147,0.0,0.0
702,175.25,85.4237,87.9795,150.597,100.459,101.122,0.000981943,0.0419878,20.9282,48.0039,-0.0559797,0.0,0.0
711,177.5,85.5654,87.1754,149.728,100.432,101.369,0.000900953,0.0419233,20.9296,48.104,-0.0789992,0.0,0.0
720,179.75,84.7347,87.2222,145.951,100.489,101.425,0.000839151,0.0419861,20.9295,48.0839,-0.0788824,0.0,0.0
729,182,84.5267,86.3199,147.107,100.572,101.722,0.000688248,0.041826,20.9287,47.9738,-0.0967262,0.0,0.0
738,184.25,84.3777,86.405,147.263,100.639,101.371,0.000513475,0.0417535,20.9284,48.0339,-0.0617115,0.0,0.0
747,186.5,84.3337,86.1064,148.005,100.671,101.138,0.000472257,0.0416506,20.9283,47.9939,-0.0393577,0.0,0.0
756,188.75,83.7195,85.6842,149.725,100.725,101.567,0.000519906,0.0417296,20.9279,48.0439,-0.070782,0.0,0.0
765,191,84.1262,85.537,149.149,100.785,101.497,0.000488801,0.0416461,20.9275,48.0139,-0.0599326,0.0,0.0
774,193.25,83.3885,85.8893,146.411,100.833,100.969,0.000466566,0.0416358,20.9284,48.0439,-0.011476,0.0,0.0
783,195.5,83.4297,85.1989,146.352,100.88,102.038,0.000527933,0.0415901,20.9291,48.0039,-0.0971714,0.0,0.0
792,197.75,83.1147,85.3156,147.015,100.914,101.614,0.000528823,0.0416566,20.9295,48.0539,-0.0587846,0.0,0.0
800,199.75,82.7766,84.6966,146.529,100.968,102.05,0.00043058,0.0416821,20.9296,48.0139,-0.0906125,0.0,0.0

File: Latex_Pillow_Foam_HRRPUA_25.csv
Time after Ignition,Latex_Pillow_Foam_R1,Latex_Pillow_Foam_R2,Latex_Pillow_Foam_R3,Latex_Pillow_Foam_R4,Mean,Std. Dev.
0.0,1.5,2.0,3.2,3.1,2.5,0.9
1.0,1.5,2.3,3.1,3.6,2.6,0.9
2.0,1.7,2.5,3.5,4.1,2.9,1.1
3.0,1.8,2.6,3.7,4.5,3.1,1.2
4.0,1.9,2.8,3.6,4.8,3.3,1.3
5.0,1.9,3.2,3.1,5.3,3.3,1.4
6.0,1.9,3.4,2.7,5.7,3.4,1.6
7.0,2.0,3.7,2.5,6.3,3.6,1.9
8.0,2.2,4.0,2.6,7.1,4.0,2.2
9.0,2.9,4.5,4.1,7.7,4.8,2.0
10.0,3.4,4.0,7.4,8.1,5.7,2.3
11.0,5.6,7.5,26.8,13.6,13.4,9.6
12.0,10.6,24.5,64.8,32.1,33.0,23.0
13.0,25.2,74.9,102.4,68.2,67.7,32.0
14.0,57.0,131.9,149.8,129.3,117.0,41.0
15.0,101.3,190.0,202.5,179.0,168.2,45.6
16.0,147.7,231.9,259.2,222.6,215.3,47.7
17.0,196.5,276.7,310.1,269.3,263.2,47.8
18.0,234.2,305.4,339.9,302.3,295.4,44.2
19.0,258.8,345.3,383.3,332.5,330.0,52.1
20.0,292.1,369.8,407.8,347.7,354.4,48.3
21.0,302.9,387.5,439.4,367.1,374.2,56.5
22.0,332.2,410.5,464.0,383.0,397.4,55.0
23.0,332.9,426.5,471.8,410.8,410.5,57.8
24.0,365.1,426.7,483.7,417.0,423.1,48.6
25.0,382.4,449.9,478.1,423.8,433.6,40.7
26.0,395.7,459.7,506.7,423.4,446.4,48.0
27.0,402.2,469.6,503.9,443.9,454.9,42.9
28.0,428.4,480.7,492.7,450.0,463.0,29.2
29.0,424.7,468.9,499.9,452.1,461.4,31.5
30.0,429.8,473.5,483.6,443.6,457.6,25.1
31.0,429.5,474.7,494.8,452.1,462.8,28.2
32.0,438.3,460.2,470.7,451.6,455.2,13.7
33.0,437.5,477.5,488.7,462.1,466.4,22.2
34.0,437.0,468.2,513.4,468.5,471.8,31.4
35.0,444.4,454.7,504.3,464.7,467.0,26.2
36.0,458.2,471.8,516.6,476.0,480.6,25.2
37.0,465.1,471.0,512.1,500.3,487.1,22.7
38.0,446.7,458.9,520.3,474.6,475.1,32.2
39.0,438.6,455.4,530.4,496.8,480.3,41.4
40.0,458.2,454.3,509.1,510.1,482.9,30.8
41.0,454.0,467.9,547.7,501.4,492.8,41.7
42.0,449.3,471.1,548.6,509.0,494.5,43.7
43.0,457.1,477.8,546.5,514.6,499.0,39.6
44.0,459.1,501.5,553.2,518.4,508.0,39.1
45.0,456.5,497.9,549.4,505.5,502.3,38.1
46.0,456.9,497.2,569.0,519.1,510.5,46.7
47.0,466.4,498.2,555.0,559.6,519.8,45.3
48.0,474.7,503.0,558.3,558.2,523.6,41.7
49.0,482.1,514.8,552.4,544.4,523.4,32.0
50.0,483.3,499.7,560.2,544.4,521.9,36.3
51.0,486.1,518.9,551.4,538.7,523.8,28.5
52.0,468.3,524.3,567.4,562.8,530.7,45.9
53.0,468.7,510.5,577.0,549.8,526.5,47.2
54.0,474.0,522.5,581.3,550.1,532.0,45.5
55.0,480.8,533.8,579.4,560.0,538.5,42.8
56.0,468.1,537.1,557.7,562.4,531.3,43.6
57.0,477.2,531.3,573.3,558.7,535.1,42.4
58.0,472.9,549.1,551.2,545.2,529.6,37.9
59.0,474.5,551.2,567.3,574.6,541.9,46.0
60.0,460.9,560.3,574.2,567.6,540.8,53.5
61.0,476.2,567.8,564.6,557.8,541.6,43.8
62.0,473.1,578.4,579.2,541.5,543.0,49.8
63.0,463.5,592.5,552.2,563.5,543.0,55.6
64.0,471.6,578.4,541.8,549.8,535.4,45.3
65.0,475.3,589.8,550.5,566.4,545.5,49.5
66.0,502.3,598.8,549.9,569.4,555.1,40.5
67.0,474.5,585.0,554.4,554.8,542.2,47.3
68.0,470.1,587.4,525.7,563.2,536.6,51.1
69.0,485.7,601.2,515.6,551.1,538.4,49.7
70.0,485.4,570.5,514.6,553.6,531.0,38.4
71.0,497.9,584.0,515.3,566.4,540.9,40.9
72.0,489.5,571.9,500.3,549.5,527.8,39.3
73.0,486.3,567.5,525.6,576.4,539.0,41.5
74.0,486.8,576.3,504.1,569.3,534.1,45.3
75.0,497.6,572.2,497.3,563.9,532.7,40.9
76.0,477.0,567.8,526.6,605.8,544.3,55.3
77.0,493.5,574.4,548.7,566.8,545.9,36.5
78.0,490.2,570.5,510.4,587.0,539.5,46.5
79.0,499.8,566.3,521.8,588.5,544.1,40.5
80.0,502.2,550.9,537.2,574.9,541.3,30.4
81.0,516.6,548.2,517.0,585.3,541.8,32.6
82.0,493.9,541.8,553.2,614.5,550.9,49.6
83.0,495.4,504.2,553.1,633.5,546.6,63.3
84.0,492.4,507.0,566.7,651.9,554.5,72.5
85.0,479.3,522.2,547.1,621.2,542.4,59.5
86.0,488.8,497.2,574.9,648.7,552.4,75.0
87.0,511.1,493.8,568.8,629.6,550.8,61.5
88.0,499.3,474.2,576.7,617.2,541.8,66.5
89.0,499.7,480.6,597.2,629.0,551.6,72.6
90.0,501.2,465.9,602.8,627.4,549.3,78.0
91.0,491.1,466.6,601.6,679.3,559.6,99.1
92.0,505.7,471.1,596.5,668.4,560.4,89.3
93.0,494.8,475.1,588.0,691.5,562.3,99.2
94.0,493.7,479.4,590.3,703.4,566.7,103.6
95.0,511.1,481.1,595.1,700.9,572.0,98.5
96.0,512.8,474.7,583.6,706.6,569.4,101.9
97.0,496.6,474.5,627.1,736.4,583.6,122.1
98.0,498.4,472.8,627.7,729.0,582.0,119.2
99.0,494.6,489.4,644.6,740.4,592.2,122.2
100.0,505.5,463.0,619.9,734.9,580.9,122.2
101.0,503.0,462.2,653.1,737.4,588.9,128.6
102.0,498.8,472.1,651.4,749.5,592.9,130.9
103.0,494.1,463.4,616.4,763.6,584.4,136.5
104.0,502.8,465.6,640.5,761.6,592.7,135.5
105.0,485.8,453.1,648.4,756.4,585.9,142.2
106.0,500.6,476.1,645.4,784.3,601.6,142.9
107.0,498.0,481.1,649.0,752.8,595.2,129.4
108.0,500.6,481.5,667.1,743.7,598.2,127.9
109.0,501.3,486.3,651.0,746.8,596.3,124.9
110.0,502.6,503.8,650.4,721.8,594.7,109.5
111.0,488.0,514.7,656.7,696.3,588.9,103.0
112.0,513.4,535.4,640.6,694.1,595.9,85.9
113.0,491.3,562.8,626.6,690.6,592.8,85.5
114.0,513.9,580.4,637.9,672.3,601.1,69.4
115.0,501.3,603.4,609.3,652.5,591.6,64.1
116.0,500.5,651.9,605.8,647.1,601.3,70.3
117.0,505.5,676.9,583.1,608.6,593.5,70.8
118.0,501.5,697.1,543.2,572.3,578.5,84.2
119.0,494.8,727.3,524.3,553.6,575.0,104.3
120.0,486.1,732.9,512.3,549.6,570.2,111.5
121.0,485.6,739.9,498.9,522.5,561.7,119.8
122.0,487.2,745.6,474.2,501.1,552.0,129.5
123.0,472.9,730.9,478.9,487.7,542.6,125.7
124.0,464.8,711.7,456.0,487.9,530.1,121.8
125.0,477.5,694.5,447.3,463.6,520.7,116.5
126.0,474.1,648.4,442.9,461.0,506.6,95.4
127.0,455.4,651.2,433.1,437.7,494.3,105.0
128.0,462.6,613.3,441.2,428.3,486.3,85.8
129.0,465.2,567.8,443.5,417.0,473.4,66.0
130.0,479.5,549.6,433.6,417.3,470.0,59.3
131.0,458.6,519.5,418.2,404.3,450.2,51.7
132.0,484.1,491.9,410.0,390.4,444.1,51.4
133.0,472.0,454.0,391.3,373.3,422.7,47.7
134.0,465.2,454.9,358.0,354.3,408.1,60.1
135.0,492.5,435.1,326.6,334.3,397.1,80.5
136.0,469.1,412.8,291.4,301.5,368.7,86.6
137.0,451.0,401.0,253.5,268.4,343.5,97.6
138.0,471.6,388.0,,229.2,362.9,123.1
139.0,460.1,376.0,,194.9,343.7,135.5
140.0,473.3,371.6,,165.0,336.6,157.1
141.0,479.2,373.4,,143.7,332.1,171.5
142.0,466.7,371.3,,126.7,321.6,175.4
143.0,464.9,364.5,,111.7,313.7,182.0
144.0,471.0,365.9,,100.5,312.5,190.9
145.0,487.3,358.5,,88.4,311.4,203.6
146.0,480.4,354.3,,77.5,304.1,206.1
147.0,479.4,325.1,,67.8,290.8,207.9
148.0,485.2,304.5,,60.7,283.5,213.0
149.0,475.4,278.5,,54.4,269.4,210.7
150.0,482.1,235.2,,48.3,255.2,217.6
151.0,485.1,205.6,,43.1,244.6,223.6
152.0,491.4,176.7,,38.9,235.6,231.9
153.0,503.5,157.8,,34.5,231.9,243.1
154.0,496.5,140.9,,31.5,223.0,243.1
155.0,502.9,122.9,,,312.9,268.7
156.0,507.4,107.6,,,307.5,282.7
157.0,511.4,92.0,,,301.7,296.5
158.0,513.2,79.5,,,296.3,306.7
159.0,514.5,,,,514.5,
160.0,527.5,,,,527.5,
161.0,518.3,,,,518.3,
162.0,517.8,,,,517.8,
163.0,539.5,,,,539.5,
164.0,515.9,,,,515.9,
165.0,520.4,,,,520.4,
166.0,504.5,,,,504.5,
167.0,492.7,,,,492.7,
168.0,499.2,,,,499.2,
169.0,490.6,,,,490.6,
170.0,493.7,,,,493.7,
171.0,477.8,,,,477.8,
172.0,471.0,,,,471.0,
173.0,464.1,,,,464.1,
174.0,469.9,,,,469.9,
175.0,453.2,,,,453.2,
176.0,450.4,,,,450.4,
177.0,448.1,,,,448.1,
178.0,436.1,,,,436.1,
179.0,441.3,,,,441.3,
180.0,425.6,,,,425.6,
181.0,422.6,,,,422.6,
182.0,412.7,,,,412.7,
183.0,408.9,,,,408.9,
184.0,411.0,,,,411.0,
185.0,410.9,,,,410.9,
186.0,408.4,,,,408.4,
187.0,406.7,,,,406.7,
188.0,392.9,,,,392.9,
189.0,390.0,,,,390.0,
190.0,375.2,,,,375.2,
191.0,367.9,,,,367.9,
192.0,369.6,,,,369.6,
193.0,363.2,,,,363.2,
194.0,363.1,,,,363.1,
195.0,356.2,,,,356.2,
196.0,357.4,,,,357.4,
197.0,346.7,,,,346.7,
198.0,335.5,,,,335.5,
199.0,328.3,,,,328.3,
200.0,311.0,,,,311.0,
201.0,317.3,,,,317.3,
202.0,319.0,,,,319.0,
203.0,312.9,,,,312.9,
204.0,305.0,,,,305.0,
205.0,295.8,,,,295.8,
206.0,286.0,,,,286.0,
207.0,280.8,,,,280.8,
208.0,275.9,,,,275.9,
209.0,264.6,,,,264.6,
210.0,252.9,,,,252.9,
211.0,237.2,,,,237.2,
212.0,232.3,,,,232.3,
213.0,224.6,,,,224.6,
214.0,209.7,,,,209.7,
215.0,192.8,,,,192.8,
216.0,186.3,,,,186.3,
217.0,175.2,,,,175.2,
218.0,164.2,,,,164.2,
219.0,154.1,,,,154.1,
220.0,141.4,,,,141.4,
221.0,132.2,,,,132.2,
222.0,122.2,,,,122.2,
223.0,115.4,,,,115.4,
224.0,108.2,,,,108.2,
225.0,101.6,,,,101.6,
226.0,94.8,,,,94.8,
227.0,86.1,,,,86.1,
228.0,81.3,,,,81.3,
229.0,74.8,,,,74.8,
230.0,70.9,,,,70.9,
231.0,67.0,,,,67.0,

File: Latex_Pillow_Foam_HRRPUA_50.csv
Time after Ignition,Latex_Pillow_Foam_R1,Latex_Pillow_Foam_R2,Latex_Pillow_Foam_R3,Latex_Pillow_Foam_R4,Mean,Std. Dev.
0.0,-0.2,2.6,1.0,3.4,1.7,1.6
0.5,-0.1,2.7,1.4,3.1,1.8,1.4
1.0,-0.0,2.6,1.7,2.9,1.8,1.3
1.5,0.1,2.6,2.2,2.7,1.9,1.2
2.0,0.1,2.7,2.3,2.6,1.9,1.2
2.5,0.2,2.7,2.6,2.5,2.0,1.2
3.0,0.2,2.7,2.8,2.4,2.0,1.2
3.5,0.2,2.6,2.8,2.3,2.0,1.2
4.0,0.2,2.6,3.0,2.3,2.0,1.2
4.5,0.3,2.5,3.1,2.2,2.0,1.2
5.0,0.3,2.6,3.1,2.2,2.0,1.2
5.5,0.3,2.6,3.1,2.2,2.0,1.2
6.0,0.3,2.7,3.1,2.1,2.1,1.2
6.5,0.3,2.7,3.2,2.1,2.1,1.3
7.0,0.5,3.0,3.2,2.2,2.2,1.3
7.5,0.6,3.2,3.2,2.3,2.3,1.2
8.0,0.9,3.8,3.3,2.6,2.6,1.3
8.5,1.0,4.2,3.6,3.1,3.0,1.4
9.0,1.6,4.5,3.9,3.4,3.4,1.2
9.5,2.2,6.1,5.8,4.0,4.5,1.8
10.0,8.2,6.8,8.5,4.8,7.1,1.7
10.5,13.6,16.9,16.3,5.4,13.0,5.3
11.0,26.0,25.6,27.2,5.8,21.2,10.3
11.5,40.5,58.7,38.6,9.8,36.9,20.2
12.0,64.8,89.9,61.4,12.8,57.2,32.2
12.5,91.8,135.2,79.3,26.2,83.1,44.9
13.0,128.3,175.3,107.9,36.8,112.0,57.6
13.5,168.9,224.3,131.1,70.4,148.7,64.7
14.0,197.5,266.7,157.7,95.8,179.4,71.6
14.5,224.5,298.4,199.8,133.1,213.9,68.3
15.0,278.2,352.2,222.1,164.1,254.2,80.3
15.5,309.3,366.8,279.1,191.8,286.7,73.0
16.0,363.6,415.9,296.9,242.4,329.7,75.9
16.5,373.0,460.9,356.6,269.8,365.1,78.3
17.0,405.3,456.2,366.8,299.0,381.8,66.2
17.5,441.6,495.6,421.0,320.1,419.6,73.4
18.0,469.0,528.2,445.3,372.1,453.7,64.6
18.5,474.9,567.0,466.8,433.2,485.5,57.3
19.0,534.5,585.4,515.4,456.8,523.0,53.1
19.5,509.6,614.2,546.1,480.0,537.5,57.9
20.0,539.9,642.6,564.6,498.9,561.5,60.5
20.5,563.0,638.9,572.3,522.7,574.2,48.2
21.0,595.1,668.6,633.8,551.9,612.3,50.3
21.5,583.2,675.6,627.5,590.6,619.2,42.3
22.0,602.7,683.4,648.7,617.6,638.1,35.8
22.5,616.9,707.9,682.5,630.7,659.5,42.9
23.0,631.4,697.2,651.9,632.7,653.3,30.7
23.5,622.1,702.6,667.2,668.7,665.2,33.0
24.0,671.2,747.6,683.1,629.1,682.8,49.0
24.5,657.9,727.7,692.7,641.4,679.9,38.4
25.0,656.0,760.3,732.7,648.0,699.3,55.8
25.5,723.3,772.0,735.3,691.7,730.6,33.2
26.0,688.4,756.7,761.1,733.2,734.8,33.3
26.5,734.7,752.4,807.7,731.1,756.5,35.4
27.0,698.4,768.9,778.9,704.1,737.6,42.2
27.5,688.3,784.2,774.8,722.9,742.5,45.1
28.0,728.5,781.1,813.0,695.6,754.6,52.5
28.5,751.5,777.5,797.2,745.6,767.9,23.9
29.0,721.1,778.6,813.7,715.1,757.1,47.4
29.5,717.4,803.8,782.7,735.3,759.8,40.2
30.0,735.9,786.9,817.0,774.8,778.6,33.6
30.5,745.5,753.8,868.1,765.9,783.3,57.1
31.0,746.4,774.7,831.5,750.8,775.9,39.1
31.5,751.3,809.0,857.6,765.8,795.9,47.8
32.0,745.8,817.1,800.6,794.3,789.4,30.6
32.5,765.4,761.1,856.2,771.1,788.5,45.3
33.0,766.1,818.0,865.0,800.5,812.4,41.2
33.5,750.5,782.0,804.0,811.6,787.0,27.4
34.0,767.7,775.6,838.2,777.5,789.7,32.6
34.5,792.2,786.7,869.6,838.1,821.6,39.4
35.0,785.3,799.9,807.3,809.4,800.5,10.9
35.5,773.4,778.0,871.8,785.3,802.1,46.7
36.0,822.5,796.1,808.4,832.1,814.8,15.8
36.5,802.1,829.9,905.9,850.8,847.2,43.9
37.0,809.0,812.0,856.8,830.3,827.0,22.0
37.5,801.7,793.4,852.5,852.6,825.1,31.9
38.0,789.5,845.5,832.0,853.8,830.2,28.6
38.5,790.6,791.1,829.5,833.6,811.2,23.5
39.0,817.8,825.6,864.4,799.2,826.7,27.4
39.5,808.3,844.9,867.6,835.0,838.9,24.5
40.0,823.3,826.5,869.2,853.8,843.2,22.1
40.5,872.2,816.7,816.6,834.7,835.0,26.2
41.0,781.1,822.3,842.5,858.1,826.0,33.3
41.5,851.0,808.7,878.2,889.4,856.8,35.9
42.0,816.8,837.6,877.6,869.8,850.5,28.3
42.5,857.8,812.2,847.3,890.0,851.8,32.1
43.0,805.3,813.5,854.7,875.7,837.3,33.5
43.5,845.3,837.9,886.4,870.5,860.0,22.4
44.0,855.4,818.1,841.5,859.2,843.5,18.6
44.5,861.5,786.9,897.3,907.5,863.3,54.6
45.0,872.2,807.5,881.6,916.5,869.5,45.5
45.5,898.6,828.5,904.1,919.0,887.6,40.3
46.0,876.0,813.0,880.7,839.0,852.2,32.1
46.5,847.1,821.7,863.1,950.4,870.6,55.9
47.0,884.0,842.2,889.8,918.1,883.5,31.3
47.5,893.8,795.7,906.1,907.1,875.7,53.7
48.0,877.6,807.9,851.1,886.7,855.8,35.3
48.5,892.0,866.5,913.5,889.1,890.3,19.2
49.0,887.9,800.9,903.2,984.3,894.1,75.1
49.5,936.7,856.6,894.7,914.3,900.5,34.0
50.0,909.4,855.7,902.4,878.3,886.4,24.4
50.5,875.0,830.5,898.1,883.4,871.7,29.1
51.0,864.0,833.7,947.7,882.7,882.0,48.2
51.5,867.8,829.6,955.9,855.4,877.2,54.9
52.0,875.5,803.4,868.1,888.5,858.9,37.9
52.5,831.3,851.8,926.9,866.9,869.2,41.1
53.0,846.5,862.6,926.4,898.8,883.6,36.0
53.5,853.1,847.8,900.4,858.9,865.1,24.0
54.0,830.1,884.1,947.4,890.0,887.9,48.0
54.5,860.0,835.9,878.8,846.3,855.2,18.6
55.0,852.1,839.1,891.3,870.4,863.2,22.7
55.5,826.6,875.7,947.8,853.6,875.9,51.9
56.0,809.6,828.2,929.6,843.0,852.6,53.1
56.5,838.6,844.7,925.3,840.1,862.2,42.2
57.0,809.1,823.8,891.8,833.0,839.4,36.3
57.5,787.2,902.6,912.2,836.1,859.5,58.9
58.0,780.0,839.9,881.6,829.7,832.8,41.7
58.5,820.1,874.4,949.9,863.4,876.9,54.0
59.0,770.6,854.1,974.5,826.7,856.5,86.0
59.5,774.7,837.9,918.8,829.9,840.3,59.4
60.0,814.3,828.2,935.3,866.6,861.1,54.2
60.5,830.1,793.7,923.5,859.7,851.8,54.9
61.0,847.7,846.2,871.2,825.1,847.5,18.8
61.5,780.2,859.3,884.6,794.1,829.6,50.4
62.0,805.6,850.1,892.2,847.6,848.9,35.4
62.5,759.4,831.7,883.9,818.0,823.2,51.2
63.0,793.6,819.9,876.6,831.6,830.4,34.6
63.5,805.4,829.9,874.2,866.6,844.0,32.2
64.0,786.9,834.1,839.7,891.7,838.1,42.9
64.5,745.1,845.2,858.4,821.3,817.5,50.7
65.0,774.6,858.9,860.1,865.9,839.9,43.6
65.5,740.8,823.5,873.2,829.9,816.9,55.3
66.0,814.9,840.4,844.4,855.8,838.9,17.2
66.5,794.9,769.2,866.7,851.6,820.6,46.1
67.0,759.1,836.1,849.1,853.5,824.5,44.2
67.5,779.7,787.4,841.0,835.8,811.0,31.9
68.0,784.1,774.7,863.7,908.4,832.7,64.3
68.5,823.8,773.5,833.5,897.3,832.0,50.9
69.0,827.2,769.6,809.9,921.9,832.1,64.5
69.5,811.5,756.8,776.3,840.4,796.2,37.1
70.0,836.6,759.1,830.8,917.3,835.9,64.7
70.5,851.3,773.3,846.2,878.6,837.3,45.0
71.0,863.8,764.3,787.0,909.2,831.1,67.3
71.5,878.0,784.0,791.4,935.4,847.2,72.7
72.0,891.4,774.3,766.5,927.3,839.9,81.6
72.5,869.8,743.7,796.8,940.1,837.6,85.7
73.0,906.4,781.8,807.2,899.7,848.8,63.6
73.5,899.8,790.6,759.9,970.2,855.1,97.4
74.0,932.4,824.3,753.2,976.2,871.5,101.5
74.5,946.3,774.4,823.8,991.4,884.0,101.7
75.0,1021.1,788.1,824.0,965.2,899.6,111.4
75.5,1027.8,802.9,789.6,1022.8,910.8,132.3
76.0,1025.9,849.3,793.6,1011.8,920.2,116.3
76.5,1063.8,844.8,825.0,994.4,932.0,115.9
77.0,1094.7,850.8,819.7,1052.5,954.4,139.3
77.5,1100.7,863.5,849.6,1057.2,967.7,129.7
78.0,1121.3,931.1,855.7,1040.8,987.2,117.3
78.5,1137.3,888.5,896.3,1060.3,995.6,123.3
79.0,1138.3,913.7,887.9,1052.5,998.1,118.2
79.5,1168.7,935.2,877.3,1076.4,1014.4,132.6
80.0,1195.8,907.3,912.6,1090.2,1026.5,141.3
80.5,1173.8,964.0,957.1,1100.8,1048.9,106.3
81.0,1178.6,958.7,983.3,1087.7,1052.0,101.2
81.5,1177.6,956.7,983.3,1080.3,1049.5,100.6
82.0,1154.1,984.9,1016.6,1088.9,1061.1,75.7
82.5,1128.4,1017.5,1019.9,1054.7,1055.1,51.7
83.0,1098.3,1014.9,1054.1,1034.0,1050.3,35.7
83.5,1087.5,1029.8,1087.5,1017.7,1055.6,37.1
84.0,1040.2,1019.6,1106.6,986.4,1038.2,50.7
84.5,1011.8,1049.5,1124.1,938.9,1031.1,77.2
85.0,996.0,1031.4,1132.9,916.5,1019.2,89.8
85.5,946.2,1054.4,1148.6,,1049.7,101.3
86.0,921.7,1031.4,1150.4,,1034.5,114.4
86.5,878.3,1051.0,1196.8,,1042.0,159.5
87.0,848.4,1010.0,1202.4,,1020.3,177.2
87.5,788.4,1011.5,1231.3,,1010.4,221.4
88.0,748.2,1000.3,1206.5,,985.0,229.5