Folder: fsri_materials_database/01_Data/Latex_Pillow_Foam/Cone (part 3)

File: Latex_Pillow_Foam_Cone_HF25Scan_230628_R4.csv
Names,Time,Stack TC,Smoke TC,Exh Press,Smoke Comp,Smoke Meas,CO Meter,CO2 Meter,O2 Meter,Sample Mass,Ext Coeff,Start Test,Flame Verif
Chan Gain,,500,500,1,1,1,1,1,1,1,1,1.0,1.0
Offset,,0,0,0.13804,0,0,0,0,0,0,0,0.0,0.0
Gain,,1,1,25.011,12.9078,45.9244,1,1,1,1.00091,0.969894,1.0,1.0
Units,sec,C,C,Pa,%,%,%,%,%,g,/m,,
Baseline,,47.0717,47.7514,159.068,99.959,100.021,0.0012577,0.0479734,20.9332,-443.344,-0.00524259,,
12,2.75,43.6413,43.839,157.099,99.7994,99.2136,0.00119812,0.0498187,20.9325,70.6545,0.0500853,0.0,0.0
24,5.75,43.7686,44.2781,158.966,99.8462,95.8542,0.00110691,0.0514216,20.9324,70.7046,0.347148,0.0,0.0
36,8.75,43.7872,44.879,159.72,99.89,96.5199,0.00129697,0.054114,20.9297,70.6245,0.29199,0.0,0.0
48,11.75,44.2583,45.4575,150.868,99.9238,80.7726,0.00141182,0.0555632,20.9257,70.5244,1.81021,0.0,1.0
60,14.75,46.9835,51.1958,134.608,99.9522,65.237,0.00146114,0.0554379,20.9229,69.9339,3.63,0.0,1.0
72,17.75,50.9906,58.8904,139.455,99.9825,61.2091,0.00179326,0.0561473,20.9192,69.5535,4.17479,0.0,0.0
84,20.75,55.2654,65.0639,137.212,100.003,59.0942,0.00284419,0.150018,20.9093,69.0831,4.47569,0.0,0.0
96,23.75,59.0486,70.2533,141.787,100.031,61.7865,0.00804299,0.349034,20.7161,68.7128,4.09903,0.0,0.0
108,26.75,62.2355,74.7946,131.801,100.031,54.3221,0.0154438,0.489798,20.3925,68.2724,5.19448,0.0,0.0
120,29.75,65.1386,78.614,137.45,100.04,53.784,0.0211952,0.569219,20.1918,67.872,5.27993,0.0,0.0
132,32.75,67.9814,82.3916,124.387,100.051,52.4007,0.0254927,0.610992,20.0358,67.3916,5.50258,0.0,0.0
144,35.75,70.8679,85.9806,125.944,100.025,59.5063,0.0283276,0.624612,19.9598,66.8911,4.41849,0.0,0.0
156,38.75,73.522,90.5481,120.941,99.9877,56.273,0.0306175,0.64236,19.9267,66.4307,4.89057,0.0,0.0
168,41.75,77.2329,94.3175,125.79,99.9561,56.5225,0.0326928,0.666188,19.8889,65.9102,4.85026,0.0,0.0
180,44.75,79.5965,97.2565,127.91,99.9101,56.3445,0.0332802,0.70295,19.8435,65.4598,4.87317,0.0,0.0
192,47.75,82.6211,100.972,123.927,99.8529,58.7158,0.0332537,0.732389,19.7888,64.8893,4.51757,0.0,0.0
204,50.75,85.4183,104.827,126.532,99.799,57.1602,0.034309,0.746792,19.7465,64.3788,4.74142,0.0,0.0
216,53.75,87.9692,107.597,124.481,99.7493,57.589,0.0358262,0.781265,19.7271,63.9084,4.6736,0.0,0.0
228,56.75,90.1283,109.316,122.15,99.6788,52.8828,0.0375262,0.814286,19.664,63.3279,5.39291,0.0,0.0
240,59.75,91.5365,111.367,126.345,99.5894,53.5835,0.0379155,0.830225,19.6093,62.9075,5.27328,0.0,0.0
252,62.75,94.1614,114.045,122.122,99.5106,52.4694,0.038023,0.823787,19.5879,62.397,5.44532,0.0,0.0
264,65.75,95.5668,115.736,117.585,99.411,52.1694,0.0381811,0.820758,19.5956,61.9166,5.48556,0.0,0.0
276,68.75,96.8834,116.594,127.938,99.3531,52.7034,0.0382222,0.837361,19.5959,61.326,5.39397,0.0,0.0
288,71.75,98.5936,118.323,117.821,99.279,52.6516,0.0374957,0.852035,19.5696,60.8956,5.396,0.0,0.0
300,74.75,101.004,121.187,117.204,99.214,49.8598,0.0367827,0.840443,19.5513,60.3451,5.85395,0.0,0.0
312,77.75,102.752,122.763,120.647,99.101,47.9874,0.0377841,0.837189,19.5624,59.7646,6.1699,0.0,0.0
324,80.75,104.918,125.946,119.282,99.0332,49.1282,0.0398911,0.874001,19.5552,59.1841,5.96419,0.0,0.0
336,83.75,107.105,128.426,116.898,98.9729,49.1366,0.0413381,0.889522,19.5013,58.6636,5.95755,0.0,0.0
348,86.75,109.439,130.871,120.983,98.9048,43.1788,0.0426182,0.906778,19.4748,58.1131,7.05136,0.0,0.0
360,89.75,111.418,133.608,110.111,98.8626,44.5481,0.0446254,0.954618,19.4391,57.5025,6.78213,0.0,0.0
372,92.75,113.335,137.182,117.057,98.8197,46.9292,0.0466384,0.983665,19.3562,56.922,6.33542,0.0,0.0
384,95.75,116.689,140.814,110.251,98.7835,41.9805,0.0483785,1.00964,19.307,56.3114,7.28037,0.0,0.0
396,98.75,118.853,143.058,120.365,98.7685,42.7317,0.0504137,1.05045,19.266,55.6408,7.12818,0.0,0.0
408,101.75,120.314,145.916,119.016,98.7488,40.4501,0.0520302,1.10286,19.1895,55.1104,7.59334,0.0,0.0
420,104.75,122.65,147.905,110.622,98.7527,42.6476,0.0534407,1.12651,19.1109,54.5699,7.14358,0.0,0.0
432,107.75,124.326,148.958,117.488,98.7551,44.5186,0.0554586,1.13905,19.0685,53.9793,6.77849,0.0,0.0
444,110.75,124.473,149.123,114.615,98.759,47.63,0.0570381,1.146,19.0468,53.4688,6.20409,0.0,0.0
456,113.75,124.194,147.379,121.752,98.774,45.9314,0.0574496,1.12765,19.0297,52.9684,6.51434,0.0,0.0
468,116.75,123.927,145.449,129.647,98.8079,50.1134,0.0560111,1.08691,19.0544,52.558,5.77587,0.0,0.0
480,119.75,122.415,141.911,139.574,98.8422,52.1288,0.0529384,1.00526,19.1412,52.1677,5.44337,0.0,0.0
492,122.75,120.234,137.845,135.294,98.9068,51.25,0.0497679,0.917709,19.2587,51.8274,5.59357,0.0,0.0
504,125.75,118.138,133.406,131.124,98.9607,55.4419,0.0460837,0.814787,19.4076,51.427,4.92933,0.0,0.0
516,128.75,115.88,130.174,143.105,99.008,53.7699,0.041876,0.714955,19.5992,51.0867,5.19392,0.0,0.0
528,131.75,113.205,125.775,138.656,99.0691,61.3465,0.0386821,0.649972,19.7628,50.8965,4.07764,0.0,0.0
540,134.75,110.309,121.074,146.47,99.1368,87.1957,0.0356816,0.594509,19.8755,50.8064,1.09194,0.0,0.0
552,137.75,106.801,114.68,147.665,99.2243,94.1794,0.0330657,0.552868,19.9744,50.7464,0.443948,0.0,0.0
564,140.75,102.949,109.727,150.563,99.3137,97.5248,0.0300194,0.488514,20.0426,50.7464,0.154646,0.0,0.0
576,143.75,99.5651,104.171,157.256,99.4035,99.4238,0.0236994,0.37787,20.1556,50.7464,-0.00173955,0.0,0.0
588,146.75,96.1454,99.8045,158.324,99.5083,99.8863,0.0168025,0.282752,20.3269,50.7364,-0.0322609,0.0,0.0
600,149.75,93.3231,95.392,154.17,99.5867,99.6032,0.0124285,0.205968,20.5522,50.7063,-0.00141342,0.0,0.0
612,152.75,90.6397,91.6425,152.898,99.6887,100.181,0.0102445,0.159481,20.6829,50.7564,-0.0418814,0.0,0.0
624,155.75,87.5998,88.0202,155.287,99.7852,100.311,0.0090445,0.128081,20.7601,50.7364,-0.0447102,0.0,0.0
636,158.75,84.9524,85.5365,159.978,99.8754,100.851,0.00848985,0.10664,20.8145,50.7364,-0.0826637,0.0,0.0
648,161.75,83.1901,82.7821,158.167,99.9471,100.849,0.00796936,0.0925185,20.8487,50.7464,-0.0764414,0.0,0.0
660,164.75,81.4463,80.2253,153.46,100.027,100.422,0.00689202,0.0822003,20.8715,50.7564,-0.0334994,0.0,0.0
672,167.75,78.5407,77.8232,154.717,100.102,100.594,0.00552194,0.0740147,20.8848,50.7263,-0.041728,0.0,0.0
684,170.75,76.9762,75.7006,153.475,100.164,100.884,0.00424765,0.0667834,20.8959,50.7263,-0.0609745,0.0,0.0
696,173.75,75.4192,74.0105,153.636,100.223,101.044,0.0034809,0.061499,20.9062,50.7364,-0.0693867,0.0,0.0
708,176.75,74.165,72.5164,155.992,100.292,100.504,0.00291062,0.0574919,20.9139,50.7364,-0.0180158,0.0,0.0
720,179.75,72.5003,70.918,156.963,100.375,100.823,0.00268278,0.0549158,20.9195,50.7364,-0.0378565,0.0,0.0
732,182.75,70.9653,69.8371,155.37,100.407,100.723,0.00252073,0.0535091,20.9219,50.7263,-0.0267518,0.0,0.0
744,185.75,69.8016,68.1311,151.771,100.459,100.842,0.00242578,0.0523029,20.9236,50.7464,-0.0324039,0.0,0.0
756,188.75,68.7724,67.6794,157.693,100.515,100.737,0.00223461,0.0513373,20.9256,50.7163,-0.0187949,0.0,0.0
768,191.75,68.0354,66.501,155.115,100.58,100.569,0.00203432,0.0507528,20.926,50.7263,0.000954322,0.0,0.0
780,194.75,66.5451,65.842,157.862,100.61,100.605,0.00189014,0.050567,20.9259,50.7263,0.00037018,0.0,0.0
792,197.75,65.9845,64.2847,154.087,100.631,100.553,0.00188759,0.0501767,20.9259,50.7664,0.00658781,0.0,0.0
804,200.75,65.1836,63.5245,153.417,100.653,100.804,0.0019107,0.0499311,20.9267,50.7464,-0.012746,0.0,0.0
816,203.75,64.3634,63.2722,157.934,100.67,100.674,0.00187593,0.0497161,20.9278,50.7364,-0.000307312,0.0,0.0
828,206.75,64.235,62.7552,153.841,100.67,100.839,0.00193678,0.0495328,20.9281,50.7063,-0.0142718,0.0,0.0
840,209.75,63.2769,62.1607,156.39,100.657,100.465,0.00196638,0.0495476,20.9282,50.6963,0.0162261,0.0,0.0
852,212.75,63.1915,61.1523,155.017,100.673,100.434,0.00184096,0.0493703,20.9282,50.7063,0.0201701,0.0,0.0
864,215.75,61.9023,61.2217,150.672,100.627,100.111,0.00160288,0.0492129,20.929,50.7464,0.0438096,0.0,0.0
876,218.75,61.5835,60.7679,156.127,100.586,100.587,0.00143304,0.049041,20.9301,50.7263,-0.000121199,0.0,0.0
888,221.75,61.3856,59.893,160.446,100.551,100.755,0.00127059,0.0490304,20.9293,50.7364,-0.0173003,0.0,0.0
900,224.75,60.8806,60.0196,155.715,100.492,100.441,0.001367,0.0488484,20.9285,50.7263,0.0043154,0.0,0.0
912,227.75,60.0473,59.3145,154.558,100.426,100.569,0.00156083,0.0488964,20.9278,50.7163,-0.0120513,0.0,0.0
924,230.75,59.5147,58.8251,154.223,100.375,99.997,0.0016652,0.048996,20.9279,50.7364,0.0321203,0.0,0.0
936,233.75,59.152,58.6137,153.059,100.3,100.217,0.00180608,0.0489063,20.9282,50.6763,0.00707526,0.0,0.0
948,236.75,58.622,58.301,160.432,100.228,100.401,0.00176042,0.0489356,20.9278,50.7364,-0.0146147,0.0,0.0
960,239.75,58.9109,58.0828,155.654,100.115,100.012,0.00166848,0.0489599,20.9286,50.7364,0.00867826,0.0,0.0
972,242.75,59.1549,57.5916,158.459,100.052,100.032,0.00171037,0.0489148,20.9288,50.6863,0.00168444,0.0,0.0
984,245.75,58.064,57.6678,155.435,99.9959,99.7167,0.00174576,0.0488712,20.9289,50.7063,0.0237896,0.0,0.0
996,248.75,57.7212,56.9117,155.106,99.9026,100.154,0.00162297,0.048914,20.9294,50.7263,-0.0213842,0.0,0.0
1008,251.75,57.85,56.8078,156.125,99.8439,99.8415,0.0015629,0.048905,20.9297,50.7263,0.000206897,0.0,0.0
1020,254.75,57.242,56.5134,156.98,99.8187,99.5471,0.00162821,0.0488091,20.9297,50.6963,0.0231746,0.0,0.0
1032,257.75,56.7702,56.4666,164.383,99.8466,100.186,0.00151725,0.0488442,20.9294,50.7364,-0.0288871,0.0,0.0
1044,260.75,56.8161,55.6976,154.747,99.9439,100.025,0.00150578,0.0486818,20.9297,50.7464,-0.006903,0.0,0.0
1056,263.75,56.4449,55.9894,157.339,100.031,100.705,0.00165718,0.0487891,20.9301,50.7664,-0.0571487,0.0,0.0
1068,266.75,56.3372,55.7914,158.094,100.101,100.202,0.00157592,0.0487861,20.9302,50.7163,-0.00854092,0.0,0.0
1080,269.75,56.2102,55.6838,155.763,100.176,100.314,0.00133541,0.0487254,20.9308,50.7364,-0.0117299,0.0,0.0
1092,272.75,55.546,55.6919,157.623,100.2,100.719,0.001404,0.0487751,20.931,50.6963,-0.0439716,0.0,0.0
1104,275.75,55.5932,55.2412,157.647,100.228,100.513,0.00147705,0.0489292,20.931,50.7063,-0.0241431,0.0,0.0
1116,278.75,55.7816,54.9104,158.064,100.258,100.019,0.00156898,0.0488002,20.9306,50.7364,0.0202571,0.0,0.0
1128,281.75,55.4839,55.1227,153.634,100.292,100.3,0.00152977,0.0488631,20.9303,50.7464,-0.00064405,0.0,0.0
1138,284.25,55.7014,54.8016,155.859,100.304,100.56,0.00141591,0.0488206,20.9302,50.7664,-0.0217578,0.0,0.0

File: Latex_Pillow_Foam_Cone_HF50Scalar_230628_R1.csv
LABORATORY,FSRI
TEST IDENT,LPC_HF50_R1
OPERATOR,Marino
MATERIAL,Engineered Wood Table
ORIENTATION,Horizontal
HEAT FLUX,50
SURF AREA,0.01
C FACTOR,0.0403601
SPEC HOLDER DIFF,-566
SPECIMEN MASS,20.87
SCAN TIME,0.25
O2 DELAY TIME,11
CO DELAY TIME,11
CO2 DELAY TIME,8
FLOW FACTOR,1
SCAN COUNT,849
TIME TO IGN,4.25
END OF TEST SCAN,369
END OF TEST TIME,92.25
TEST STATUS,1
PRE TEST CMT,Dimensions: 97.67 x 104.40 x 36.66 mm
POST TEST CMT,Sample melted and shrank.

File: Latex_Pillow_Foam_Cone_HF50Scalar_230628_R2.csv
LABORATORY,FSRI
TEST IDENT,LPC_HF50_R2
OPERATOR,Marino
MATERIAL,Engineered Wood Table
ORIENTATION,Horizontal
HEAT FLUX,50
SURF AREA,0.01
C FACTOR,0.0403601
SPEC HOLDER DIFF,-566
SPECIMEN MASS,23.24
SCAN TIME,0.25
O2 DELAY TIME,11
CO DELAY TIME,11
CO2 DELAY TIME,8
FLOW FACTOR,1
SCAN COUNT,898
TIME TO IGN,6.75
END OF TEST SCAN,418
END OF TEST TIME,104.5
TEST STATUS,1
PRE TEST CMT,Dimensions: 100.51 x 101.98 x 35.89 mm
POST TEST CMT,"Spark igniter did not activate, sample auto-ignited. Sample melted and shrank."

File: Latex_Pillow_Foam_Cone_HF50Scalar_230628_R3.csv
LABORATORY,FSRI
TEST IDENT,LPC_HF50_R3
OPERATOR,Marino
MATERIAL,Engineered Wood Table
ORIENTATION,Horizontal
HEAT FLUX,50
SURF AREA,0.01
C FACTOR,0.0403601
SPEC HOLDER DIFF,-566
SPECIMEN MASS,23.54
SCAN TIME,0.25
O2 DELAY TIME,11
CO DELAY TIME,11
CO2 DELAY TIME,8
FLOW FACTOR,1
SCAN COUNT,888
TIME TO IGN,2.75
END OF TEST SCAN,408
END OF TEST TIME,102
TEST STATUS,1
PRE TEST CMT,Dimensions: 102.39 x 102.40 x 35.63 mm
POST TEST CMT,"Sample melted and shrank."

File: Latex_Pillow_Foam_Cone_HF50Scalar_230630_R4.csv
LABORATORY,FSRI
TEST IDENT,LPC_HF50_R4
OPERATOR,Marino
MATERIAL,Engineered Wood Table
ORIENTATION,Horizontal
HEAT FLUX,50
SURF AREA,0.01
C FACTOR,0.0403601
SPEC HOLDER DIFF,-566
SPECIMEN MASS,20.8
SCAN TIME,0.25
O2 DELAY TIME,11
CO DELAY TIME,11
CO2 DELAY TIME,8
FLOW FACTOR,1
SCAN COUNT,828
TIME TO IGN,1.75
END OF TEST SCAN,348
END OF TEST TIME,87
TEST STATUS,1
PRE TEST CMT,Dimensions: 99.58 x 99.72 x 37.47 mm
POST TEST CMT,"Sample melted and shrank."

File: Latex_Pillow_Foam_Cone_HF50Scan_230628_R1.csv
Names,Time,Stack TC,Smoke TC,Exh Press,Smoke Comp,Smoke Meas,CO Meter,CO2 Meter,O2 Meter,Sample Mass,Ext Coeff,Start Test,Flame Verif
Chan Gain,,500,500,1,1,1,1,1,1,1,1,1.0,1.0
Offset,,0,0,0.13804,0,0,0,0,0,0,0,0.0,0.0
Gain,,1,1,25.011,12.9078,45.9244,1,1,1,1.00091,0.969894,1.0,1.0
Units,sec,C,C,Pa,%,%,%,%,%,g,/m,,
Baseline,,56.4168,58.9555,154.319,100.597,100.855,0.000958392,0.0473291,20.9313,-444.682,3.43593,,
9,2,52.6229,53.5937,156.922,99.9026,63.729,0.000912837,0.0506497,20.9328,67.3315,3.82475,0.0,0.0
18,4.25,52.8327,54.6162,150.03,99.8738,58.828,0.000893246,0.0510985,20.9318,67.1313,4.50312,0.0,1.0
27,6.5,54.1902,58.5055,123.127,99.8711,38.2035,0.000815243,0.050726,20.931,66.771,8.17564,0.0,1.0
36,8.75,58.7014,67.3227,119.964,99.8817,33.5379,0.000632783,0.050279,20.9307,66.1805,9.2847,0.0,1.0
45,11,63.955,76.8388,118.41,99.8722,34.8287,0.000555802,0.0539621,20.9304,65.73,8.96259,0.0,0.0
54,13.25,69.5003,86.0807,108.741,99.8955,30.5835,0.00158557,0.124014,20.9273,65.2396,10.0704,0.0,0.0
63,15.5,74.784,94.4431,106.176,99.8919,29.8379,0.00648587,0.334132,20.8529,64.7091,10.2801,0.0,0.0
72,17.75,79.4872,101.459,116.015,99.8837,30.1042,0.0155883,0.56813,20.5277,64.2487,10.2038,0.0,0.0
81,20,84.6035,109.772,102.044,99.9034,31.608,0.0267149,0.796009,20.0955,63.7282,9.79076,0.0,0.0
90,22.25,88.9854,115.742,116.418,99.914,31.3053,0.0343358,0.928,19.7817,63.2478,9.87354,0.0,0.0
99,24.5,94.3177,122.999,109.666,99.912,29.5983,0.0409904,1.01671,19.5189,62.6973,10.3504,0.0,0.0
108,26.75,98.8137,129.312,105.544,99.9376,27.852,0.0458023,1.09364,19.3076,62.1468,10.87,0.0,0.0
117,29,102.8,134.661,111.059,99.964,28.7644,0.0490957,1.16309,19.1655,61.5963,10.598,0.0,0.0
126,31.25,107.006,139.967,102.316,99.968,28.1505,0.051579,1.21701,19.0345,61.0458,10.7818,0.0,0.0
135,33.5,111.625,145.954,117.233,99.9644,29.9571,0.0537912,1.25527,18.9341,60.5653,10.2524,0.0,0.0
144,35.75,114.952,150.305,102.098,100.008,27.2508,0.0566168,1.2867,18.8607,59.9348,11.0616,0.0,0.0
153,38,118.766,155.195,100.483,99.9892,27.7063,0.0593145,1.31265,18.8014,59.3242,10.919,0.0,0.0
162,40.25,122.206,159.01,113.365,99.9861,26.4113,0.061384,1.3464,18.7561,58.8638,11.326,0.0,0.0
171,42.5,125.245,162.697,113.741,99.9955,27.5128,0.0628843,1.38502,18.7193,58.2532,10.9791,0.0,0.0
180,44.75,128.238,165.458,118.473,99.994,27.3643,0.0640698,1.41659,18.6535,57.6927,11.0251,0.0,0.0
189,47,130.387,167.927,104.137,99.9794,28.1449,0.0653862,1.44298,18.6016,57.1122,10.7845,0.0,0.0
198,49.25,133.136,170.658,110.452,99.9609,26.8611,0.0667466,1.45645,18.5534,56.5216,11.1801,0.0,0.0
207,51.5,135.417,172.206,110.005,99.9447,27.4848,0.0675718,1.45532,18.5229,56.0712,10.9835,0.0,0.0
216,53.75,137.279,173.78,124.525,99.9081,26.564,0.0677835,1.44341,18.5123,55.5908,11.2703,0.0,0.0
225,56,139.187,175.393,111.43,99.8789,26.2613,0.0679345,1.43066,18.5236,55.0603,11.3653,0.0,0.0
234,58.25,140.734,176.401,100.943,99.8608,25.9964,0.067622,1.40634,18.5416,54.4397,11.45,0.0,0.0
243,60.5,142.294,178.712,106.2,99.8258,23.1262,0.0668067,1.38434,18.5766,53.8692,12.4424,0.0,0.0
252,62.75,144.94,180.887,105.369,99.7994,25.8857,0.0660495,1.3675,18.6117,53.3688,11.4811,0.0,0.0
261,65,146.83,184.011,99.0988,99.7635,23.3266,0.0656183,1.36192,18.6395,52.8283,12.3637,0.0,0.0
270,67.25,148.61,186.18,103.034,99.6989,21.6784,0.0655409,1.37597,18.653,52.1677,12.9816,0.0,0.0
279,69.5,151.377,189.828,108.247,99.6493,17.9126,0.0665709,1.40772,18.6527,51.5371,14.6008,0.0,0.0
288,71.75,154.634,194.909,96.7823,99.6154,18.6848,0.0681745,1.45115,18.6034,50.8364,14.2388,0.0,0.0
297,74,156.916,198.734,100.26,99.5839,21.8774,0.069255,1.4851,18.5224,50.2259,12.894,0.0,0.0
306,76.25,158.576,199.149,115.168,99.5272,24.5164,0.071548,1.55865,18.4745,49.7955,11.9202,0.0,0.0
315,78.5,157.887,195.125,126.049,99.4964,27.5801,0.0771328,1.68711,18.3565,49.4151,10.9158,0.0,0.0
324,80.75,154.938,188.639,126.527,99.4638,30.1266,0.0842548,1.76935,18.1285,49.1949,10.1616,0.0,0.0
333,83,151.976,180.609,130.24,99.4188,34.3213,0.0880818,1.72058,17.9866,48.9247,9.04872,0.0,0.0
342,85.25,148.179,173.771,139.613,99.3728,58.877,0.0851211,1.52626,17.9914,48.8546,4.45324,0.0,0.0
351,87.5,143.209,165.288,143.757,99.3393,65.8032,0.0763167,1.24943,18.2715,48.8747,3.50414,0.0,0.0
360,89.75,138.829,157.346,145.188,99.2873,66.9609,0.0636631,0.985426,18.6705,48.9147,3.35132,0.0,0.0
369,92,134.809,149.683,150.174,99.2432,67.3981,0.0501117,0.743408,19.1385,48.8947,3.29216,0.0,0.0
378,94.25,129.526,141.9,147.269,99.1927,66.9735,0.0371881,0.552136,19.5817,48.8646,3.34161,0.0,0.0
387,96.5,125.297,136.511,144.176,99.188,67.6028,0.0263866,0.3887,19.9094,48.8246,3.26164,0.0,0.0
396,98.75,121.674,130.737,148.219,99.1329,66.8207,0.0185592,0.271398,20.2606,48.8646,3.3559,0.0,0.0
405,101,118.764,126.106,145.544,99.1132,67.4009,0.0150787,0.198752,20.5227,48.8246,3.28065,0.0,0.0
414,103.25,115.873,122.214,147.598,99.1065,67.0996,0.0138646,0.156008,20.6649,48.8346,3.3182,0.0,0.0
423,105.5,112.697,118.424,148.954,99.0754,67.8158,0.0129723,0.126314,20.758,48.7746,3.2252,0.0,0.0
432,107.75,109.998,114.414,146.995,99.0411,67.691,0.011584,0.110315,20.8039,48.7746,3.23792,0.0,0.0
441,110,107.314,111.392,153.73,99.0379,66.4619,0.00972289,0.0963358,20.8362,48.7946,3.39355,0.0,0.0
450,112.25,105.538,108.34,147.743,99.0104,67.2552,0.00787029,0.0860635,20.8585,48.8146,3.29024,0.0,0.0
459,114.5,103.42,106.199,145.247,98.9836,67.1795,0.00635945,0.0773453,20.8741,48.8346,3.29752,0.0,0.0
468,116.75,101.255,103.005,148.362,98.9757,67.2412,0.00522085,0.070796,20.884,48.8046,3.28904,0.0,0.0
477,119,99.5335,101.198,153.075,98.9564,66.5825,0.0042119,0.0654262,20.895,48.8146,3.37113,0.0,0.0
486,121.25,97.8936,99.187,147.265,98.9513,66.7731,0.00331608,0.0610606,20.905,48.8146,3.34637,0.0,0.0
495,123.5,96.4873,97.4847,146.688,98.9572,66.8431,0.00259011,0.0575821,20.9126,48.7946,3.33795,0.0,0.0
504,125.75,94.3592,94.8991,153.392,98.9418,66.7282,0.00199151,0.0550531,20.9172,48.8046,3.35127,0.0,0.0
513,128,93.0757,93.9518,148.05,98.9068,66.3554,0.00180741,0.0531504,20.9214,48.8246,3.39592,0.0,0.0
522,130.25,91.7561,92.4901,153.926,98.9182,67.3112,0.00174925,0.0517037,20.9247,48.8246,3.27523,0.0,0.0
531,132.5,90.4569,91.3703,152.43,98.9072,66.2755,0.0015017,0.0505347,20.9262,48.7946,3.40621,0.0,0.0
540,134.75,89.5555,89.745,150.199,98.8843,66.6764,0.00112341,0.049748,20.928,48.8046,3.35294,0.0,0.0
549,137,87.9452,88.7447,148.841,98.8626,66.7633,0.000961932,0.0493432,20.9285,48.7946,3.34,0.0,0.0
558,139.25,87.2519,87.5842,150.224,98.8666,66.6371,0.00109799,0.0489614,20.9281,48.8246,3.35642,0.0,0.0
567,141.5,85.9019,86.7491,149.481,98.8363,66.7128,0.00113127,0.0486168,20.9293,48.8146,3.34416,0.0,0.0
576,143.75,85.1395,85.2881,151.801,98.839,65.8789,0.00103975,0.0483797,20.9298,48.7946,3.45141,0.0,0.0
585,146,84.2247,84.5632,153.311,98.8307,66.937,0.000929856,0.0482535,20.93,48.8046,3.31513,0.0,0.0
594,148.25,83.2751,83.9393,149.502,98.8012,67.3813,0.000841877,0.0480757,20.9301,48.7646,3.25631,0.0,0.0
603,150.5,82.39,82.7922,146.981,98.7925,66.6273,0.000784628,0.047904,20.9301,48.8246,3.3513,0.0,0.0
612,152.75,82.0244,82.2012,148.729,98.8055,66.5418,0.000744325,0.0478576,20.9301,48.8446,3.36334,0.0,0.0
621,155,81.4228,81.4479,153.477,98.8024,66.2433,0.000789146,0.0477924,20.9316,48.8446,3.40133,0.0,0.0
630,157.25,80.6189,80.5245,154.962,98.7689,66.1298,0.000935564,0.047843,20.9321,48.8146,3.41304,0.0,0.0
639,159.5,80.0631,80.5514,150.805,98.7803,66.2027,0.00108469,0.0479254,20.9323,48.8046,3.40465,0.0,0.0
648,161.75,79.4592,79.7572,151.895,98.7819,66.4437,0.00113641,0.047822,20.9322,48.7445,3.37386,0.0,0.0
657,164,78.3918,78.8377,149.084,98.7236,66.3274,0.0011557,0.0476373,20.9322,48.7245,3.38375,0.0,0.0
666,166.25,78.3281,78.5363,148.591,98.7161,66.8123,0.00125276,0.0475811,20.9322,48.7545,3.32113,0.0,0.0
675,168.5,77.6634,78.0401,151.83,98.7015,66.2601,0.00124795,0.047356,20.9322,48.7946,3.39048,0.0,0.0
684,170.75,77.4389,77.5452,147.82,98.6613,66.2349,0.00112685,0.047408,20.9322,48.7746,3.39025,0.0,0.0
693,173,76.9594,77.388,150.07,98.6507,66.148,0.00101623,0.0474171,20.9311,48.7946,3.40051,0.0,0.0
702,175.25,76.5517,76.6685,152.462,98.6625,65.8299,0.000968069,0.0473,20.9303,48.7946,3.44254,0.0,0.0
711,177.5,76.3277,76.378,145.909,98.631,65.7654,0.000956315,0.0473752,20.93,48.8146,3.44816,0.0,0.0
720,179.75,75.9382,75.8657,148.629,98.6011,66.2223,0.000911595,0.0473878,20.9302,48.7846,3.38668,0.0,0.0
729,182,75.2044,75.379,149.612,98.59,66.183,0.00084348,0.0473393,20.9314,48.7846,3.39077,0.0,0.0
738,184.25,74.5594,75.2122,151.369,98.5956,65.9462,0.000827726,0.0472491,20.9329,48.7946,3.42175,0.0,0.0
747,186.5,74.601,75.378,153.636,98.5526,66.2335,0.000835363,0.0470538,20.932,48.8046,3.38105,0.0,0.0
756,188.75,74.1563,74.9085,151.398,98.5743,66.2994,0.0008915,0.0470659,20.9317,48.8146,3.37447,0.0,0.0
765,191,73.9833,75.0449,150.057,98.5893,66.0891,0.000916779,0.0470733,20.933,48.8046,3.40278,0.0,0.0
774,193.25,73.7213,73.9257,150.474,98.5684,65.9195,0.00090126,0.0471025,20.9335,48.7846,3.42284,0.0,0.0
783,195.5,72.9349,73.9544,152.117,98.5574,66.0793,0.000872685,0.0472562,20.9337,48.7746,3.40129,0.0,0.0
792,197.75,73.1699,73.7152,150.016,98.5845,65.8425,0.000813303,0.0473167,20.9337,48.7746,3.43418,0.0,0.0
801,200,72.3462,73.4032,148.616,98.5794,66.183,0.000741452,0.0472282,20.9333,48.7545,3.38985,0.0,0.0
810,202.25,72.1948,73.0711,150.912,98.5696,66.5166,0.00070724,0.0471857,20.9319,48.7646,3.34623,0.0,0.0
819,204.5,71.8285,72.9171,150.352,98.6125,65.9462,0.000766088,0.0471023,20.9314,48.8246,3.42321,0.0,0.0
828,206.75,71.7498,72.266,152.062,98.6101,66.0751,0.000729628,0.0470486,20.9314,48.7445,3.40638,0.0,0.0
837,209,71.6481,72.5663,149.622,98.6287,66.375,0.000557151,0.0469444,20.9323,48.7345,3.36945,0.0,0.0
846,211.25,71.0549,72.4273,150.676,98.6401,66.1396,0.00040689,0.0469716,20.9325,48.7545,3.40067,0.0,0.0
849,212,70.9894,71.8161,145.925,98.655,66.0443,0.000376618,0.0469548,20.9329,48.7545,3.41423,0.0,0.0