Folder: fsri_materials_database/01_Data/Latex_Pillow_Foam/Cone (part 8)

File: Latex_Pillow_Foam_HRRPUA_75.csv
Time after Ignition,Latex_Pillow_Foam_R1,Latex_Pillow_Foam_R2,Latex_Pillow_Foam_R3,Latex_Pillow_Foam_R4,Mean,Std. Dev.
0.0,-0.9,-0.1,0.4,-1.3,-0.5,0.8
0.5,-0.9,-0.1,0.4,-1.1,-0.4,0.7
1.0,-0.8,-0.1,0.3,-1.0,-0.4,0.6
1.5,-0.8,-0.1,0.3,-0.9,-0.4,0.6
2.0,-0.7,-0.1,0.3,-0.8,-0.3,0.5
2.5,-0.6,-0.1,0.3,-0.7,-0.3,0.5
3.0,-0.4,-0.1,0.3,-0.6,-0.2,0.4
3.5,-0.2,0.0,0.3,-0.6,-0.1,0.4
4.0,0.4,0.2,0.3,-0.6,0.1,0.4
4.5,1.0,0.3,0.3,-0.5,0.3,0.6
5.0,1.8,0.4,0.3,-0.5,0.5,1.0
5.5,2.3,0.5,0.0,-0.5,0.6,1.2
6.0,2.9,0.7,-0.4,-0.5,0.7,1.6
6.5,4.5,0.9,-0.7,-0.4,1.1,2.4
7.0,5.4,1.3,-0.9,-0.3,1.4,2.8
7.5,15.2,1.9,-0.9,-0.2,4.0,7.5
8.0,22.1,2.7,-0.9,0.3,6.1,10.8
8.5,49.0,3.2,-0.8,0.9,13.1,24.0
9.0,70.8,3.5,-0.4,1.6,18.9,34.7
9.5,119.3,4.4,0.2,2.1,31.5,58.6
10.0,171.5,5.2,1.0,2.7,45.1,84.3
10.5,207.9,6.8,1.8,3.4,55.0,102.0
11.0,239.4,8.6,6.6,4.8,64.9,116.4
11.5,322.9,16.4,15.0,5.6,90.0,155.3
12.0,370.1,28.5,33.4,13.4,111.3,172.7
12.5,380.1,61.5,56.0,28.2,131.5,166.4
13.0,450.2,89.8,69.9,46.9,164.2,191.5
13.5,484.6,126.4,101.9,63.0,194.0,195.5
14.0,544.7,181.9,137.5,103.4,241.9,204.4
14.5,593.6,204.0,193.2,153.7,286.1,206.1
15.0,600.7,256.8,233.4,187.7,319.7,189.5
15.5,661.5,291.4,267.7,232.3,363.2,200.3
16.0,672.8,328.7,329.8,278.3,402.4,181.9
16.5,691.5,380.5,351.4,306.5,432.5,175.3
17.0,755.2,427.7,441.4,345.3,492.4,180.3
17.5,828.5,494.4,483.9,392.9,549.9,191.2
18.0,826.3,490.8,557.8,424.9,574.9,176.1
18.5,860.0,626.5,622.6,477.6,646.7,158.2
19.0,834.1,654.9,641.7,490.2,655.2,140.7
19.5,929.1,678.8,656.2,534.0,699.5,165.7
20.0,925.1,785.6,663.0,569.8,735.9,154.0
20.5,985.9,830.7,760.0,600.5,794.3,160.0
21.0,909.4,792.1,732.3,698.1,782.9,92.8
21.5,944.8,874.5,821.1,693.2,833.4,106.3
22.0,1030.0,844.4,789.7,764.8,857.2,119.9
22.5,1088.6,889.6,920.3,800.2,924.7,120.6
23.0,1033.0,946.5,862.8,832.3,918.7,90.3
23.5,1016.1,932.2,854.4,805.1,901.9,92.3
24.0,1092.1,928.8,914.8,825.9,940.4,110.9
24.5,980.6,945.1,882.7,858.6,916.8,56.1
25.0,1056.2,948.3,1008.4,903.0,979.0,67.2
25.5,1070.5,1012.4,1049.9,957.2,1022.5,49.7
26.0,1078.3,981.8,934.0,904.0,974.5,76.2
26.5,1154.5,997.2,1037.9,954.1,1035.9,86.1
27.0,1078.2,1043.3,1003.3,964.9,1022.4,49.1
27.5,1034.8,1003.3,1004.9,975.9,1004.7,24.1
28.0,1107.2,1061.6,1012.5,974.4,1038.9,57.8
28.5,1064.6,1021.5,1031.8,1034.0,1038.0,18.6
29.0,1083.1,1044.9,1068.0,1058.4,1063.6,16.1
29.5,1104.5,1039.8,1015.6,1039.8,1049.9,38.1
30.0,1100.9,1052.1,1054.3,1097.6,1076.2,26.7
30.5,1139.4,1055.8,1003.5,1068.9,1066.9,56.0
31.0,1082.1,1109.7,1118.9,1017.7,1082.1,45.7
31.5,1114.4,1043.9,1182.9,1067.8,1102.3,61.2
32.0,1112.7,1076.0,1139.6,1117.1,1111.4,26.3
32.5,1069.1,1084.4,1137.4,1062.7,1088.4,33.9
33.0,1106.4,1077.7,1088.6,1060.6,1083.3,19.2
33.5,1067.4,1059.8,1175.1,1088.5,1097.7,53.0
34.0,1095.2,1079.1,1155.9,1094.3,1106.2,34.0
34.5,1077.6,1067.0,1127.8,1076.6,1087.2,27.4
35.0,1089.0,1043.7,1115.1,1128.1,1094.0,37.3
35.5,1098.8,1074.5,1180.8,1050.0,1101.0,56.8
36.0,1073.4,1069.9,1214.8,1129.7,1122.0,67.7
36.5,1164.9,1063.0,1181.7,1164.6,1143.6,54.3
37.0,1194.3,1053.9,1130.7,1095.4,1118.6,59.4
37.5,1116.6,1073.0,1187.1,1129.7,1126.6,47.1
38.0,1154.6,1088.3,1238.2,1137.0,1154.5,62.5
38.5,1112.7,1069.0,1132.3,1117.2,1107.8,27.2
39.0,1106.0,1105.7,1202.2,1091.3,1126.3,51.1
39.5,1135.2,1106.9,1086.4,1126.1,1113.6,21.7
40.0,1174.7,1067.1,1188.8,1176.8,1151.9,56.8
40.5,1162.9,1038.6,1173.9,1077.2,1113.2,65.9
41.0,1145.4,1032.3,1146.4,1079.9,1101.0,55.4
41.5,1211.6,1072.1,1153.4,1226.9,1166.0,70.2
42.0,1135.9,1085.2,1166.8,1168.0,1139.0,38.8
42.5,1164.9,1077.9,1154.7,1156.0,1138.4,40.6
43.0,1141.3,1076.9,1130.3,1166.2,1128.7,37.6
43.5,1127.3,1130.3,1236.5,1144.7,1159.7,51.7
44.0,1075.2,1087.1,1125.5,1256.5,1136.1,83.1
44.5,1098.9,1083.7,1158.2,1179.0,1129.9,45.9
45.0,1144.8,1047.9,1189.7,1202.9,1146.3,70.2
45.5,1142.4,1067.2,1123.7,1237.8,1142.8,71.0
46.0,1127.3,1108.7,1148.4,1215.8,1150.1,46.7
46.5,1143.2,1072.5,1199.9,1190.6,1151.6,58.2
47.0,1103.4,1062.8,1203.7,1267.6,1159.4,93.3
47.5,1162.9,1022.4,1119.0,1231.5,1134.0,87.6
48.0,1185.6,1054.5,1170.4,1211.8,1155.6,69.5
48.5,1155.5,1073.5,1160.7,1181.0,1142.7,47.4
49.0,1120.8,1015.0,1221.9,1174.6,1133.1,88.9
49.5,1157.6,1039.0,1192.7,1218.7,1152.0,79.4
50.0,1203.6,1063.2,1158.5,1189.9,1153.8,63.3
50.5,1241.6,1032.9,1212.1,1226.1,1178.2,97.6
51.0,1245.3,1056.0,1242.5,1230.4,1193.5,91.9
51.5,1302.8,991.9,1242.2,1262.1,1199.7,140.8
52.0,1295.3,1013.4,1285.7,1224.5,1204.7,131.3
52.5,1289.7,982.1,1234.2,1226.2,1183.1,136.9
53.0,1297.7,1045.0,1289.4,1331.8,1241.0,131.9
53.5,1347.1,979.1,1286.6,1222.1,1208.8,161.4
54.0,1320.5,1027.3,1271.9,1312.7,1233.1,138.8
54.5,1379.0,983.1,1256.1,1319.6,1234.5,174.9
55.0,1354.2,1035.6,1315.6,1211.6,1229.2,142.4
55.5,1420.2,1009.6,1382.8,1270.5,1270.8,185.4
56.0,1424.0,1026.2,1333.4,1212.5,1249.0,171.9
56.5,1466.5,1033.0,1409.7,1272.7,1295.5,193.0
57.0,1507.2,986.5,1422.7,1310.3,1306.7,228.2
57.5,1492.4,1007.1,1467.8,1256.2,1305.9,225.7
58.0,1508.2,1070.1,1456.3,1300.7,1333.8,196.7
58.5,1511.1,1073.1,1484.5,1304.3,1343.2,202.2
59.0,1521.0,1082.4,1509.6,1282.3,1348.8,208.9
59.5,1513.5,1117.1,1538.7,1326.7,1374.0,195.7
60.0,1496.9,1119.9,1544.1,1311.2,1368.0,193.6
60.5,1494.7,1148.3,1546.8,1317.9,1376.9,181.2
61.0,1483.7,1154.7,1595.8,1315.6,1387.5,193.2
61.25,1446.5,1184.0,1596.5,1330.9,1389.5,174.9