Folder: fsri_materials_database/01_Data/Latex_Pillow_Foam/Cone (part 5)

File: Latex_Pillow_Foam_Cone_HF50Scan_230630_R4.csv
Names,Time,Stack TC,Smoke TC,Exh Press,Smoke Comp,Smoke Meas,CO Meter,CO2 Meter,O2 Meter,Sample Mass,Ext Coeff,Start Test,Flame Verif
Chan Gain,,500,500,1,1,1,1,1,1,1,1,1.0,1.0
Offset,,0,0,0.13804,0,0,0,0,0,0,0,0.0,0.0
Gain,,1,1,25.011,12.8632,68.4336,1,1,1,1.00091,0.969894,1.0,1.0
Units,sec,C,C,Pa,%,%,%,%,%,g,/m,,
Baseline,,61.391,62.6495,155.793,100.147,100.107,0.000747823,0.0435669,20.9339,-445.507,0.00341574,,
9,2,57.9988,58.4933,149.254,99.4124,95.46,0.000381599,0.0466869,20.9273,67.1313,0.345163,0.0,1.0
18,4.25,59.5348,62.1302,132.359,99.3822,65.2696,0.000514202,0.0460093,20.9285,66.8411,3.57709,0.0,1.0
27,6.5,62.9419,69.1373,121.242,99.3539,56.9055,0.00060494,0.0459717,20.929,66.3006,4.74139,0.0,1.0
36,8.75,67.2584,76.9491,122.561,99.348,45.5256,0.000667714,0.0488488,20.9289,65.9503,6.63912,0.0,0.0
45,11,72.8437,85.9042,121.171,99.352,50.6172,0.00116638,0.102681,20.9255,65.4398,5.73749,0.0,0.0
54,13.25,77.2806,93.6858,113.609,99.3335,47.9482,0.00370562,0.264209,20.9104,64.9694,6.19678,0.0,0.0
63,15.5,82.3789,101.775,122.281,99.3284,46.9855,0.0102368,0.504403,20.7259,64.4088,6.36891,0.0,0.0
72,17.75,87.021,109.256,116.766,99.3312,46.9165,0.0194237,0.709636,20.3485,63.8283,6.38164,0.0,0.0
81,20,91.8197,115.667,110.356,99.3143,45.0432,0.0292688,0.886595,19.9541,63.3779,6.72687,0.0,0.0
90,22.25,96.3123,121.983,106.047,99.308,44.0262,0.037311,1.01366,19.5726,62.8274,6.92064,0.0,0.0
99,24.5,100.572,128.429,110.939,99.3268,43.1072,0.0431278,1.10614,19.3187,62.3069,7.10171,0.0,0.0
108,26.75,105.099,134.897,98.9843,99.3076,41.6934,0.0470209,1.17081,19.1529,61.6864,7.38378,0.0,0.0
117,29,109.162,140.117,106.79,99.3516,38.8636,0.0497766,1.21468,19.0272,61.256,7.98553,0.0,0.0
126,31.25,113.842,146.819,103.965,99.3684,38.2976,0.0524209,1.26036,18.9313,60.5653,8.11178,0.0,0.0
135,33.5,117.469,151.593,94.9024,99.3673,37.1531,0.0555231,1.31202,18.8588,59.9648,8.3698,0.0,0.0
144,35.75,121.39,156.61,102.868,99.3543,40.7599,0.059337,1.35482,18.7784,59.2942,7.58044,0.0,0.0
153,38,125.071,161.112,104.971,99.372,40.2586,0.0636884,1.40154,18.7018,58.8538,7.68722,0.0,0.0
162,40.25,128.058,163.747,106.164,99.3736,37.3641,0.067539,1.43465,18.6336,58.2032,8.32217,0.0,0.0
171,42.5,130.924,166.663,105.6,99.3732,41.4824,0.0692314,1.4685,18.5555,57.6527,7.43255,0.0,0.0
180,44.75,132.875,169.152,105.929,99.3684,39.4337,0.0700692,1.49213,18.4942,57.0821,7.86307,0.0,0.0
189,47,134.812,170.883,111.451,99.3712,39.8932,0.0707686,1.48411,18.44,56.6217,7.76474,0.0,0.0
198,49.25,137.214,173.846,108.947,99.3692,40.409,0.0708984,1.47012,18.4255,56.0212,7.65527,0.0,0.0
207,51.5,139.315,175.345,103.811,99.3818,35.238,0.0701695,1.45187,18.4542,55.5007,8.82129,0.0,0.0
216,53.75,141.836,177.366,110.553,99.3747,36.3386,0.0694157,1.43214,18.4838,54.9702,8.55902,0.0,0.0
225,56,144.249,180.576,98.0066,99.3692,34.8809,0.069505,1.41908,18.5118,54.2996,8.90688,0.0,0.0
234,58.25,145.588,182.263,103.627,99.3359,32.9282,0.0697923,1.41717,18.5324,53.7291,9.39415,0.0,0.0
243,60.5,147.869,184.618,105.441,99.3296,32.2975,0.0699542,1.42768,18.543,53.1486,9.55815,0.0,0.0
252,62.75,149.773,187.043,101.415,99.3327,31.7441,0.0705409,1.45196,18.5382,52.528,9.70547,0.0,0.0
261,65,151.467,189.515,108.124,99.3143,28.7952,0.0717118,1.47205,18.4995,51.8874,10.5334,0.0,0.0
270,67.25,153.358,191.167,96.864,99.3237,26.0719,0.0734953,1.48109,18.4541,51.1467,11.3794,0.0,0.0
279,69.5,155.412,193.547,103.435,99.3347,31.9446,0.076157,1.49678,18.4317,50.7664,9.65207,0.0,0.0
288,71.75,157.309,194.714,114.501,99.3469,33.4629,0.0786945,1.51586,18.3987,50.2359,9.25807,0.0,0.0
297,74,157.265,193.657,117.615,99.3783,35.8688,0.0808792,1.53259,18.3658,49.8155,8.67006,0.0,0.0
306,76.25,156.446,189.824,126.771,99.4046,38.9638,0.0833221,1.5603,18.3293,49.4452,7.96814,0.0,0.0
315,78.5,153.622,183.929,123.963,99.3959,43.8612,0.0856763,1.57444,18.2825,49.1949,6.96011,0.0,0.0
324,80.75,150.877,177.478,133.177,99.4489,63.5425,0.0855605,1.50553,18.2495,49.0548,3.81096,0.0,0.0
333,83,146.782,170.505,145.098,99.5043,88.3906,0.0801516,1.34234,18.2626,48.9547,1.00762,0.0,0.0
342,85.25,143.032,163.053,148.338,99.5573,97.2727,0.0702732,1.11625,18.5089,49.0048,0.197505,0.0,0.0
351,87.5,138.34,155.326,148.59,99.5887,100.854,0.0595389,0.920313,18.9112,48.9147,-0.107448,0.0,0.0
360,89.75,133.428,148.341,145.082,99.6248,99.7997,0.0458712,0.697749,19.2787,48.9547,-0.0149261,0.0,0.0
369,92,130.022,142.38,148.573,99.7092,100.593,0.0348456,0.531663,19.6058,48.9447,-0.075108,0.0,0.0
378,94.25,126.821,136.361,149.504,99.7351,100.963,0.0244012,0.385445,19.9398,48.9347,-0.104104,0.0,0.0
387,96.5,123.195,132.444,150.011,99.7838,100.639,0.0173403,0.272434,20.2489,48.8947,-0.0726312,0.0,0.0
396,98.75,120.145,127.37,154.684,99.8591,101.159,0.0144399,0.198373,20.4919,48.9047,-0.110056,0.0,0.0
405,101,117.523,123.496,149.828,99.9129,100.961,0.0136473,0.156616,20.6487,48.9147,-0.0887722,0.0,0.0
414,103.25,114.685,119.757,149.191,99.9341,101.082,0.0129112,0.129026,20.7371,48.8947,-0.0971683,0.0,0.0
423,105.5,112.313,116.307,154.007,99.9906,100.969,0.01146,0.109384,20.7954,48.9047,-0.0828598,0.0,0.0
432,107.75,109.887,113.373,148.668,100.066,101.5,0.0100555,0.0963865,20.8251,48.9047,-0.121064,0.0,0.0
441,110,107.933,111.094,152.939,100.064,101.253,0.00828618,0.0844556,20.8485,48.9047,-0.100515,0.0,0.0
450,112.25,105.809,107.648,152.197,100.108,100.689,0.00664419,0.0749915,20.8682,48.9147,-0.0492663,0.0,0.0
459,114.5,104.064,105.801,150.141,100.148,101.111,0.00529463,0.06719,20.8847,48.8947,-0.0814681,0.0,0.0
468,116.75,102.021,103.423,152.007,100.162,101.182,0.00419193,0.0615529,20.8968,48.9147,-0.0862068,0.0,0.0
477,119,100.445,100.967,152.138,100.189,100.988,0.00317442,0.0572745,20.9058,48.8947,-0.0675928,0.0,0.0
486,121.25,98.6816,99.5453,149.06,100.2,100.712,0.00241793,0.0539332,20.9136,48.9047,-0.0433701,0.0,0.0
495,123.5,97.5167,97.8438,152.213,100.205,100.798,0.00193029,0.0511602,20.9186,48.9047,-0.0502008,0.0,0.0
504,125.75,95.711,96.2611,155.187,100.196,101.211,0.00162742,0.0492104,20.923,48.8947,-0.0857648,0.0,0.0
513,128,94.281,94.6845,148.166,100.171,100.322,0.00137593,0.0478625,20.9265,48.8947,-0.0127821,0.0,0.0
522,130.25,92.8028,93.1991,148.443,100.178,101.458,0.00122271,0.0466609,20.9267,48.9047,-0.107988,0.0,0.0
531,132.5,91.7641,91.9109,151.333,100.146,100.927,0.00114808,0.0458831,20.9274,48.9147,-0.0661571,0.0,0.0
540,134.75,91.1271,90.7086,150.628,100.089,101.195,0.000984379,0.0456333,20.9287,48.9447,-0.0934986,0.0,0.0
549,137,89.8133,89.9161,148.386,100.081,100.927,0.000820281,0.0453299,20.9292,48.9247,-0.0716948,0.0,0.0
558,139.25,88.4818,88.2275,154.287,100.01,100.291,0.000753029,0.0450615,20.9294,48.8947,-0.0238395,0.0,0.0
567,141.5,87.3253,87.6546,151.708,99.9871,100.813,0.000711562,0.044943,20.9295,48.9147,-0.0699521,0.0,0.0
576,143.75,87.0677,86.2529,150.602,99.9365,101.579,0.000625481,0.044771,20.9295,48.9047,-0.138701,0.0,0.0
585,146,85.741,85.6248,153.8,99.9007,100.362,0.000612308,0.0446811,20.9295,48.8747,-0.0391498,0.0,0.0
594,148.25,85.5532,84.841,149.289,99.7834,99.9417,0.000678987,0.0445576,20.9295,48.8747,-0.0134911,0.0,0.0
603,150.5,84.3555,84.4835,155.116,99.7504,100.449,0.000633647,0.044358,20.9307,48.8847,-0.0593948,0.0,0.0
612,152.75,83.4368,83.5752,151.039,99.6876,100.443,0.000448574,0.04421,20.9311,48.8947,-0.0642235,0.0,0.0
621,155,83.0278,83.2487,149.205,99.5781,100.222,0.000365522,0.0441771,20.931,48.9047,-0.0548037,0.0,0.0
630,157.25,82.1621,82.109,148.543,99.5157,100.401,0.000405268,0.044105,20.931,48.9147,-0.075371,0.0,0.0
639,159.5,81.7231,81.903,156.046,99.4254,99.7621,0.000435749,0.0440939,20.931,48.9047,-0.0287681,0.0,0.0
648,161.75,81.0477,81.2483,152.626,99.3347,99.6473,0.000521343,0.0440824,20.931,48.8947,-0.0267295,0.0,0.0
657,164,80.537,80.6535,150.086,99.253,99.357,0.00052402,0.0439583,20.9308,48.8847,-0.00890438,0.0,0.0
666,166.25,79.9415,79.9386,149.956,99.1753,99.7371,0.000495876,0.0439268,20.9317,48.8847,-0.048055,0.0,0.0
675,168.5,79.215,79.6459,150.96,99.0709,99.4405,0.000456994,0.043969,20.9322,48.8346,-0.0316826,0.0,0.0
684,170.75,79.0167,79.2175,151.164,98.9947,99.4092,0.000438717,0.0439758,20.9309,48.8246,-0.0355448,0.0,0.0
693,173,78.7546,79.075,150.593,98.8856,99.121,0.000466207,0.0438858,20.9304,48.8446,-0.0202267,0.0,0.0
702,175.25,78.4286,78.5527,151.124,98.7773,99.9417,0.000471128,0.0439068,20.9299,48.8947,-0.0997113,0.0,0.0
711,177.5,77.9894,78.1652,155.561,98.7298,98.8495,0.000493041,0.0439502,20.9303,48.8646,-0.0103112,0.0,0.0
720,179.75,77.5039,78.1451,152.82,98.6858,100.228,0.000503608,0.0439303,20.9308,48.8646,-0.131914,0.0,0.0
729,182,77.4073,77.5078,152.348,98.6371,100.384,0.000425782,0.0441043,20.9311,48.9247,-0.149398,0.0,0.0
738,184.25,76.9793,77.2409,149.956,98.559,99.3779,0.000369463,0.0443209,20.9308,48.8747,-0.0703939,0.0,0.0
747,186.5,76.2189,76.6803,151.239,98.519,100.253,0.000434272,0.044388,20.9307,48.9047,-0.148437,0.0,0.0
756,188.75,76.2809,76.7748,150.916,98.4738,99.2755,0.000602532,0.0443874,20.9313,48.8847,-0.0689853,0.0,0.0
765,191,76.2462,76.082,151.519,98.4251,98.5822,0.000706869,0.0442972,20.9315,48.8947,-0.0135627,0.0,0.0
774,193.25,75.5178,76.1185,155.596,98.3773,99.1523,0.000709881,0.0441636,20.9316,48.8246,-0.0667653,0.0,0.0
783,195.5,75.3855,75.4018,151.572,98.3702,99.4697,0.000679279,0.0439002,20.9316,48.8546,-0.0945722,0.0,0.0
792,197.75,74.9802,75.6284,150.543,98.316,99.0917,0.000567456,0.043965,20.9305,48.8346,-0.066865,0.0,0.0
801,200,74.7385,75.1915,149.087,98.2983,97.4774,0.000511224,0.0440377,20.9317,48.8646,0.0713531,0.0,0.0
810,202.25,74.4485,75.0437,148.883,98.2952,98.1164,0.000635623,0.0439127,20.9323,48.8747,0.0154861,0.0,0.0
819,204.5,74.1352,74.7586,149.819,98.2901,98.436,0.000709801,0.0438401,20.9325,48.8446,-0.012617,0.0,0.0
828,206.75,74.2876,74.101,152.456,98.2819,98.3316,0.000701233,0.0436894,20.9326,48.8947,-0.00430085,0.0,0.0

File: Latex_Pillow_Foam_Cone_HF75Scalar_230628_R1.csv
LABORATORY,FSRI
TEST IDENT,LPC_HF75_R1
OPERATOR,Marino
MATERIAL,Engineered Wood Table
ORIENTATION,Horizontal
HEAT FLUX,75
SURF AREA,0.01
C FACTOR,0.0403601
SPEC HOLDER DIFF,-566
SPECIMEN MASS,21.05
SCAN TIME,0.25
O2 DELAY TIME,11
CO DELAY TIME,11
CO2 DELAY TIME,8
FLOW FACTOR,1
SCAN COUNT,746
TIME TO IGN,5.25
END OF TEST SCAN,266
END OF TEST TIME,66.5
TEST STATUS,1
PRE TEST CMT,Dimensions: 104.93 x 101.48 x 34.83 mm
POST TEST CMT,"Sample melted and shrank. Delayed flame verification, actual time to ignitions was less than 2 seconds after start of test."

File: Latex_Pillow_Foam_Cone_HF75Scalar_230628_R2.csv
LABORATORY,FSRI
TEST IDENT,LPC_HF75_R2
OPERATOR,Marino
MATERIAL,Engineered Wood Table
ORIENTATION,Horizontal
HEAT FLUX,75
SURF AREA,0.01
C FACTOR,0.0403601
SPEC HOLDER DIFF,-566
SPECIMEN MASS,19.92
SCAN TIME,0.25
O2 DELAY TIME,11
CO DELAY TIME,11
CO2 DELAY TIME,8
FLOW FACTOR,1
SCAN COUNT,745
TIME TO IGN,1.75
END OF TEST SCAN,265
END OF TEST TIME,66.25
TEST STATUS,1
PRE TEST CMT,Dimensions: 96.61 x 94.97 x 35.65 mm
POST TEST CMT, Sample melted and shrank.

File: Latex_Pillow_Foam_Cone_HF75Scalar_230628_R3.csv
LABORATORY,FSRI
TEST IDENT,LPC_HF75_R3
OPERATOR,Marino
MATERIAL,Engineered Wood Table
ORIENTATION,Horizontal
HEAT FLUX,75
SURF AREA,0.01
C FACTOR,0.0403601
SPEC HOLDER DIFF,-566
SPECIMEN MASS,21.54
SCAN TIME,0.25
O2 DELAY TIME,11
CO DELAY TIME,11
CO2 DELAY TIME,8
FLOW FACTOR,1
SCAN COUNT,754
TIME TO IGN,1
END OF TEST SCAN,274
END OF TEST TIME,68.5
TEST STATUS,1
PRE TEST CMT,Dimensions: 101.72 x 107.30 x 33.74 mm
POST TEST CMT,"Delayed flame verification, actual time to ignition was less than 2 seconds after start of test. Sample melted and shrank."

File: Latex_Pillow_Foam_Cone_HF75Scalar_230630_R4.csv
LABORATORY,FSRI
TEST IDENT,LPC_HF75_R4
OPERATOR,Marino
MATERIAL,Engineered Wood Table
ORIENTATION,Horizontal
HEAT FLUX,75
SURF AREA,0.01
C FACTOR,0.0403601
SPEC HOLDER DIFF,-566
SPECIMEN MASS,21.73
SCAN TIME,0.25
O2 DELAY TIME,11
CO DELAY TIME,11
CO2 DELAY TIME,8
FLOW FACTOR,1
SCAN COUNT,800
TIME TO IGN,1.25
END OF TEST SCAN,320
END OF TEST TIME,80
TEST STATUS,1
PRE TEST CMT,Dimensions: 106.72 x 99.36 x 34.29 mm
POST TEST CMT,"Sample melted and shrank."

File: Latex_Pillow_Foam_Cone_HF75Scan_230628_R1.csv
Names,Time,Stack TC,Smoke TC,Exh Press,Smoke Comp,Smoke Meas,CO Meter,CO2 Meter,O2 Meter,Sample Mass,Ext Coeff,Start Test,Flame Verif
Chan Gain,,500,500,1,1,1,1,1,1,1,1,1.0,1.0
Offset,,0,0,0.13804,0,0,0,0,0,0,0,0.0,0.0
Gain,,1,1,25.011,12.8632,68.4336,1,1,1,1.00091,0.969894,1.0,1.0
Units,sec,C,C,Pa,%,%,%,%,%,g,/m,,
Baseline,,54.0894,57.3302,157.586,98.3729,94.8581,0.00080351,0.0407504,20.9382,-445.176,0.309656,,
8,1.75,54.986,57.4952,147.291,99.3449,81.4299,0.000972062,0.041809,20.9422,66.9111,1.69183,0.0,1.0
16,3.75,57.3087,61.8124,121.351,99.2636,48.7711,0.000843462,0.0420255,20.9412,66.5408,6.04603,0.0,1.0
24,5.75,60.7697,69.7459,110.129,99.1498,38.7779,0.000785367,0.0427441,20.9402,65.8702,7.98699,0.0,1.0
32,7.75,66.3662,80.7413,100.364,99.1914,32.7674,0.000847853,0.0449174,20.9396,65.2796,9.42342,0.0,1.0
40,9.75,72.4791,92.1356,112.78,99.1847,31.316,0.00121285,0.0760819,20.9358,64.6891,9.80831,0.0,1.0
48,11.75,79.4372,103.583,111.679,99.2507,31.1698,0.00338121,0.206043,20.9273,64.1686,9.85378,0.0,0.0
56,13.75,86.2896,114.749,100.351,99.297,30.9254,0.0111681,0.457477,20.8118,63.3979,9.9247,0.0,0.0
64,15.75,92.6231,125.451,101.52,99.3249,28.1875,0.0242112,0.790839,20.3959,62.8274,10.7158,0.0,0.0
72,17.75,98.862,135.644,88.5351,99.3783,28.5906,0.0384967,1.09434,19.8569,62.1968,10.5995,0.0,0.0
80,19.75,105.607,145.907,103.415,99.4458,28.6198,0.05397,1.33752,19.3465,61.4562,10.5966,0.0,0.0
88,21.75,111.357,153.619,88.8488,99.4843,28.6491,0.0670143,1.52897,18.9065,60.8256,10.5912,0.0,0.0
96,23.75,116.825,161.198,98.5913,99.5467,29.8938,0.077431,1.67925,18.5049,60.225,10.2347,0.0,0.0
104,25.75,122.038,168.418,107.177,99.6319,26.427,0.0861733,1.79218,18.2315,59.5544,11.2907,0.0,0.0
112,27.75,126.628,174.896,113.143,99.6786,27.2561,0.0935337,1.87648,18.0002,58.8638,11.0319,0.0,0.0
120,29.75,131.087,180.007,82.8281,99.7535,28.9916,0.0988078,1.92356,17.8177,58.1431,10.5131,0.0,0.0
128,31.75,135.61,186.816,108.765,99.8112,27.1537,0.101774,1.95348,17.708,57.6226,11.0752,0.0,0.0
136,33.75,140.032,193.047,89.9991,99.8509,27.3605,0.102648,1.97125,17.642,56.8319,11.0141,0.0,0.0
144,35.75,144.824,198.739,102.01,99.909,25.6543,0.102472,1.98686,17.6033,56.1813,11.5668,0.0,0.0
152,37.75,148.366,202.858,89.4923,99.9157,24.9901,0.102555,2.01485,17.5818,55.5908,11.7906,0.0,0.0
160,39.75,152.402,207.448,90.6135,99.9506,24.7959,0.103359,2.06324,17.5589,54.8801,11.8599,0.0,0.0
168,41.75,155.537,211.962,102.745,99.9643,25.3347,0.105589,2.11088,17.4906,54.1795,11.6782,0.0,0.0
176,43.75,159.505,215.746,90.1334,100.004,23.2233,0.10805,2.1313,17.4002,53.5389,12.4219,0.0,0.0
184,45.75,162.668,219.918,96.1503,99.9926,22.388,0.109658,2.12712,17.3415,52.7882,12.7326,0.0,0.0
192,47.75,165.585,223.962,96.3938,99.9938,23.5241,0.110725,2.12557,17.3269,52.0476,12.3116,0.0,0.0
200,49.75,169.359,228.293,86.6193,99.9439,20.2912,0.111905,2.13335,17.3293,51.3269,13.5651,0.0,0.0
208,51.75,173.07,232.724,94.1566,99.9251,20.7005,0.113759,2.1498,17.3214,50.6062,13.3936,0.0,0.0
216,53.75,175.287,234.325,95.8633,99.8509,19.0298,0.116537,2.16932,17.3053,49.9957,14.1032,0.0,0.0
224,55.75,176.489,234.07,108.53,99.7665,21.916,0.119945,2.19905,17.2616,49.4452,12.8946,0.0,0.0
232,57.75,176.307,230.849,114.322,99.6731,28.9185,0.123512,2.24671,17.2149,49.0048,10.5277,0.0,0.0
240,59.75,174.455,224.104,125.981,99.5608,31.4622,0.127127,2.2873,17.1493,48.7646,9.80089,0.0,0.0
248,61.75,171.185,215.156,137.088,99.4678,68.561,0.128722,2.25257,17.0854,48.6845,3.16585,0.0,0.0
256,63.75,166.023,205.405,142.361,99.3088,89.6019,0.125943,2.11753,17.0635,48.6645,0.875092,0.0,0.0
264,65.75,161.45,195.356,148.283,99.1847,95.5059,0.117195,1.85531,17.2123,48.6745,0.321562,0.0,0.0
272,67.75,155.15,184.603,146.443,99.0517,96.1721,0.105073,1.59716,17.3971,48.6444,0.250999,0.0,0.0
280,69.75,150.612,175.984,145.163,98.8966,95.8442,0.089018,1.24814,17.7236,48.6244,0.266725,0.0,0.0
288,71.75,145.677,167.925,146.876,98.7604,96.335,0.0673998,0.887139,18.36,48.6244,0.211545,0.0,0.0
296,73.75,142.244,161.722,145.046,98.6312,96.0677,0.0471873,0.609347,19.0546,48.6044,0.224052,0.0,0.0
304,75.75,137.55,155.653,150.602,98.4887,95.5184,0.0322389,0.408263,19.6676,48.6044,0.260535,0.0,0.0
312,77.75,134.52,150.543,151.975,98.3506,96.0092,0.0235685,0.284678,20.1322,48.5944,0.204987,0.0,0.0
320,79.75,131.602,144.979,150.566,98.2481,95.5936,0.0187647,0.211333,20.4366,48.5944,0.233027,0.0,0.0
328,81.75,128.133,140.421,148.777,98.1433,95.7106,0.0156446,0.166096,20.6023,48.5644,0.213544,0.0,0.0
336,83.75,125.411,136.913,152.978,98.084,95.2511,0.0131931,0.135563,20.7074,48.5544,0.249344,0.0,0.0
344,85.75,122.107,132.284,146.927,98.0243,95.5205,0.0111105,0.114949,20.7784,48.5544,0.220137,0.0,0.0
352,87.75,119.69,128.326,145.142,97.9957,94.9337,0.00947243,0.0993372,20.8195,48.5343,0.27008,0.0,0.0
360,89.75,118.212,125.244,150.784,97.9961,95.0799,0.00786648,0.0871802,20.8475,48.5043,0.257023,0.0,0.0
368,91.75,115.527,122.217,147.797,98.0059,94.6559,0.00654875,0.077454,20.8661,48.5343,0.295895,0.0,0.0
376,93.75,113.212,119.273,149.233,98.031,95.2657,0.00526521,0.069112,20.8799,48.5544,0.243441,0.0,0.0
384,95.75,111.498,116.744,153.118,98.0977,94.775,0.00421399,0.0624098,20.8909,48.5043,0.293173,0.0,0.0
392,97.75,108.893,114.196,149.731,98.1672,95.9675,0.00334748,0.0570327,20.9023,48.5544,0.192817,0.0,0.0
400,99.75,107.552,112.07,151.204,98.2548,96.6754,0.00267878,0.0535309,20.9101,48.5544,0.137865,0.0,0.0
408,101.75,105.89,110.164,151.453,98.3486,95.932,0.00204129,0.0505214,20.917,48.5544,0.211668,0.0,0.0
416,103.75,104.046,108.297,151.127,98.4671,95.4349,0.00161323,0.0482731,20.9213,48.5544,0.266113,0.0,0.0
424,105.75,102.852,105.685,149.169,98.5908,95.8129,0.00141769,0.0466422,20.925,48.5243,0.243158,0.0,0.0
432,107.75,101.961,104.427,154.534,98.6878,95.698,0.00136127,0.0454834,20.928,48.5744,0.261728,0.0,0.0
440,109.75,99.9189,102.765,150.325,98.7902,95.153,0.00120965,0.0447116,20.9293,48.5544,0.319153,0.0,0.0
448,111.75,98.3549,101.584,149.98,98.9209,95.5122,0.000939204,0.0441717,20.9307,48.5243,0.298346,0.0,0.0
456,113.75,97.5347,99.8545,151.405,99.0085,95.7356,0.000781449,0.0438293,20.9319,48.5343,0.285989,0.0,0.0
464,115.75,95.9693,98.7761,148.523,99.0917,96.0364,0.000774986,0.0435054,20.9322,48.5544,0.266455,0.0,0.0
472,117.75,95.1794,97.1944,151.307,99.1733,95.8839,0.000806293,0.0431193,20.9337,48.5343,0.286979,0.0,0.0
480,119.75,94.2012,96.1813,149.343,99.2409,96.1157,0.000815422,0.0427656,20.9343,48.5143,0.272225,0.0,0.0
488,121.75,93.1706,95.0218,149.614,99.286,96.7193,0.000881589,0.0425359,20.9344,48.5243,0.222835,0.0,0.0
496,123.75,91.733,94.1773,147.888,99.2935,96.8885,0.000971913,0.0422652,20.9341,48.5043,0.208608,0.0,0.0
504,125.75,91.5148,93.1201,148.248,99.3025,96.6044,0.00103316,0.0423241,20.934,48.4743,0.234358,0.0,0.0
512,127.75,90.2673,91.8495,147.338,99.2778,96.9741,0.00107284,0.0422594,20.9339,48.5043,0.199747,0.0,0.0
520,129.75,89.7707,91.1726,154.661,99.2322,95.8881,0.00109668,0.0420593,20.9351,48.5343,0.291658,0.0,0.0
528,131.75,89.2473,90.1855,146.872,99.1741,96.3496,0.00100673,0.0418389,20.9359,48.5143,0.245822,0.0,0.0
536,133.75,87.8757,90.0463,150.769,99.1101,95.7691,0.00083739,0.0418273,20.9366,48.5143,0.291753,0.0,0.0
544,135.75,87.8752,89.3938,148.865,99.0638,96.2369,0.000744745,0.0416582,20.9369,48.5243,0.246318,0.0,0.0
552,137.75,86.9825,88.4105,152.292,99.0026,95.6772,0.000737621,0.0416913,20.9369,48.5143,0.290681,0.0,0.0
560,139.75,85.9944,87.677,145.557,98.9508,95.7962,0.000660696,0.0418385,20.9366,48.5443,0.275648,0.0,0.0
568,141.75,85.5539,87.3969,147.6,98.8746,95.6625,0.00055499,0.0419052,20.9365,48.5143,0.280977,0.0,0.0
576,143.75,85.5327,87.1627,150.67,98.8149,96.2786,0.000517067,0.0420097,20.9365,48.4943,0.221225,0.0,0.0
584,145.75,84.8155,85.808,153.89,98.8043,95.2699,0.000589873,0.0418752,20.9364,48.5243,0.309919,0.0,0.0
592,147.75,83.9922,85.7143,148.833,98.7773,95.6103,0.00062607,0.041708,20.9364,48.5243,0.277241,0.0,0.0
600,149.75,83.4622,85.2184,150.93,98.9798,96.2348,0.000573884,0.0416822,20.9364,48.5343,0.239285,0.0,0.0
608,151.75,83.3319,84.5457,151.195,99.1788,96.0426,0.000550112,0.0416274,20.9364,48.5043,0.273378,0.0,0.0
616,153.75,82.1546,83.9516,151.118,99.3394,95.8985,0.00063299,0.0415605,20.9369,48.5043,0.299914,0.0,0.0
624,155.75,82.1672,83.5229,147.033,99.4638,96.7256,0.000692757,0.0413642,20.9383,48.5143,0.237509,0.0,0.0
632,157.75,81.9554,83.3303,150.863,99.5427,96.4812,0.000746484,0.04127,20.9391,48.4843,0.265775,0.0,0.0
640,159.75,81.3979,83.3236,148.583,99.5989,96.335,0.000767446,0.0410859,20.9394,48.4242,0.283473,0.0,0.0
648,161.75,80.6818,82.2843,150.895,99.6432,96.1053,0.0007671,0.0410352,20.9374,48.4643,0.307573,0.0,0.0
656,163.75,80.5553,82.4141,152.51,99.6126,96.7047,0.000804415,0.0409836,20.9355,48.4543,0.252063,0.0,0.0
664,165.75,80.2058,81.8764,153.691,99.5522,95.8589,0.000866667,0.0410681,20.9343,48.4643,0.321638,0.0,0.0
672,167.75,79.5839,81.8412,150.99,99.4878,96.9407,0.000845145,0.0409694,20.9338,48.4643,0.220658,0.0,0.0
680,169.75,79.4741,81.599,154.774,99.3437,97.2435,0.000800861,0.0410139,20.9335,48.5143,0.181794,0.0,0.0
688,171.75,79.3879,81.0754,149.992,99.1871,96.1805,0.000825173,0.0409344,20.9334,48.5143,0.261884,0.0,0.0
696,173.75,79.3861,80.7686,152.651,99.14,95.295,0.00088891,0.0407789,20.9338,48.5443,0.336533,0.0,0.0
704,175.75,78.8719,80.4671,152.732,99.2067,96.4687,0.000913503,0.040797,20.934,48.4943,0.238113,0.0,0.0
712,177.75,78.0567,80.3099,151.844,99.2888,96.0886,0.000881761,0.0408651,20.9348,48.5143,0.278733,0.0,0.0
720,179.75,77.9821,79.895,151.788,99.3826,95.5915,0.00085811,0.0408082,20.9358,48.5243,0.330891,0.0,0.0
728,181.75,78.0163,79.2657,154.35,99.4909,96.3893,0.000855961,0.0407215,20.935,48.4643,0.269451,0.0,0.0
736,183.75,77.8742,79.364,147.617,99.5981,96.312,0.000818009,0.0407558,20.9352,48.4643,0.285435,0.0,0.0
744,185.75,77.0267,79.2916,153.773,99.6923,95.7711,0.000737267,0.0408159,20.9365,48.4643,0.341395,0.0,0.0
746,186.25,77.5341,79.4828,149.225,99.7159,96.0197,0.00071904,0.0408099,20.9366,48.5143,0.321356,0.0,0.0