Folder: fsri_materials_database/01_Data/PET/FTIR/IS (part 2)

File: PET_IS_S_220831_R5.dpt
7497.03,0.50780
7473.89,0.49502
7450.74,0.47084
7427.6,0.43598
7404.45,0.39705
7381.31,0.38367
7358.16,0.35735
7335.02,0.35455
7311.87,0.34725
7288.73,0.35335
7265.58,0.34095
7242.44,0.33951
7219.29,0.33416
7196.15,0.33213
7173,0.31843
7149.86,0.31627
7126.71,0.30165
7103.57,0.29007
7080.42,0.29140
7057.28,0.29102
7034.13,0.29716
7010.99,0.30407
6987.84,0.31515
6964.7,0.32987
6941.55,0.34631
6918.41,0.35635
6895.26,0.36438
6872.12,0.36581
6848.97,0.37338
6825.83,0.38137
6802.68,0.38873
6779.54,0.40265
6756.39,0.41196
6733.25,0.42556
6710.1,0.43257
6686.96,0.43147
6663.82,0.43176
6640.67,0.44156
6617.53,0.44379
6594.38,0.45471
6571.24,0.45703
6548.09,0.45043
6524.95,0.44988
6501.8,0.44431
6478.66,0.44859
6455.51,0.44964
6432.37,0.43614
6409.22,0.43592
6386.08,0.43861
6362.93,0.43460
6339.79,0.42007
6316.64,0.41460
6293.5,0.41207
6270.35,0.38999
6247.21,0.36578
6224.06,0.34312
6200.92,0.27271
6177.77,0.26901
6154.63,0.24386
6131.48,0.22337
6108.34,0.17411
6085.19,0.12406
6062.05,0.10136
6038.9,0.08697
6015.76,0.07939
5992.61,0.09219
5969.47,0.09715
5946.32,0.10574
5923.18,0.11958
5900.03,0.13972
5876.89,0.12432
5853.74,0.11905
5830.6,0.12319
5807.45,0.11953
5784.31,0.12222
5761.16,0.13166
5738.02,0.14504
5714.87,0.15378
5691.73,0.15609
5668.58,0.16485
5645.44,0.16557
5622.29,0.17753
5599.15,0.17819
5576,0.16764
5552.86,0.16536
5529.71,0.16529
5506.57,0.16997
5483.42,0.16429
5460.28,0.16655
5437.13,0.18355
5413.99,0.18708
5390.84,0.18651
5367.7,0.18186
5344.55,0.17661
5321.41,0.17970
5298.26,0.16645
5275.12,0.13578
5251.97,0.11441
5228.83,0.11956
5205.68,0.13667
5182.54,0.14953
5159.39,0.14560
5136.25,0.13274
5113.1,0.12535
5089.96,0.14913
5066.81,0.16542
5043.67,0.17001
5020.52,0.16562
4997.38,0.16932
4974.23,0.17208
4951.09,0.16350
4927.94,0.15660
4904.8,0.15138
4881.65,0.14549
4858.51,0.14121
4835.36,0.12502
4812.22,0.10881
4789.07,0.10337
4765.93,0.11067
4742.78,0.09231
4719.64,0.07831
4696.49,0.07219
4673.35,0.07623
4650.2,0.07863
4627.06,0.07582
4603.92,0.08869
4580.77,0.07744
4557.63,0.09173
4534.48,0.09145
4511.34,0.08342
4488.19,0.07271
4465.05,0.06729
4441.9,0.06632
4418.76,0.06622
4395.61,0.06759
4372.47,0.06826
4349.32,0.06790
4326.18,0.06730
4303.03,0.06584
4279.89,0.06619
4256.74,0.06619
4233.6,0.06659
4210.45,0.06763
4187.31,0.06710
4164.16,0.06720
4141.02,0.06755
4117.87,0.06644
4094.73,0.06459
4071.58,0.06575
4048.44,0.06730
4025.29,0.06806
4002.15,0.06795
3979,0.06821
3955.86,0.06889
3932.71,0.06929
3909.57,0.07058
3886.42,0.07153
3863.28,0.07220
3840.13,0.07244
3816.99,0.07137
3793.84,0.07164
3770.7,0.07067
3747.55,0.07084
3724.41,0.07072
3701.26,0.06814
3678.12,0.06374
3654.97,0.06330
3631.83,0.06328
3608.68,0.06338
3585.54,0.06284
3562.39,0.06199
3539.25,0.06251
3516.1,0.06299
3492.96,0.06333
3469.81,0.06291
3446.67,0.06102
3423.52,0.06247
3400.38,0.06345
3377.23,0.06392
3354.09,0.06355
3330.94,0.06351
3307.8,0.06331
3284.65,0.06365
3261.51,0.06359
3238.36,0.06375
3215.22,0.06265
3192.07,0.06286
3168.93,0.06253
3145.78,0.06253
3122.64,0.06193
3099.49,0.06181
3076.35,0.06101
3053.2,0.06097
3030.06,0.06134
3006.91,0.06069
2983.77,0.05977
2960.62,0.06079
2937.48,0.06300
2914.33,0.06497
2891.19,0.06266
2868.04,0.06289
2844.9,0.06420
2821.75,0.06320
2798.61,0.06269
2775.46,0.06311
2752.32,0.06317
2729.17,0.06299
2706.03,0.06352
2682.88,0.06374
2659.74,0.06392
2636.59,0.06281
2613.45,0.06255
2590.3,0.06179
2567.16,0.06187
2544.02,0.06171
2520.87,0.06161
2497.73,0.06192
2474.58,0.06212
2451.44,0.06163
2428.29,0.06134
2405.15,0.06102
2382,0.06074
2358.86,0.06108
2335.71,0.06111
2312.57,0.06123
2289.42,0.05995
2266.28,0.06001
2243.13,0.06012
2219.99,0.06029
2196.84,0.06032
2173.7,0.05990
2150.55,0.05931
2127.41,0.05864
2104.26,0.05858
2081.12,0.05842
2057.97,0.05857
2034.83,0.05816
2011.68,0.05746
1988.54,0.05716
1965.39,0.05645
1942.25,0.05644
1919.1,0.05583
1895.96,0.05512
1872.81,0.05413
1849.67,0.05310
1826.52,0.05151
1803.38,0.04892
1780.23,0.04507
1757.09,0.03546
1733.94,0.04498
1710.8,0.11721
1687.65,0.07544
1664.51,0.06857
1641.36,0.06431
1618.22,0.06181
1595.07,0.05962
1571.93,0.05932
1548.78,0.05698
1525.64,0.05492
1502.49,0.05551
1479.35,0.05143
1456.2,0.05046
1433.06,0.05014
1409.91,0.04838
1386.77,0.04908
1363.62,0.04663
1340.48,0.04933
1317.33,0.03112
1294.19,0.03178
1271.04,0.10461
1247.9,0.16046
1224.75,0.10845
1201.61,0.08211
1178.46,0.06660
1155.32,0.05383
1132.17,0.06100
1109.03,0.09177
1085.88,0.11656
1062.74,0.09026
1039.59,0.08097
1016.45,0.09857
993.304,0.08232
970.159,0.08064
947.014,0.07678
923.869,0.07265
900.724,0.06822
877.579,0.06681
854.434,0.07174
831.289,0.07243
808.144,0.07074
784.999,0.07007
761.854,0.06362
738.709,0.03626
715.565,0.10150
692.42,0.08285
669.275,0.07767
646.13,0.07415
622.985,0.06962
599.84,0.07102

File: PET_IS_S_220831_R6.dpt
7497.03,0.51682
7473.89,0.50702
7450.74,0.47551
7427.6,0.43342
7404.45,0.40537
7381.31,0.38191
7358.16,0.35891
7335.02,0.35493
7311.87,0.35446
7288.73,0.34711
7265.58,0.34572
7242.44,0.33884
7219.29,0.33841
7196.15,0.33265
7173,0.32652
7149.86,0.31173
7126.71,0.29347
7103.57,0.28922
7080.42,0.28963
7057.28,0.29146
7034.13,0.28916
7010.99,0.30794
6987.84,0.32047
6964.7,0.32882
6941.55,0.34324
6918.41,0.35410
6895.26,0.36165
6872.12,0.37060
6848.97,0.36840
6825.83,0.38011
6802.68,0.39152
6779.54,0.39738
6756.39,0.41138
6733.25,0.42846
6710.1,0.42776
6686.96,0.43123
6663.82,0.43584
6640.67,0.43397
6617.53,0.44475
6594.38,0.45147
6571.24,0.45304
6548.09,0.45299
6524.95,0.44703
6501.8,0.44587
6478.66,0.45138
6455.51,0.44306
6432.37,0.43699
6409.22,0.43607
6386.08,0.43595
6362.93,0.43358
6339.79,0.41688
6316.64,0.41248
6293.5,0.40607
6270.35,0.38949
6247.21,0.36613
6224.06,0.34562
6200.92,0.27291
6177.77,0.26994
6154.63,0.24337
6131.48,0.21816
6108.34,0.17558
6085.19,0.12524
6062.05,0.10043
6038.9,0.08609
6015.76,0.07885
5992.61,0.09170
5969.47,0.09894
5946.32,0.10585
5923.18,0.12371
5900.03,0.13709
5876.89,0.12237
5853.74,0.11839
5830.6,0.12624
5807.45,0.12079
5784.31,0.12375
5761.16,0.13117
5738.02,0.14410
5714.87,0.15364
5691.73,0.15675
5668.58,0.16218
5645.44,0.16407
5622.29,0.17849
5599.15,0.17897
5576,0.16881
5552.86,0.16509
5529.71,0.16408
5506.57,0.17000
5483.42,0.16404
5460.28,0.16673
5437.13,0.18093
5413.99,0.18883
5390.84,0.18364
5367.7,0.18167
5344.55,0.17798
5321.41,0.18004
5298.26,0.16386
5275.12,0.13446
5251.97,0.11606
5228.83,0.11847
5205.68,0.13689
5182.54,0.14843
5159.39,0.14810
5136.25,0.13400
5113.1,0.12493
5089.96,0.14900
5066.81,0.16413
5043.67,0.16922
5020.52,0.16573
4997.38,0.16741
4974.23,0.17173
4951.09,0.16377
4927.94,0.15761
4904.8,0.15175
4881.65,0.14557
4858.51,0.14012
4835.36,0.12427
4812.22,0.10744
4789.07,0.10453
4765.93,0.10908
4742.78,0.09308
4719.64,0.07694
4696.49,0.07154
4673.35,0.07572
4650.2,0.07947
4627.06,0.07513
4603.92,0.08706
4580.77,0.07745
4557.63,0.09166
4534.48,0.09014
4511.34,0.08359
4488.19,0.07180
4465.05,0.06675
4441.9,0.06529
4418.76,0.06558
4395.61,0.06743
4372.47,0.06817
4349.32,0.06766
4326.18,0.06733
4303.03,0.06649
4279.89,0.06601
4256.74,0.06739
4233.6,0.06669
4210.45,0.06761
4187.31,0.06678
4164.16,0.06729
4141.02,0.06752
4117.87,0.06633
4094.73,0.06416
4071.58,0.06500
4048.44,0.06682
4025.29,0.06791
4002.15,0.06807
3979,0.06882
3955.86,0.06936
3932.71,0.06957
3909.57,0.07004
3886.42,0.07117
3863.28,0.07185
3840.13,0.07263
3816.99,0.07159
3793.84,0.07156
3770.7,0.07018
3747.55,0.07091
3724.41,0.07055
3701.26,0.06863
3678.12,0.06509
3654.97,0.06349
3631.83,0.06347
3608.68,0.06374
3585.54,0.06366
3562.39,0.06328
3539.25,0.06283
3516.1,0.06341
3492.96,0.06317
3469.81,0.06297
3446.67,0.06172
3423.52,0.06191
3400.38,0.06401
3377.23,0.06431
3354.09,0.06274
3330.94,0.06273
3307.8,0.06314
3284.65,0.06354
3261.51,0.06369
3238.36,0.06294
3215.22,0.06364
3192.07,0.06228
3168.93,0.06288
3145.78,0.06175
3122.64,0.06180
3099.49,0.06078
3076.35,0.06112
3053.2,0.06116
3030.06,0.06074
3006.91,0.06003
2983.77,0.06040
2960.62,0.06160
2937.48,0.06280
2914.33,0.06518
2891.19,0.06291
2868.04,0.06257
2844.9,0.06437
2821.75,0.06325
2798.61,0.06312
2775.46,0.06318
2752.32,0.06281
2729.17,0.06290
2706.03,0.06354
2682.88,0.06386
2659.74,0.06376
2636.59,0.06282
2613.45,0.06264
2590.3,0.06192
2567.16,0.06150
2544.02,0.06139
2520.87,0.06169
2497.73,0.06182
2474.58,0.06219
2451.44,0.06187
2428.29,0.06127
2405.15,0.06072
2382,0.06093
2358.86,0.06069
2335.71,0.06106
2312.57,0.06076
2289.42,0.06015
2266.28,0.05991
2243.13,0.05985
2219.99,0.05971
2196.84,0.06018
2173.7,0.05978
2150.55,0.05933
2127.41,0.05844
2104.26,0.05866
2081.12,0.05836
2057.97,0.05827
2034.83,0.05862
2011.68,0.05730
1988.54,0.05671
1965.39,0.05644
1942.25,0.05608
1919.1,0.05591
1895.96,0.05516
1872.81,0.05415
1849.67,0.05272
1826.52,0.05069
1803.38,0.04897
1780.23,0.04458
1757.09,0.03523
1733.94,0.04465
1710.8,0.11729
1687.65,0.07493
1664.51,0.06882
1641.36,0.06456
1618.22,0.06153
1595.07,0.05964
1571.93,0.05925
1548.78,0.05672
1525.64,0.05501
1502.49,0.05566
1479.35,0.05126
1456.2,0.05072
1433.06,0.05009
1409.91,0.04814
1386.77,0.04871
1363.62,0.04652
1340.48,0.04944
1317.33,0.03132
1294.19,0.03185
1271.04,0.10409
1247.9,0.16043
1224.75,0.10827
1201.61,0.08191
1178.46,0.06699
1155.32,0.05431
1132.17,0.05989
1109.03,0.09173
1085.88,0.11660
1062.74,0.08988
1039.59,0.08075
1016.45,0.09833
993.304,0.08211
970.159,0.08008
947.014,0.07693
923.869,0.07214
900.724,0.06860
877.579,0.06654
854.434,0.07229
831.289,0.07195
808.144,0.07011
784.999,0.06997
761.854,0.06351
738.709,0.03574
715.565,0.10002
692.42,0.08213
669.275,0.07746
646.13,0.07328
622.985,0.07202
599.84,0.06954

File: PET_IS_S_220831_R7.dpt
7497.03,0.51313
7473.89,0.49913
7450.74,0.46807
7427.6,0.42948
7404.45,0.40042
7381.31,0.38257
7358.16,0.35668
7335.02,0.35476
7311.87,0.35300
7288.73,0.34333
7265.58,0.35009
7242.44,0.33174
7219.29,0.33907
7196.15,0.32803
7173,0.32396
7149.86,0.31689
7126.71,0.30482
7103.57,0.29308
7080.42,0.29490
7057.28,0.29705
7034.13,0.29056
7010.99,0.31116
6987.84,0.31316
6964.7,0.32465
6941.55,0.34411
6918.41,0.35225
6895.26,0.36288
6872.12,0.36433
6848.97,0.36926
6825.83,0.37684
6802.68,0.39172
6779.54,0.39938
6756.39,0.41038
6733.25,0.42526
6710.1,0.42782
6686.96,0.42981
6663.82,0.43693
6640.67,0.44204
6617.53,0.44133
6594.38,0.45051
6571.24,0.45668
6548.09,0.45561
6524.95,0.45003
6501.8,0.44478
6478.66,0.45262
6455.51,0.44568
6432.37,0.43269
6409.22,0.44014
6386.08,0.43822
6362.93,0.43191
6339.79,0.41708
6316.64,0.41326
6293.5,0.40238
6270.35,0.38780
6247.21,0.36709
6224.06,0.34136
6200.92,0.27497
6177.77,0.27004
6154.63,0.24217
6131.48,0.21760
6108.34,0.17629
6085.19,0.12670
6062.05,0.09768
6038.9,0.08426
6015.76,0.08343
5992.61,0.09277
5969.47,0.09747
5946.32,0.10390
5923.18,0.12089
5900.03,0.13826
5876.89,0.12309
5853.74,0.11879
5830.6,0.12319
5807.45,0.12136
5784.31,0.12350
5761.16,0.13170
5738.02,0.14499
5714.87,0.15349
5691.73,0.15629
5668.58,0.16336
5645.44,0.16532
5622.29,0.17781
5599.15,0.17726
5576,0.17150
5552.86,0.16666
5529.71,0.16490
5506.57,0.16980
5483.42,0.16340
5460.28,0.16806
5437.13,0.18234
5413.99,0.18912
5390.84,0.18467
5367.7,0.18217
5344.55,0.17668
5321.41,0.17830
5298.26,0.16820
5275.12,0.13608
5251.97,0.11454
5228.83,0.11969
5205.68,0.13694
5182.54,0.15011
5159.39,0.14652
5136.25,0.13455
5113.1,0.12463
5089.96,0.14888
5066.81,0.16496
5043.67,0.16923
5020.52,0.16688
4997.38,0.16856
4974.23,0.17089
4951.09,0.16404
4927.94,0.15752
4904.8,0.15147
4881.65,0.14467
4858.51,0.14059
4835.36,0.12439
4812.22,0.10865
4789.07,0.10435
4765.93,0.10910
4742.78,0.09275
4719.64,0.07685
4696.49,0.07129
4673.35,0.07612
4650.2,0.07850
4627.06,0.07497
4603.92,0.08701
4580.77,0.07743
4557.63,0.09199
4534.48,0.09023
4511.34,0.08387
4488.19,0.07182
4465.05,0.06714
4441.9,0.06604
4418.76,0.06622
4395.61,0.06740
4372.47,0.06782
4349.32,0.06771
4326.18,0.06721
4303.03,0.06660
4279.89,0.06478
4256.74,0.06641
4233.6,0.06593
4210.45,0.06773
4187.31,0.06740
4164.16,0.06749
4141.02,0.06691
4117.87,0.06650
4094.73,0.06439
4071.58,0.06553
4048.44,0.06710
4025.29,0.06773
4002.15,0.06761
3979,0.06843
3955.86,0.06999
3932.71,0.07007
3909.57,0.06972
3886.42,0.07206
3863.28,0.07226
3840.13,0.07243
3816.99,0.07195
3793.84,0.07151
3770.7,0.06995
3747.55,0.07062
3724.41,0.07143
3701.26,0.06826
3678.12,0.06482
3654.97,0.06366
3631.83,0.06376
3608.68,0.06371
3585.54,0.06341
3562.39,0.06290
3539.25,0.06262
3516.1,0.06283
3492.96,0.06289
3469.81,0.06295
3446.67,0.06203
3423.52,0.06207
3400.38,0.06322
3377.23,0.06429
3354.09,0.06381
3330.94,0.06362
3307.8,0.06352
3284.65,0.06447
3261.51,0.06314
3238.36,0.06249
3215.22,0.06332
3192.07,0.06264
3168.93,0.06272
3145.78,0.06274
3122.64,0.06176
3099.49,0.06190
3076.35,0.06139
3053.2,0.06116
3030.06,0.06152
3006.91,0.06038
2983.77,0.05998
2960.62,0.06139
2937.48,0.06310
2914.33,0.06492
2891.19,0.06330
2868.04,0.06310
2844.9,0.06464
2821.75,0.06303
2798.61,0.06264
2775.46,0.06315
2752.32,0.06302
2729.17,0.06307
2706.03,0.06356
2682.88,0.06335
2659.74,0.06342
2636.59,0.06240
2613.45,0.06255
2590.3,0.06234
2567.16,0.06183
2544.02,0.06140
2520.87,0.06150
2497.73,0.06200
2474.58,0.06160
2451.44,0.06202
2428.29,0.06132
2405.15,0.06059
2382,0.06046
2358.86,0.06096
2335.71,0.06097
2312.57,0.06069
2289.42,0.05987
2266.28,0.06024
2243.13,0.06030
2219.99,0.05996
2196.84,0.06027
2173.7,0.05990
2150.55,0.05904
2127.41,0.05874
2104.26,0.05853
2081.12,0.05898
2057.97,0.05866
2034.83,0.05796
2011.68,0.05733
1988.54,0.05677
1965.39,0.05610
1942.25,0.05619
1919.1,0.05555
1895.96,0.05508
1872.81,0.05423
1849.67,0.05291
1826.52,0.05081
1803.38,0.04882
1780.23,0.04489
1757.09,0.03504
1733.94,0.04525
1710.8,0.11740
1687.65,0.07526
1664.51,0.06860
1641.36,0.06413
1618.22,0.06178
1595.07,0.06020
1571.93,0.05908
1548.78,0.05714
1525.64,0.05471
1502.49,0.05534
1479.35,0.05130
1456.2,0.05060
1433.06,0.04994
1409.91,0.04861
1386.77,0.04868
1363.62,0.04721
1340.48,0.04900
1317.33,0.03149
1294.19,0.03188
1271.04,0.10458
1247.9,0.16068
1224.75,0.10830
1201.61,0.08220
1178.46,0.06717
1155.32,0.05408
1132.17,0.06067
1109.03,0.09266
1085.88,0.11597
1062.74,0.09005
1039.59,0.08094
1016.45,0.09832
993.304,0.08286
970.159,0.08056
947.014,0.07643
923.869,0.07293
900.724,0.06860
877.579,0.06697
854.434,0.07247
831.289,0.07232
808.144,0.06979
784.999,0.06995
761.854,0.06259
738.709,0.03644
715.565,0.10031
692.42,0.08262
669.275,0.07748
646.13,0.07442
622.985,0.07139
599.84,0.07057

File: PET_IS_S_220831_R8.dpt
7497.03,0.51492
7473.89,0.49827
7450.74,0.47384
7427.6,0.43493
7404.45,0.39940
7381.31,0.38034
7358.16,0.36149
7335.02,0.35130
7311.87,0.35418
7288.73,0.34576
7265.58,0.34346
7242.44,0.33656
7219.29,0.33439
7196.15,0.32573
7173,0.31933
7149.86,0.31275
7126.71,0.29299
7103.57,0.29567
7080.42,0.28800
7057.28,0.29030
7034.13,0.29560
7010.99,0.30445
6987.84,0.32290
6964.7,0.33118
6941.55,0.34190
6918.41,0.34594
6895.26,0.36536
6872.12,0.36924
6848.97,0.36626
6825.83,0.37679
6802.68,0.39000
6779.54,0.39196
6756.39,0.40776
6733.25,0.42275
6710.1,0.42594
6686.96,0.42845
6663.82,0.43068
6640.67,0.43654
6617.53,0.44694
6594.38,0.45200
6571.24,0.45393
6548.09,0.45346
6524.95,0.44388
6501.8,0.44549
6478.66,0.44514
6455.51,0.43933
6432.37,0.43631
6409.22,0.43432
6386.08,0.43951
6362.93,0.43154
6339.79,0.41315
6316.64,0.40701
6293.5,0.40296
6270.35,0.38727
6247.21,0.36614
6224.06,0.34295
6200.92,0.27302
6177.77,0.26679
6154.63,0.24158
6131.48,0.21567
6108.34,0.17673
6085.19,0.12578
6062.05,0.09564
6038.9,0.08452
6015.76,0.07943
5992.61,0.09281
5969.47,0.09753
5946.32,0.10441
5923.18,0.12089
5900.03,0.13911
5876.89,0.12351
5853.74,0.11803
5830.6,0.12454
5807.45,0.11985
5784.31,0.12302
5761.16,0.13108
5738.02,0.14339
5714.87,0.15506
5691.73,0.15692
5668.58,0.16184
5645.44,0.16392
5622.29,0.17619
5599.15,0.17821
5576,0.16654
5552.86,0.16513
5529.71,0.16547
5506.57,0.16869
5483.42,0.16304
5460.28,0.16712
5437.13,0.18187
5413.99,0.18750
5390.84,0.18507
5367.7,0.18086
5344.55,0.17593
5321.41,0.17707
5298.26,0.16593
5275.12,0.13477
5251.97,0.11448
5228.83,0.11982
5205.68,0.13620
5182.54,0.14933
5159.39,0.14775
5136.25,0.13245
5113.1,0.12342
5089.96,0.14950
5066.81,0.16418
5043.67,0.16779
5020.52,0.16617
4997.38,0.16621
4974.23,0.17117
4951.09,0.16124
4927.94,0.15728
4904.8,0.15011
4881.65,0.14457
4858.51,0.13991
4835.36,0.12430
4812.22,0.10807
4789.07,0.10349
4765.93,0.10913
4742.78,0.09236
4719.64,0.07807
4696.49,0.07050
4673.35,0.07612
4650.2,0.07828
4627.06,0.07499
4603.92,0.08694
4580.77,0.07793
4557.63,0.09171
4534.48,0.09115
4511.34,0.08361
4488.19,0.07121
4465.05,0.06682
4441.9,0.06547
4418.76,0.06535
4395.61,0.06673
4372.47,0.06712
4349.32,0.06727
4326.18,0.06756
4303.03,0.06586
4279.89,0.06533
4256.74,0.06558
4233.6,0.06666
4210.45,0.06697
4187.31,0.06664
4164.16,0.06727
4141.02,0.06714
4117.87,0.06598
4094.73,0.06441
4071.58,0.06569
4048.44,0.06646
4025.29,0.06788
4002.15,0.06828
3979,0.06781
3955.86,0.06890
3932.71,0.06929
3909.57,0.06986
3886.42,0.07185
3863.28,0.07183
3840.13,0.07205
3816.99,0.07144
3793.84,0.07096
3770.7,0.07065
3747.55,0.07040
3724.41,0.07041
3701.26,0.06796
3678.12,0.06442
3654.97,0.06262
3631.83,0.06298
3608.68,0.06340
3585.54,0.06281
3562.39,0.06254
3539.25,0.06252
3516.1,0.06323
3492.96,0.06329
3469.81,0.06235
3446.67,0.06209
3423.52,0.06125
3400.38,0.06333
3377.23,0.06355
3354.09,0.06371
3330.94,0.06250
3307.8,0.06283
3284.65,0.06331
3261.51,0.06326
3238.36,0.06314
3215.22,0.06306
3192.07,0.06255
3168.93,0.06222
3145.78,0.06169
3122.64,0.06150
3099.49,0.06111
3076.35,0.06081
3053.2,0.06079
3030.06,0.06103
3006.91,0.06050
2983.77,0.06020
2960.62,0.06086
2937.48,0.06285
2914.33,0.06485
2891.19,0.06299
2868.04,0.06246
2844.9,0.06423
2821.75,0.06340
2798.61,0.06256
2775.46,0.06272
2752.32,0.06282
2729.17,0.06281
2706.03,0.06334
2682.88,0.06366
2659.74,0.06322
2636.59,0.06250
2613.45,0.06229
2590.3,0.06166
2567.16,0.06206
2544.02,0.06120
2520.87,0.06143
2497.73,0.06132
2474.58,0.06202
2451.44,0.06203
2428.29,0.06107
2405.15,0.06053
2382,0.06030
2358.86,0.06035
2335.71,0.06071
2312.57,0.06049
2289.42,0.05969
2266.28,0.05966
2243.13,0.05994
2219.99,0.05961
2196.84,0.05997
2173.7,0.05922
2150.55,0.05871
2127.41,0.05850
2104.26,0.05801
2081.12,0.05809
2057.97,0.05845
2034.83,0.05791
2011.68,0.05692
1988.54,0.05666
1965.39,0.05639
1942.25,0.05597
1919.1,0.05585
1895.96,0.05484
1872.81,0.05381
1849.67,0.05194
1826.52,0.05090
1803.38,0.04868
1780.23,0.04446
1757.09,0.03545
1733.94,0.04454
1710.8,0.11642
1687.65,0.07498
1664.51,0.06831
1641.36,0.06458
1618.22,0.06111
1595.07,0.05964
1571.93,0.05890
1548.78,0.05644
1525.64,0.05478
1502.49,0.05510
1479.35,0.05142
1456.2,0.05046
1433.06,0.04982
1409.91,0.04838
1386.77,0.04843
1363.62,0.04589
1340.48,0.04926
1317.33,0.03141
1294.19,0.03141
1271.04,0.10384
1247.9,0.15988
1224.75,0.10772
1201.61,0.08150
1178.46,0.06704
1155.32,0.05385
1132.17,0.06021
1109.03,0.09120
1085.88,0.11582
1062.74,0.09022
1039.59,0.08033
1016.45,0.09827
993.304,0.08244
970.159,0.07992
947.014,0.07637
923.869,0.07230
900.724,0.06914
877.579,0.06616
854.434,0.07220
831.289,0.07301
808.144,0.07012
784.999,0.06927
761.854,0.06280
738.709,0.03695
715.565,0.10062
692.42,0.08220
669.275,0.07761
646.13,0.07363
622.985,0.07093
599.84,0.06936

File: PET_IS_T_220831_R3.dpt
7497.03,0.02360
7473.89,0.02449
7450.74,0.01991
7427.6,0.02986
7404.45,0.02618
7381.31,0.02100
7358.16,0.02052
7335.02,0.02399
7311.87,0.02284
7288.73,0.02339
7265.58,0.02683
7242.44,0.02172
7219.29,0.03040
7196.15,0.02603
7173,0.03038
7149.86,0.02471
7126.71,0.02628
7103.57,0.02212
7080.42,0.02405
7057.28,0.01773
7034.13,0.02495
7010.99,0.01918
6987.84,0.02270
6964.7,0.02612
6941.55,0.02295
6918.41,0.02938
6895.26,0.02156
6872.12,0.02783
6848.97,0.02374
6825.83,0.02057
6802.68,0.02497
6779.54,0.02077
6756.39,0.02169
6733.25,0.02261
6710.1,0.01885
6686.96,0.02339
6663.82,0.01990
6640.67,0.02137
6617.53,0.02238
6594.38,0.02269
6571.24,0.02038
6548.09,0.02545
6524.95,0.02356
6501.8,0.02061
6478.66,0.02607
6455.51,0.01973
6432.37,0.02269
6409.22,0.02296
6386.08,0.02566
6362.93,0.02067
6339.79,0.02282
6316.64,0.02158
6293.5,0.01799
6270.35,0.02164
6247.21,0.02151
6224.06,0.01969
6200.92,0.02270
6177.77,0.02290
6154.63,0.02026
6131.48,0.01858
6108.34,0.02080
6085.19,0.02223
6062.05,0.02263
6038.9,0.02360
6015.76,0.02069
5992.61,0.02183
5969.47,0.02015
5946.32,0.02113
5923.18,0.02133
5900.03,0.02012
5876.89,0.02213
5853.74,0.01670
5830.6,0.02206
5807.45,0.02234
5784.31,0.01963
5761.16,0.02228
5738.02,0.02085
5714.87,0.02118
5691.73,0.02104
5668.58,0.02172
5645.44,0.02160
5622.29,0.02168
5599.15,0.02242
5576,0.02398
5552.86,0.02114
5529.71,0.02152
5506.57,0.02328
5483.42,0.02095
5460.28,0.02219
5437.13,0.02215
5413.99,0.02181
5390.84,0.02194
5367.7,0.02170
5344.55,0.02181
5321.41,0.02274
5298.26,0.02276
5275.12,0.02090
5251.97,0.02255
5228.83,0.02232
5205.68,0.02041
5182.54,0.02190
5159.39,0.02354
5136.25,0.02218
5113.1,0.02102
5089.96,0.02255
5066.81,0.02123
5043.67,0.02201
5020.52,0.02227
4997.38,0.02195
4974.23,0.02029
4951.09,0.02242
4927.94,0.02154
4904.8,0.02080
4881.65,0.02275
4858.51,0.02158
4835.36,0.02128
4812.22,0.02196
4789.07,0.02151
4765.93,0.02202
4742.78,0.02305
4719.64,0.02187
4696.49,0.02200
4673.35,0.02158
4650.2,0.02350
4627.06,0.02326
4603.92,0.02257
4580.77,0.02255
4557.63,0.02275
4534.48,0.02270
4511.34,0.02196
4488.19,0.02167
4465.05,0.02231
4441.9,0.02222
4418.76,0.02240
4395.61,0.02176
4372.47,0.02262
4349.32,0.02224
4326.18,0.02336
4303.03,0.02249
4279.89,0.02275
4256.74,0.02182
4233.6,0.02203
4210.45,0.02285
4187.31,0.02216
4164.16,0.02218
4141.02,0.02255
4117.87,0.02266
4094.73,0.02256
4071.58,0.02255
4048.44,0.02222
4025.29,0.02233
4002.15,0.02278
3979,0.02315
3955.86,0.02233
3932.71,0.02190
3909.57,0.02226
3886.42,0.02332
3863.28,0.02203
3840.13,0.02221
3816.99,0.02287
3793.84,0.02254
3770.7,0.02277
3747.55,0.02255
3724.41,0.02248
3701.26,0.02270
3678.12,0.02249
3654.97,0.02158
3631.83,0.02227
3608.68,0.02208
3585.54,0.02171
3562.39,0.02113
3539.25,0.02105
3516.1,0.02086
3492.96,0.02095
3469.81,0.02091
3446.67,0.02071
3423.52,0.02033
3400.38,0.02023
3377.23,0.02007
3354.09,0.02028
3330.94,0.02018
3307.8,0.02001
3284.65,0.02106
3261.51,0.02085
3238.36,0.01996
3215.22,0.02103
3192.07,0.02098
3168.93,0.02089
3145.78,0.02125
3122.64,0.02069
3099.49,0.02069
3076.35,0.02063
3053.2,0.02070
3030.06,0.02093
3006.91,0.02043
2983.77,0.01993
2960.62,0.02029
2937.48,0.01972
2914.33,0.02014
2891.19,0.02058
2868.04,0.01989
2844.9,0.02068
2821.75,0.02097
2798.61,0.02093
2775.46,0.02099
2752.32,0.02126
2729.17,0.02087
2706.03,0.02127
2682.88,0.02107
2659.74,0.02119
2636.59,0.02129
2613.45,0.02124
2590.3,0.02124
2567.16,0.02103
2544.02,0.02109
2520.87,0.02078
2497.73,0.02160
2474.58,0.02079
2451.44,0.02154
2428.29,0.02097
2405.15,0.02093
2382,0.02132
2358.86,0.02117
2335.71,0.02095
2312.57,0.02120
2289.42,0.02104
2266.28,0.02074
2243.13,0.02118
2219.99,0.02076
2196.84,0.02162
2173.7,0.02071
2150.55,0.02080
2127.41,0.02070
2104.26,0.02103
2081.12,0.02090
2057.97,0.02074
2034.83,0.02100
2011.68,0.02083
1988.54,0.02096
1965.39,0.02077
1942.25,0.02087
1919.1,0.02078
1895.96,0.02059
1872.81,0.02055
1849.67,0.02018
1826.52,0.02005
1803.38,0.01983
1780.23,0.01933
1757.09,0.01745
1733.94,0.01939
1710.8,0.02053
1687.65,0.01920
1664.51,0.01877
1641.36,0.01863
1618.22,0.01905
1595.07,0.01932
1571.93,0.01832
1548.78,0.01836
1525.64,0.01855
1502.49,0.01837
1479.35,0.01824
1456.2,0.01897
1433.06,0.01893
1409.91,0.01835
1386.77,0.01794
1363.62,0.01821
1340.48,0.01806
1317.33,0.01704
1294.19,0.01749
1271.04,0.01923
1247.9,0.01993
1224.75,0.01945
1201.61,0.01859
1178.46,0.01865
1155.32,0.01776
1132.17,0.01838
1109.03,0.01867
1085.88,0.01805
1062.74,0.02066
1039.59,0.01965
1016.45,0.01951
993.304,0.02121
970.159,0.02044
947.014,0.01946
923.869,0.01989
900.724,0.01936
877.579,0.01958
854.434,0.01930
831.289,0.01872
808.144,0.01817
784.999,0.01896
761.854,0.01841
738.709,0.01905
715.565,0.01814
692.42,0.01944
669.275,0.01727
646.13,0.01716
622.985,0.01549
599.84,0.01837