Folder: fsri_materials_database/01_Data/PET/FTIR/IS

Note: README.md
# Materials and Products Database
### Repository of materials and products properties and fire test data to improve fire modeling and fire investigation.

This project was supported in part by Award No. 2019-DU-BX-0018, awarded by the National Institute of Justice, Office of Justice Programs, U.S. Department of Justice. The opinions, findings, and conclusions or recommendations expressed in this publication / program / exhibition are those of the author(s) and do not necessarily reflect those of the Department of Justice.

***
***

__Cite this database:__ "McKinnon, M., Weinschenk, C., Dow, N., DiDomizio, M., and Madrzykowski, D. Materials and Products Database (Version 1.0.0), Fire Safety Research Institute, UL Research Institutes. Columbia, MD 21045, 2023."

__Cite the Technical Reference Guide:__ "McKinnon, M., Weinschenk, C., and Madrzykowski, D. Materials and Products Database - Technical Reference Guide, Fire Safety Research Institute, UL Research Institutes. Columbia, MD 21045, 2023."

__Cite the User Guide:__ "McKinnon, M., and Weinschenk, C. Materials and Products Database - User Guide, Fire Safety Research Institute, UL Research Institutes. Columbia, MD 21045, 2023."

***
***

## Database Structure

## 01_Data/
Raw data generated from each apparatus are included here in plain-text format. The data is organized first by material, next by the short name of test apparatus used, and where applicable additional filtering by test settings.

### Test Apparatus and Data File Structure
- __Cone Calorimeter__ (Cone)
    + Data file structure includes the material, the short name for the apparatus, heat flux setting and scan/scalar, date of test, and replicate number. Scan is for the raw output data and scalar is for the initial conditions and high-level test parameters. 
        * Example: __MDF_Cone_HF25scalar_210323_R1__ stands for the first replicate of scalar data generated from a medium density fiber board test in cone calorimeter exposed to 25 kW/m<sup>2</sup> on March 23, 2021.
    + A _Cone_Notes.csv_ is generated for each material from the __plot_Cone_data.py__ script. For materials whose experiments deviated from typical behavior relevant pictures are included in the respective material directory.
- __Fourier Transform Infrared Spectrometer__ (FTIR)
    + The FTIR directory contains subdirectories for the Attenuated Total Reflectance method (ATR) and the Integrating Sphere (IS)
    + Data file structure for the ATR experiment files includes the material, the abbreviated name for the apparatus, date of test, and replicate number. 
        * Example: __MDF_ATR_210323_R5__ stands for the fifth replicate of data collected with the ATR accessory conducted on June 8, 2021.
    + Data file structure for the IS experiment files includes the material, the abbreviated name for the apparatus, the measurand, whether the test is a sample measurement or standard reference, date of test, and replicate number.
        * Example: __OSB_IS_REFLECT_MEAS_2

File: PET_IS_S_220831_R1.dpt
7497.03,0.51109
7473.89,0.49650
7450.74,0.46719
7427.6,0.43838
7404.45,0.40784
7381.31,0.38271
7358.16,0.36370
7335.02,0.35244
7311.87,0.35643
7288.73,0.34797
7265.58,0.34390
7242.44,0.34057
7219.29,0.32428
7196.15,0.33219
7173,0.32573
7149.86,0.31086
7126.71,0.29390
7103.57,0.29258
7080.42,0.29313
7057.28,0.29150
7034.13,0.29654
7010.99,0.30471
6987.84,0.32230
6964.7,0.32458
6941.55,0.34026
6918.41,0.35304
6895.26,0.35636
6872.12,0.36459
6848.97,0.36880
6825.83,0.37617
6802.68,0.38635
6779.54,0.39722
6756.39,0.40804
6733.25,0.42325
6710.1,0.42751
6686.96,0.42954
6663.82,0.43659
6640.67,0.43844
6617.53,0.44479
6594.38,0.44988
6571.24,0.45490
6548.09,0.45188
6524.95,0.44378
6501.8,0.44412
6478.66,0.44834
6455.51,0.44265
6432.37,0.43790
6409.22,0.43882
6386.08,0.43599
6362.93,0.43314
6339.79,0.42195
6316.64,0.41317
6293.5,0.40584
6270.35,0.38566
6247.21,0.36528
6224.06,0.34361
6200.92,0.27269
6177.77,0.27026
6154.63,0.24237
6131.48,0.21609
6108.34,0.17965
6085.19,0.12371
6062.05,0.09894
6038.9,0.08728
6015.76,0.07923
5992.61,0.09046
5969.47,0.09591
5946.32,0.10546
5923.18,0.12019
5900.03,0.13802
5876.89,0.12155
5853.74,0.12088
5830.6,0.12327
5807.45,0.11960
5784.31,0.12345
5761.16,0.12936
5738.02,0.14559
5714.87,0.15404
5691.73,0.15881
5668.58,0.16127
5645.44,0.16424
5622.29,0.17596
5599.15,0.17749
5576,0.16846
5552.86,0.16614
5529.71,0.16482
5506.57,0.16999
5483.42,0.16237
5460.28,0.16761
5437.13,0.18451
5413.99,0.18658
5390.84,0.18565
5367.7,0.18189
5344.55,0.17564
5321.41,0.17955
5298.26,0.16562
5275.12,0.13525
5251.97,0.11306
5228.83,0.11779
5205.68,0.13680
5182.54,0.14787
5159.39,0.14664
5136.25,0.13385
5113.1,0.12575
5089.96,0.14939
5066.81,0.16564
5043.67,0.16729
5020.52,0.16579
4997.38,0.16745
4974.23,0.17042
4951.09,0.16371
4927.94,0.15722
4904.8,0.15007
4881.65,0.14448
4858.51,0.14074
4835.36,0.12444
4812.22,0.10834
4789.07,0.10466
4765.93,0.11019
4742.78,0.09254
4719.64,0.07656
4696.49,0.07100
4673.35,0.07653
4650.2,0.07871
4627.06,0.07485
4603.92,0.08711
4580.77,0.07680
4557.63,0.09150
4534.48,0.09044
4511.34,0.08308
4488.19,0.07148
4465.05,0.06651
4441.9,0.06580
4418.76,0.06544
4395.61,0.06678
4372.47,0.06786
4349.32,0.06829
4326.18,0.06741
4303.03,0.06604
4279.89,0.06580
4256.74,0.06653
4233.6,0.06675
4210.45,0.06743
4187.31,0.06752
4164.16,0.06766
4141.02,0.06739
4117.87,0.06670
4094.73,0.06379
4071.58,0.06604
4048.44,0.06704
4025.29,0.06812
4002.15,0.06828
3979,0.06849
3955.86,0.06945
3932.71,0.06915
3909.57,0.07005
3886.42,0.07182
3863.28,0.07236
3840.13,0.07288
3816.99,0.07173
3793.84,0.07157
3770.7,0.07049
3747.55,0.07104
3724.41,0.07072
3701.26,0.06819
3678.12,0.06361
3654.97,0.06348
3631.83,0.06364
3608.68,0.06247
3585.54,0.06349
3562.39,0.06255
3539.25,0.06246
3516.1,0.06302
3492.96,0.06301
3469.81,0.06223
3446.67,0.06202
3423.52,0.06168
3400.38,0.06296
3377.23,0.06390
3354.09,0.06364
3330.94,0.06279
3307.8,0.06319
3284.65,0.06285
3261.51,0.06332
3238.36,0.06313
3215.22,0.06349
3192.07,0.06266
3168.93,0.06279
3145.78,0.06182
3122.64,0.06159
3099.49,0.06140
3076.35,0.06137
3053.2,0.06098
3030.06,0.06087
3006.91,0.06048
2983.77,0.06058
2960.62,0.06127
2937.48,0.06341
2914.33,0.06516
2891.19,0.06300
2868.04,0.06262
2844.9,0.06468
2821.75,0.06270
2798.61,0.06243
2775.46,0.06320
2752.32,0.06276
2729.17,0.06351
2706.03,0.06326
2682.88,0.06379
2659.74,0.06409
2636.59,0.06220
2613.45,0.06281
2590.3,0.06178
2567.16,0.06143
2544.02,0.06127
2520.87,0.06164
2497.73,0.06157
2474.58,0.06217
2451.44,0.06212
2428.29,0.06103
2405.15,0.06054
2382,0.06046
2358.86,0.06089
2335.71,0.06128
2312.57,0.06060
2289.42,0.06007
2266.28,0.05988
2243.13,0.06005
2219.99,0.06000
2196.84,0.06020
2173.7,0.06016
2150.55,0.05887
2127.41,0.05856
2104.26,0.05867
2081.12,0.05830
2057.97,0.05825
2034.83,0.05829
2011.68,0.05763
1988.54,0.05651
1965.39,0.05602
1942.25,0.05626
1919.1,0.05568
1895.96,0.05496
1872.81,0.05393
1849.67,0.05241
1826.52,0.05102
1803.38,0.04866
1780.23,0.04494
1757.09,0.03537
1733.94,0.04456
1710.8,0.11699
1687.65,0.07539
1664.51,0.06839
1641.36,0.06446
1618.22,0.06134
1595.07,0.05985
1571.93,0.05913
1548.78,0.05686
1525.64,0.05486
1502.49,0.05548
1479.35,0.05164
1456.2,0.04996
1433.06,0.04998
1409.91,0.04849
1386.77,0.04850
1363.62,0.04636
1340.48,0.04969
1317.33,0.03117
1294.19,0.03154
1271.04,0.10452
1247.9,0.16054
1224.75,0.10813
1201.61,0.08163
1178.46,0.06718
1155.32,0.05332
1132.17,0.06065
1109.03,0.09220
1085.88,0.11637
1062.74,0.08992
1039.59,0.08149
1016.45,0.09870
993.304,0.08214
970.159,0.07999
947.014,0.07675
923.869,0.07212
900.724,0.06879
877.579,0.06693
854.434,0.07232
831.289,0.07247
808.144,0.06995
784.999,0.06992
761.854,0.06335
738.709,0.03699
715.565,0.10197
692.42,0.08237
669.275,0.07781
646.13,0.07433
622.985,0.06983
599.84,0.07034

File: PET_IS_S_220831_R2.dpt
7497.03,0.51897
7473.89,0.49732
7450.74,0.46882
7427.6,0.43040
7404.45,0.40265
7381.31,0.38091
7358.16,0.35305
7335.02,0.34974
7311.87,0.35440
7288.73,0.35149
7265.58,0.34675
7242.44,0.33573
7219.29,0.32997
7196.15,0.32884
7173,0.32813
7149.86,0.30981
7126.71,0.30288
7103.57,0.29166
7080.42,0.29281
7057.28,0.28839
7034.13,0.29837
7010.99,0.30633
6987.84,0.32087
6964.7,0.32869
6941.55,0.34649
6918.41,0.34935
6895.26,0.36155
6872.12,0.36490
6848.97,0.36676
6825.83,0.37811
6802.68,0.39145
6779.54,0.39716
6756.39,0.40789
6733.25,0.42210
6710.1,0.43316
6686.96,0.42634
6663.82,0.43033
6640.67,0.44030
6617.53,0.44477
6594.38,0.45268
6571.24,0.45260
6548.09,0.44999
6524.95,0.44697
6501.8,0.44734
6478.66,0.44713
6455.51,0.44207
6432.37,0.43615
6409.22,0.43936
6386.08,0.43478
6362.93,0.43384
6339.79,0.41369
6316.64,0.40951
6293.5,0.40614
6270.35,0.38626
6247.21,0.36498
6224.06,0.34350
6200.92,0.27518
6177.77,0.26597
6154.63,0.24366
6131.48,0.21857
6108.34,0.17684
6085.19,0.12458
6062.05,0.10008
6038.9,0.08354
6015.76,0.08030
5992.61,0.09293
5969.47,0.09910
5946.32,0.10393
5923.18,0.12351
5900.03,0.13773
5876.89,0.12383
5853.74,0.12006
5830.6,0.12639
5807.45,0.11968
5784.31,0.12340
5761.16,0.13013
5738.02,0.14440
5714.87,0.15171
5691.73,0.15621
5668.58,0.16430
5645.44,0.16442
5622.29,0.17813
5599.15,0.17792
5576,0.16692
5552.86,0.16528
5529.71,0.16560
5506.57,0.16884
5483.42,0.16219
5460.28,0.16637
5437.13,0.18210
5413.99,0.18893
5390.84,0.18528
5367.7,0.18111
5344.55,0.17663
5321.41,0.17880
5298.26,0.16683
5275.12,0.13596
5251.97,0.11430
5228.83,0.11768
5205.68,0.13633
5182.54,0.15071
5159.39,0.14598
5136.25,0.13374
5113.1,0.12453
5089.96,0.14932
5066.81,0.16511
5043.67,0.16808
5020.52,0.16562
4997.38,0.16845
4974.23,0.17047
4951.09,0.16258
4927.94,0.15624
4904.8,0.15136
4881.65,0.14557
4858.51,0.14031
4835.36,0.12489
4812.22,0.10832
4789.07,0.10390
4765.93,0.10956
4742.78,0.09273
4719.64,0.07755
4696.49,0.07090
4673.35,0.07674
4650.2,0.07826
4627.06,0.07504
4603.92,0.08751
4580.77,0.07766
4557.63,0.09132
4534.48,0.09117
4511.34,0.08388
4488.19,0.07099
4465.05,0.06669
4441.9,0.06502
4418.76,0.06562
4395.61,0.06708
4372.47,0.06768
4349.32,0.06825
4326.18,0.06713
4303.03,0.06651
4279.89,0.06604
4256.74,0.06649
4233.6,0.06644
4210.45,0.06675
4187.31,0.06733
4164.16,0.06717
4141.02,0.06743
4117.87,0.06681
4094.73,0.06471
4071.58,0.06508
4048.44,0.06703
4025.29,0.06829
4002.15,0.06767
3979,0.06878
3955.86,0.06891
3932.71,0.06935
3909.57,0.07002
3886.42,0.07175
3863.28,0.07252
3840.13,0.07229
3816.99,0.07086
3793.84,0.07092
3770.7,0.07043
3747.55,0.07077
3724.41,0.07078
3701.26,0.06796
3678.12,0.06428
3654.97,0.06316
3631.83,0.06322
3608.68,0.06329
3585.54,0.06320
3562.39,0.06251
3539.25,0.06206
3516.1,0.06278
3492.96,0.06326
3469.81,0.06315
3446.67,0.06190
3423.52,0.06220
3400.38,0.06310
3377.23,0.06303
3354.09,0.06350
3330.94,0.06329
3307.8,0.06296
3284.65,0.06337
3261.51,0.06288
3238.36,0.06263
3215.22,0.06261
3192.07,0.06307
3168.93,0.06225
3145.78,0.06243
3122.64,0.06143
3099.49,0.06135
3076.35,0.06117
3053.2,0.06114
3030.06,0.06082
3006.91,0.06059
2983.77,0.06001
2960.62,0.06135
2937.48,0.06306
2914.33,0.06499
2891.19,0.06315
2868.04,0.06236
2844.9,0.06388
2821.75,0.06282
2798.61,0.06290
2775.46,0.06302
2752.32,0.06293
2729.17,0.06305
2706.03,0.06325
2682.88,0.06348
2659.74,0.06320
2636.59,0.06259
2613.45,0.06210
2590.3,0.06171
2567.16,0.06156
2544.02,0.06138
2520.87,0.06159
2497.73,0.06135
2474.58,0.06202
2451.44,0.06150
2428.29,0.06075
2405.15,0.06066
2382,0.06038
2358.86,0.06056
2335.71,0.06054
2312.57,0.06038
2289.42,0.06009
2266.28,0.05963
2243.13,0.05973
2219.99,0.05970
2196.84,0.06008
2173.7,0.05949
2150.55,0.05909
2127.41,0.05879
2104.26,0.05871
2081.12,0.05839
2057.97,0.05845
2034.83,0.05784
2011.68,0.05708
1988.54,0.05666
1965.39,0.05604
1942.25,0.05636
1919.1,0.05581
1895.96,0.05498
1872.81,0.05376
1849.67,0.05251
1826.52,0.05123
1803.38,0.04880
1780.23,0.04447
1757.09,0.03543
1733.94,0.04431
1710.8,0.11682
1687.65,0.07505
1664.51,0.06864
1641.36,0.06418
1618.22,0.06151
1595.07,0.05964
1571.93,0.05898
1548.78,0.05659
1525.64,0.05466
1502.49,0.05540
1479.35,0.05138
1456.2,0.05029
1433.06,0.05009
1409.91,0.04864
1386.77,0.04867
1363.62,0.04624
1340.48,0.04955
1317.33,0.03138
1294.19,0.03151
1271.04,0.10386
1247.9,0.15960
1224.75,0.10818
1201.61,0.08179
1178.46,0.06695
1155.32,0.05353
1132.17,0.05991
1109.03,0.09204
1085.88,0.11642
1062.74,0.08954
1039.59,0.08111
1016.45,0.09720
993.304,0.08192
970.159,0.08028
947.014,0.07622
923.869,0.07251
900.724,0.06822
877.579,0.06632
854.434,0.07244
831.289,0.07265
808.144,0.06971
784.999,0.06945
761.854,0.06427
738.709,0.03704
715.565,0.10032
692.42,0.08166
669.275,0.07680
646.13,0.07384
622.985,0.07443
599.84,0.07263

File: PET_IS_S_220831_R3.dpt
7497.03,0.52299
7473.89,0.49702
7450.74,0.47363
7427.6,0.43872
7404.45,0.39476
7381.31,0.37909
7358.16,0.35682
7335.02,0.35581
7311.87,0.34560
7288.73,0.35091
7265.58,0.34577
7242.44,0.33264
7219.29,0.33145
7196.15,0.32632
7173,0.32413
7149.86,0.31588
7126.71,0.29313
7103.57,0.29339
7080.42,0.28774
7057.28,0.29257
7034.13,0.29757
7010.99,0.31120
6987.84,0.31469
6964.7,0.33075
6941.55,0.34356
6918.41,0.35263
6895.26,0.36550
6872.12,0.36780
6848.97,0.37197
6825.83,0.37666
6802.68,0.39218
6779.54,0.39660
6756.39,0.41054
6733.25,0.42793
6710.1,0.43151
6686.96,0.43038
6663.82,0.43245
6640.67,0.43807
6617.53,0.44579
6594.38,0.45091
6571.24,0.45836
6548.09,0.45668
6524.95,0.45018
6501.8,0.44958
6478.66,0.44651
6455.51,0.44333
6432.37,0.43731
6409.22,0.43743
6386.08,0.43711
6362.93,0.43751
6339.79,0.41638
6316.64,0.40934
6293.5,0.40882
6270.35,0.38983
6247.21,0.36558
6224.06,0.34442
6200.92,0.27679
6177.77,0.27060
6154.63,0.24472
6131.48,0.22155
6108.34,0.17923
6085.19,0.12374
6062.05,0.09608
6038.9,0.08542
6015.76,0.08053
5992.61,0.09222
5969.47,0.09870
5946.32,0.10568
5923.18,0.11830
5900.03,0.14025
5876.89,0.12485
5853.74,0.12169
5830.6,0.12461
5807.45,0.11930
5784.31,0.12291
5761.16,0.12910
5738.02,0.14259
5714.87,0.15258
5691.73,0.15633
5668.58,0.16367
5645.44,0.16665
5622.29,0.17748
5599.15,0.17840
5576,0.16711
5552.86,0.16511
5529.71,0.16388
5506.57,0.17013
5483.42,0.16102
5460.28,0.16757
5437.13,0.18331
5413.99,0.18893
5390.84,0.18378
5367.7,0.18191
5344.55,0.17587
5321.41,0.17881
5298.26,0.16661
5275.12,0.13430
5251.97,0.11425
5228.83,0.11880
5205.68,0.13638
5182.54,0.15062
5159.39,0.14621
5136.25,0.13399
5113.1,0.12505
5089.96,0.15001
5066.81,0.16577
5043.67,0.16822
5020.52,0.16590
4997.38,0.16701
4974.23,0.17040
4951.09,0.16376
4927.94,0.15600
4904.8,0.15155
4881.65,0.14595
4858.51,0.13954
4835.36,0.12502
4812.22,0.10814
4789.07,0.10496
4765.93,0.10982
4742.78,0.09204
4719.64,0.07681
4696.49,0.07097
4673.35,0.07695
4650.2,0.07855
4627.06,0.07572
4603.92,0.08829
4580.77,0.07776
4557.63,0.09124
4534.48,0.08994
4511.34,0.08399
4488.19,0.07111
4465.05,0.06682
4441.9,0.06569
4418.76,0.06606
4395.61,0.06722
4372.47,0.06741
4349.32,0.06734
4326.18,0.06778
4303.03,0.06606
4279.89,0.06574
4256.74,0.06646
4233.6,0.06666
4210.45,0.06816
4187.31,0.06670
4164.16,0.06747
4141.02,0.06714
4117.87,0.06532
4094.73,0.06430
4071.58,0.06515
4048.44,0.06703
4025.29,0.06895
4002.15,0.06864
3979,0.06882
3955.86,0.06928
3932.71,0.06957
3909.57,0.07002
3886.42,0.07109
3863.28,0.07261
3840.13,0.07306
3816.99,0.07175
3793.84,0.07118
3770.7,0.07019
3747.55,0.07154
3724.41,0.07102
3701.26,0.06780
3678.12,0.06465
3654.97,0.06307
3631.83,0.06377
3608.68,0.06410
3585.54,0.06329
3562.39,0.06262
3539.25,0.06279
3516.1,0.06331
3492.96,0.06369
3469.81,0.06278
3446.67,0.06199
3423.52,0.06195
3400.38,0.06335
3377.23,0.06348
3354.09,0.06341
3330.94,0.06333
3307.8,0.06326
3284.65,0.06320
3261.51,0.06342
3238.36,0.06315
3215.22,0.06331
3192.07,0.06336
3168.93,0.06296
3145.78,0.06204
3122.64,0.06226
3099.49,0.06174
3076.35,0.06105
3053.2,0.06123
3030.06,0.06073
3006.91,0.06110
2983.77,0.06020
2960.62,0.06149
2937.48,0.06289
2914.33,0.06438
2891.19,0.06319
2868.04,0.06272
2844.9,0.06477
2821.75,0.06317
2798.61,0.06248
2775.46,0.06307
2752.32,0.06285
2729.17,0.06313
2706.03,0.06391
2682.88,0.06354
2659.74,0.06356
2636.59,0.06263
2613.45,0.06205
2590.3,0.06170
2567.16,0.06164
2544.02,0.06166
2520.87,0.06168
2497.73,0.06201
2474.58,0.06254
2451.44,0.06209
2428.29,0.06120
2405.15,0.06091
2382,0.06067
2358.86,0.06083
2335.71,0.06093
2312.57,0.06104
2289.42,0.05979
2266.28,0.06023
2243.13,0.06003
2219.99,0.06011
2196.84,0.06014
2173.7,0.05959
2150.55,0.05936
2127.41,0.05896
2104.26,0.05919
2081.12,0.05849
2057.97,0.05828
2034.83,0.05854
2011.68,0.05786
1988.54,0.05689
1965.39,0.05657
1942.25,0.05632
1919.1,0.05574
1895.96,0.05507
1872.81,0.05400
1849.67,0.05238
1826.52,0.05124
1803.38,0.04865
1780.23,0.04490
1757.09,0.03540
1733.94,0.04498
1710.8,0.11748
1687.65,0.07545
1664.51,0.06843
1641.36,0.06428
1618.22,0.06167
1595.07,0.06028
1571.93,0.05907
1548.78,0.05682
1525.64,0.05473
1502.49,0.05576
1479.35,0.05155
1456.2,0.05031
1433.06,0.04985
1409.91,0.04842
1386.77,0.04873
1363.62,0.04666
1340.48,0.04980
1317.33,0.03157
1294.19,0.03196
1271.04,0.10457
1247.9,0.16054
1224.75,0.10843
1201.61,0.08194
1178.46,0.06669
1155.32,0.05382
1132.17,0.06078
1109.03,0.09219
1085.88,0.11701
1062.74,0.08997
1039.59,0.08096
1016.45,0.09883
993.304,0.08235
970.159,0.08013
947.014,0.07594
923.869,0.07267
900.724,0.06849
877.579,0.06645
854.434,0.07291
831.289,0.07300
808.144,0.06955
784.999,0.06984
761.854,0.06373
738.709,0.03722
715.565,0.10092
692.42,0.08158
669.275,0.07734
646.13,0.07305
622.985,0.07074
599.84,0.06789

File: PET_IS_S_220831_R4.dpt
7497.03,0.51352
7473.89,0.50108
7450.74,0.46534
7427.6,0.43262
7404.45,0.40792
7381.31,0.38679
7358.16,0.36124
7335.02,0.35163
7311.87,0.35765
7288.73,0.35083
7265.58,0.34616
7242.44,0.34007
7219.29,0.34095
7196.15,0.33471
7173,0.32643
7149.86,0.31435
7126.71,0.30138
7103.57,0.29217
7080.42,0.29567
7057.28,0.29458
7034.13,0.29770
7010.99,0.30259
6987.84,0.32507
6964.7,0.32830
6941.55,0.34224
6918.41,0.35557
6895.26,0.36717
6872.12,0.36556
6848.97,0.37241
6825.83,0.37683
6802.68,0.38811
6779.54,0.39844
6756.39,0.41091
6733.25,0.42954
6710.1,0.42830
6686.96,0.43400
6663.82,0.43319
6640.67,0.44529
6617.53,0.44652
6594.38,0.45429
6571.24,0.45306
6548.09,0.45212
6524.95,0.44700
6501.8,0.45117
6478.66,0.45117
6455.51,0.44679
6432.37,0.43560
6409.22,0.43973
6386.08,0.44030
6362.93,0.43552
6339.79,0.41981
6316.64,0.41094
6293.5,0.40809
6270.35,0.38694
6247.21,0.36563
6224.06,0.34769
6200.92,0.27409
6177.77,0.27209
6154.63,0.24260
6131.48,0.22186
6108.34,0.17517
6085.19,0.12573
6062.05,0.09886
6038.9,0.08482
6015.76,0.08036
5992.61,0.09320
5969.47,0.09829
5946.32,0.10578
5923.18,0.12211
5900.03,0.13875
5876.89,0.12671
5853.74,0.11945
5830.6,0.12274
5807.45,0.12178
5784.31,0.12238
5761.16,0.13237
5738.02,0.14623
5714.87,0.15315
5691.73,0.15627
5668.58,0.16120
5645.44,0.16342
5622.29,0.17933
5599.15,0.17959
5576,0.16808
5552.86,0.16647
5529.71,0.16573
5506.57,0.16818
5483.42,0.16359
5460.28,0.16853
5437.13,0.18427
5413.99,0.18914
5390.84,0.18640
5367.7,0.18479
5344.55,0.17821
5321.41,0.18054
5298.26,0.16748
5275.12,0.13457
5251.97,0.11508
5228.83,0.11989
5205.68,0.13848
5182.54,0.15065
5159.39,0.14672
5136.25,0.13427
5113.1,0.12518
5089.96,0.14995
5066.81,0.16510
5043.67,0.16988
5020.52,0.16572
4997.38,0.16790
4974.23,0.17201
4951.09,0.16417
4927.94,0.15674
4904.8,0.15054
4881.65,0.14601
4858.51,0.14042
4835.36,0.12549
4812.22,0.10806
4789.07,0.10523
4765.93,0.11056
4742.78,0.09217
4719.64,0.07755
4696.49,0.07080
4673.35,0.07610
4650.2,0.07996
4627.06,0.07501
4603.92,0.08766
4580.77,0.07822
4557.63,0.09207
4534.48,0.09086
4511.34,0.08407
4488.19,0.07121
4465.05,0.06746
4441.9,0.06607
4418.76,0.06594
4395.61,0.06687
4372.47,0.06816
4349.32,0.06801
4326.18,0.06729
4303.03,0.06634
4279.89,0.06588
4256.74,0.06673
4233.6,0.06662
4210.45,0.06715
4187.31,0.06700
4164.16,0.06735
4141.02,0.06753
4117.87,0.06638
4094.73,0.06429
4071.58,0.06555
4048.44,0.06722
4025.29,0.06828
4002.15,0.06776
3979,0.06894
3955.86,0.06983
3932.71,0.07026
3909.57,0.07025
3886.42,0.07206
3863.28,0.07223
3840.13,0.07226
3816.99,0.07187
3793.84,0.07150
3770.7,0.07034
3747.55,0.07138
3724.41,0.07191
3701.26,0.06824
3678.12,0.06487
3654.97,0.06364
3631.83,0.06329
3608.68,0.06396
3585.54,0.06344
3562.39,0.06219
3539.25,0.06306
3516.1,0.06326
3492.96,0.06378
3469.81,0.06314
3446.67,0.06301
3423.52,0.06221
3400.38,0.06389
3377.23,0.06417
3354.09,0.06398
3330.94,0.06324
3307.8,0.06350
3284.65,0.06380
3261.51,0.06313
3238.36,0.06377
3215.22,0.06315
3192.07,0.06342
3168.93,0.06274
3145.78,0.06230
3122.64,0.06201
3099.49,0.06176
3076.35,0.06159
3053.2,0.06133
3030.06,0.06048
3006.91,0.06069
2983.77,0.05993
2960.62,0.06137
2937.48,0.06310
2914.33,0.06502
2891.19,0.06330
2868.04,0.06284
2844.9,0.06435
2821.75,0.06336
2798.61,0.06283
2775.46,0.06301
2752.32,0.06290
2729.17,0.06323
2706.03,0.06387
2682.88,0.06364
2659.74,0.06408
2636.59,0.06341
2613.45,0.06286
2590.3,0.06223
2567.16,0.06204
2544.02,0.06207
2520.87,0.06200
2497.73,0.06119
2474.58,0.06241
2451.44,0.06217
2428.29,0.06149
2405.15,0.06071
2382,0.06088
2358.86,0.06062
2335.71,0.06103
2312.57,0.06108
2289.42,0.06016
2266.28,0.06017
2243.13,0.06001
2219.99,0.06001
2196.84,0.06065
2173.7,0.05998
2150.55,0.05960
2127.41,0.05884
2104.26,0.05910
2081.12,0.05889
2057.97,0.05867
2034.83,0.05842
2011.68,0.05782
1988.54,0.05700
1965.39,0.05639
1942.25,0.05663
1919.1,0.05584
1895.96,0.05527
1872.81,0.05418
1849.67,0.05294
1826.52,0.05128
1803.38,0.04891
1780.23,0.04510
1757.09,0.03545
1733.94,0.04535
1710.8,0.11775
1687.65,0.07573
1664.51,0.06859
1641.36,0.06489
1618.22,0.06209
1595.07,0.06017
1571.93,0.05957
1548.78,0.05725
1525.64,0.05477
1502.49,0.05584
1479.35,0.05172
1456.2,0.05024
1433.06,0.05035
1409.91,0.04866
1386.77,0.04880
1363.62,0.04664
1340.48,0.04950
1317.33,0.03132
1294.19,0.03181
1271.04,0.10457
1247.9,0.16098
1224.75,0.10855
1201.61,0.08214
1178.46,0.06683
1155.32,0.05346
1132.17,0.06060
1109.03,0.09219
1085.88,0.11677
1062.74,0.08986
1039.59,0.08094
1016.45,0.09884
993.304,0.08328
970.159,0.08059
947.014,0.07656
923.869,0.07281
900.724,0.06881
877.579,0.06666
854.434,0.07287
831.289,0.07310
808.144,0.07013
784.999,0.06953
761.854,0.06299
738.709,0.03681
715.565,0.10127
692.42,0.08226
669.275,0.07699
646.13,0.07278
622.985,0.07349
599.84,0.07318