Folder: fsri_materials_database/01_Data/PET/FTIR/IS (part 3)

File: PET_IS_T_220831_R6.dpt
7497.03,0.02406
7473.89,0.01882
7450.74,0.02570
7427.6,0.02361
7404.45,0.02740
7381.31,0.02461
7358.16,0.02206
7335.02,0.02169
7311.87,0.02265
7288.73,0.02204
7265.58,0.01900
7242.44,0.02094
7219.29,0.02855
7196.15,0.02039
7173,0.02540
7149.86,0.02463
7126.71,0.02278
7103.57,0.03124
7080.42,0.03165
7057.28,0.02324
7034.13,0.02452
7010.99,0.02081
6987.84,0.02394
6964.7,0.02105
6941.55,0.02920
6918.41,0.02270
6895.26,0.02134
6872.12,0.02318
6848.97,0.02297
6825.83,0.02181
6802.68,0.02506
6779.54,0.01992
6756.39,0.02262
6733.25,0.02699
6710.1,0.02448
6686.96,0.02164
6663.82,0.02340
6640.67,0.02021
6617.53,0.02147
6594.38,0.02304
6571.24,0.02099
6548.09,0.02406
6524.95,0.02093
6501.8,0.02139
6478.66,0.02198
6455.51,0.02283
6432.37,0.02400
6409.22,0.01960
6386.08,0.01973
6362.93,0.02205
6339.79,0.02194
6316.64,0.02258
6293.5,0.02449
6270.35,0.02166
6247.21,0.02167
6224.06,0.02193
6200.92,0.02261
6177.77,0.02126
6154.63,0.02056
6131.48,0.01995
6108.34,0.02284
6085.19,0.02156
6062.05,0.02111
6038.9,0.02368
6015.76,0.02246
5992.61,0.01839
5969.47,0.02004
5946.32,0.01934
5923.18,0.02382
5900.03,0.01930
5876.89,0.02113
5853.74,0.02246
5830.6,0.02095
5807.45,0.02375
5784.31,0.01941
5761.16,0.02282
5738.02,0.02203
5714.87,0.02159
5691.73,0.02422
5668.58,0.02136
5645.44,0.02172
5622.29,0.02098
5599.15,0.02301
5576,0.02313
5552.86,0.01953
5529.71,0.02112
5506.57,0.02298
5483.42,0.02444
5460.28,0.02241
5437.13,0.02256
5413.99,0.02191
5390.84,0.02113
5367.7,0.02260
5344.55,0.02218
5321.41,0.02232
5298.26,0.02093
5275.12,0.02096
5251.97,0.02177
5228.83,0.02251
5205.68,0.02205
5182.54,0.02336
5159.39,0.02170
5136.25,0.02230
5113.1,0.02154
5089.96,0.02285
5066.81,0.02023
5043.67,0.02142
5020.52,0.02216
4997.38,0.02256
4974.23,0.02217
4951.09,0.02174
4927.94,0.02281
4904.8,0.02176
4881.65,0.02150
4858.51,0.02142
4835.36,0.02292
4812.22,0.02265
4789.07,0.02254
4765.93,0.02277
4742.78,0.02245
4719.64,0.02279
4696.49,0.02206
4673.35,0.02086
4650.2,0.02279
4627.06,0.02252
4603.92,0.02221
4580.77,0.02215
4557.63,0.02189
4534.48,0.02232
4511.34,0.02193
4488.19,0.02258
4465.05,0.02225
4441.9,0.02255
4418.76,0.02171
4395.61,0.02178
4372.47,0.02237
4349.32,0.02189
4326.18,0.02279
4303.03,0.02259
4279.89,0.02265
4256.74,0.02205
4233.6,0.02244
4210.45,0.02177
4187.31,0.02229
4164.16,0.02210
4141.02,0.02194
4117.87,0.02293
4094.73,0.02222
4071.58,0.02226
4048.44,0.02193
4025.29,0.02234
4002.15,0.02301
3979,0.02256
3955.86,0.02175
3932.71,0.02233
3909.57,0.02186
3886.42,0.02234
3863.28,0.02240
3840.13,0.02225
3816.99,0.02243
3793.84,0.02220
3770.7,0.02264
3747.55,0.02241
3724.41,0.02239
3701.26,0.02186
3678.12,0.02227
3654.97,0.02216
3631.83,0.02143
3608.68,0.02171
3585.54,0.02120
3562.39,0.02135
3539.25,0.02103
3516.1,0.02143
3492.96,0.02070
3469.81,0.02074
3446.67,0.02082
3423.52,0.02065
3400.38,0.02026
3377.23,0.02050
3354.09,0.01991
3330.94,0.02043
3307.8,0.01983
3284.65,0.01971
3261.51,0.02053
3238.36,0.02047
3215.22,0.02064
3192.07,0.02090
3168.93,0.02070
3145.78,0.02083
3122.64,0.02062
3099.49,0.02076
3076.35,0.02045
3053.2,0.02007
3030.06,0.01999
3006.91,0.02054
2983.77,0.01973
2960.62,0.01946
2937.48,0.01957
2914.33,0.01985
2891.19,0.02008
2868.04,0.02028
2844.9,0.02059
2821.75,0.02093
2798.61,0.02108
2775.46,0.02117
2752.32,0.02103
2729.17,0.02129
2706.03,0.02095
2682.88,0.02150
2659.74,0.02080
2636.59,0.02075
2613.45,0.02070
2590.3,0.02085
2567.16,0.02101
2544.02,0.02146
2520.87,0.02097
2497.73,0.02092
2474.58,0.02087
2451.44,0.02089
2428.29,0.02063
2405.15,0.02080
2382,0.02102
2358.86,0.02115
2335.71,0.02077
2312.57,0.02122
2289.42,0.02085
2266.28,0.02087
2243.13,0.02062
2219.99,0.02087
2196.84,0.02079
2173.7,0.02074
2150.55,0.02069
2127.41,0.02109
2104.26,0.02069
2081.12,0.02060
2057.97,0.02078
2034.83,0.02045
2011.68,0.02069
1988.54,0.02076
1965.39,0.02067
1942.25,0.02013
1919.1,0.02073
1895.96,0.02025
1872.81,0.01969
1849.67,0.02015
1826.52,0.01993
1803.38,0.01948
1780.23,0.01891
1757.09,0.01732
1733.94,0.01947
1710.8,0.02046
1687.65,0.01901
1664.51,0.01834
1641.36,0.01822
1618.22,0.01922
1595.07,0.01910
1571.93,0.01812
1548.78,0.01835
1525.64,0.01879
1502.49,0.01854
1479.35,0.01840
1456.2,0.01852
1433.06,0.01859
1409.91,0.01801
1386.77,0.01823
1363.62,0.01826
1340.48,0.01749
1317.33,0.01701
1294.19,0.01776
1271.04,0.01913
1247.9,0.02028
1224.75,0.01953
1201.61,0.01887
1178.46,0.01828
1155.32,0.01749
1132.17,0.01813
1109.03,0.01836
1085.88,0.01811
1062.74,0.01968
1039.59,0.01951
1016.45,0.01963
993.304,0.02062
970.159,0.01984
947.014,0.01952
923.869,0.01945
900.724,0.01850
877.579,0.01882
854.434,0.01887
831.289,0.01876
808.144,0.01945
784.999,0.01890
761.854,0.01809
738.709,0.01794
715.565,0.01716
692.42,0.01759
669.275,0.01657
646.13,0.01618
622.985,0.01663
599.84,0.01173