Folder: fsri_materials_database/01_Data/Triexta_Carpet_High_Pile/FTIR/IS

Note: README.md
# Materials and Products Database
### Repository of materials and products properties and fire test data to improve fire modeling and fire investigation.

This project was supported in part by Award No. 2019-DU-BX-0018, awarded by the National Institute of Justice, Office of Justice Programs, U.S. Department of Justice. The opinions, findings, and conclusions or recommendations expressed in this publication / program / exhibition are those of the author(s) and do not necessarily reflect those of the Department of Justice.

***
***

__Cite this database:__ "McKinnon, M., Weinschenk, C., Dow, N., DiDomizio, M., and Madrzykowski, D. Materials and Products Database (Version 1.0.0), Fire Safety Research Institute, UL Research Institutes. Columbia, MD 21045, 2023."

__Cite the Technical Reference Guide:__ "McKinnon, M., Weinschenk, C., and Madrzykowski, D. Materials and Products Database - Technical Reference Guide, Fire Safety Research Institute, UL Research Institutes. Columbia, MD 21045, 2023."

__Cite the User Guide:__ "McKinnon, M., and Weinschenk, C. Materials and Products Database - User Guide, Fire Safety Research Institute, UL Research Institutes. Columbia, MD 21045, 2023."

***
***

## Database Structure

## 01_Data/
Raw data generated from each apparatus are included here in plain-text format. The data is organized first by material, next by the short name of test apparatus used, and where applicable additional filtering by test settings.

### Test Apparatus and Data File Structure
- __Cone Calorimeter__ (Cone)
    + Data file structure includes the material, the short name for the apparatus, heat flux setting and scan/scalar, date of test, and replicate number. Scan is for the raw output data and scalar is for the initial conditions and high-level test parameters. 
        * Example: __MDF_Cone_HF25scalar_210323_R1__ stands for the first replicate of scalar data generated from a medium density fiber board test in cone calorimeter exposed to 25 kW/m<sup>2</sup> on March 23, 2021.
    + A _Cone_Notes.csv_ is generated for each material from the __plot_Cone_data.py__ script. For materials whose experiments deviated from typical behavior relevant pictures are included in the respective material directory.
- __Fourier Transform Infrared Spectrometer__ (FTIR)
    + The FTIR directory contains subdirectories for the Attenuated Total Reflectance method (ATR) and the Integrating Sphere (IS)
    + Data file structure for the ATR experiment files includes the material, the abbreviated name for the apparatus, date of test, and replicate number. 
        * Example: __MDF_ATR_210323_R5__ stands for the fifth replicate of data collected with the ATR accessory conducted on June 8, 2021.
    + Data file structure for the IS experiment files includes the material, the abbreviated name for the apparatus, the measurand, whether the test is a sample measurement or standard reference, date of test, and replicate number.
        * Example: __OSB_IS_REFLECT_MEAS_2

File: Triexta_Carpet_High_Pile_IS_S_221121_R1.dpt
7497.03,0.83053
7473.89,0.85246
7450.74,0.84700
7427.6,0.82786
7404.45,0.82265
7381.31,0.81510
7358.16,0.80544
7335.02,0.78461
7311.87,0.78830
7288.73,0.79566
7265.58,0.78503
7242.44,0.79557
7219.29,0.78150
7196.15,0.77822
7173,0.78209
7149.86,0.77760
7126.71,0.78762
7103.57,0.77427
7080.42,0.78396
7057.28,0.77873
7034.13,0.77679
7010.99,0.78268
6987.84,0.78399
6964.7,0.79475
6941.55,0.79711
6918.41,0.79766
6895.26,0.80922
6872.12,0.81004
6848.97,0.80907
6825.83,0.81617
6802.68,0.82037
6779.54,0.82449
6756.39,0.82320
6733.25,0.82932
6710.1,0.83331
6686.96,0.83251
6663.82,0.83295
6640.67,0.83518
6617.53,0.83710
6594.38,0.84054
6571.24,0.84177
6548.09,0.84670
6524.95,0.84161
6501.8,0.84379
6478.66,0.84461
6455.51,0.84223
6432.37,0.83824
6409.22,0.84285
6386.08,0.83717
6362.93,0.83535
6339.79,0.83703
6316.64,0.83427
6293.5,0.83339
6270.35,0.83128
6247.21,0.82276
6224.06,0.81569
6200.92,0.78127
6177.77,0.78002
6154.63,0.76756
6131.48,0.75371
6108.34,0.70407
6085.19,0.62063
6062.05,0.53149
6038.9,0.48141
6015.76,0.47121
5992.61,0.54115
5969.47,0.57552
5946.32,0.55963
5923.18,0.58824
5900.03,0.60831
5876.89,0.62054
5853.74,0.63822
5830.6,0.61709
5807.45,0.57943
5784.31,0.58984
5761.16,0.61936
5738.02,0.63183
5714.87,0.64953
5691.73,0.66434
5668.58,0.67811
5645.44,0.67660
5622.29,0.69677
5599.15,0.70872
5576,0.69825
5552.86,0.68952
5529.71,0.69679
5506.57,0.70624
5483.42,0.70182
5460.28,0.70427
5437.13,0.72303
5413.99,0.72768
5390.84,0.72951
5367.7,0.72762
5344.55,0.72471
5321.41,0.73318
5298.26,0.73245
5275.12,0.72134
5251.97,0.71596
5228.83,0.72433
5205.68,0.72325
5182.54,0.72125
5159.39,0.71626
5136.25,0.69980
5113.1,0.67821
5089.96,0.67689
5066.81,0.71427
5043.67,0.72663
5020.52,0.72368
4997.38,0.72337
4974.23,0.72854
4951.09,0.72249
4927.94,0.71833
4904.8,0.71298
4881.65,0.70805
4858.51,0.70055
4835.36,0.67976
4812.22,0.63989
4789.07,0.62610
4765.93,0.64928
4742.78,0.61746
4719.64,0.50973
4696.49,0.44700
4673.35,0.47638
4650.2,0.50976
4627.06,0.48178
4603.92,0.57250
4580.77,0.51291
4557.63,0.60160
4534.48,0.59935
4511.34,0.56732
4488.19,0.46378
4465.05,0.42484
4441.9,0.34357
4418.76,0.31956
4395.61,0.35617
4372.47,0.34712
4349.32,0.34261
4326.18,0.36403
4303.03,0.36934
4279.89,0.34829
4256.74,0.34668
4233.6,0.35210
4210.45,0.34612
4187.31,0.35795
4164.16,0.37776
4141.02,0.41322
4117.87,0.37622
4094.73,0.26563
4071.58,0.31560
4048.44,0.36484
4025.29,0.38638
4002.15,0.41295
3979,0.44270
3955.86,0.43689
3932.71,0.41515
3909.57,0.42112
3886.42,0.45272
3863.28,0.48011
3840.13,0.49272
3816.99,0.48300
3793.84,0.50206
3770.7,0.49578
3747.55,0.50112
3724.41,0.50710
3701.26,0.47916
3678.12,0.45652
3654.97,0.51091
3631.83,0.47108
3608.68,0.42711
3585.54,0.35143
3562.39,0.27907
3539.25,0.26782
3516.1,0.29716
3492.96,0.32520
3469.81,0.31379
3446.67,0.22984
3423.52,0.16531
3400.38,0.24472
3377.23,0.32869
3354.09,0.32313
3330.94,0.27755
3307.8,0.31294
3284.65,0.30600
3261.51,0.32345
3238.36,0.31283
3215.22,0.31090
3192.07,0.30799
3168.93,0.29716
3145.78,0.27272
3122.64,0.22925
3099.49,0.19078
3076.35,0.16346
3053.2,0.15365
3030.06,0.20616
3006.91,0.10726
2983.77,0.03778
2960.62,0.03583
2937.48,0.07436
2914.33,0.07321
2891.19,0.08213
2868.04,0.11576
2844.9,0.15456
2821.75,0.22538
2798.61,0.25543
2775.46,0.26618
2752.32,0.30242
2729.17,0.33023
2706.03,0.35261
2682.88,0.36588
2659.74,0.36019
2636.59,0.32306
2613.45,0.32707
2590.3,0.31016
2567.16,0.29384
2544.02,0.27690
2520.87,0.29697
2497.73,0.32969
2474.58,0.35461
2451.44,0.35833
2428.29,0.29721
2405.15,0.23990
2382,0.21790
2358.86,0.26390
2335.71,0.33268
2312.57,0.35760
2289.42,0.29656
2266.28,0.30473
2243.13,0.27635
2219.99,0.27457
2196.84,0.28854
2173.7,0.30840
2150.55,0.27679
2127.41,0.25881
2104.26,0.24770
2081.12,0.25718
2057.97,0.26159
2034.83,0.26243
2011.68,0.26024
1988.54,0.23666
1965.39,0.17973
1942.25,0.16968
1919.1,0.25295
1895.96,0.24519
1872.81,0.22850
1849.67,0.17792
1826.52,0.10852
1803.38,0.09763
1780.23,0.07559
1757.09,0.03822
1733.94,0.01689
1710.8,0.03132
1687.65,0.04266
1664.51,0.07443
1641.36,0.11141
1618.22,0.11162
1595.07,0.13943
1571.93,0.09082
1548.78,0.13547
1525.64,0.09298
1502.49,0.03664
1479.35,0.05014
1456.2,0.03273
1433.06,0.05038
1409.91,0.01818
1386.77,0.02315
1363.62,0.02762
1340.48,0.02751
1317.33,0.01684
1294.19,0.01729
1271.04,0.03941
1247.9,0.03746
1224.75,0.03674
1201.61,0.06538
1178.46,0.05332
1155.32,0.03395
1132.17,0.02055
1109.03,0.02549
1085.88,0.02945
1062.74,0.06614
1039.59,0.03070
1016.45,0.03213
993.304,0.11654
970.159,0.07546
947.014,0.06075
923.869,0.08761
900.724,0.09368
877.579,0.04333
854.434,0.07211
831.289,0.10685
808.144,0.11072
784.999,0.13314
761.854,0.12727
738.709,0.02480
715.565,0.08758
692.42,0.18697
669.275,0.20211
646.13,0.21983
622.985,0.23003
599.84,0.24109

File: Triexta_Carpet_High_Pile_IS_S_221121_R2.dpt
7497.03,0.84177
7473.89,0.84257
7450.74,0.82583
7427.6,0.83009
7404.45,0.82066
7381.31,0.82847
7358.16,0.79327
7335.02,0.79335
7311.87,0.78898
7288.73,0.79831
7265.58,0.78835
7242.44,0.78728
7219.29,0.78669
7196.15,0.77678
7173,0.78316
7149.86,0.78262
7126.71,0.78955
7103.57,0.78114
7080.42,0.78012
7057.28,0.79182
7034.13,0.77741
7010.99,0.78065
6987.84,0.78738
6964.7,0.78958
6941.55,0.79996
6918.41,0.80758
6895.26,0.80181
6872.12,0.80725
6848.97,0.82049
6825.83,0.81489
6802.68,0.82211
6779.54,0.82696
6756.39,0.82466
6733.25,0.82993
6710.1,0.82903
6686.96,0.83747
6663.82,0.83772
6640.67,0.84212
6617.53,0.84491
6594.38,0.84450
6571.24,0.84336
6548.09,0.84487
6524.95,0.84595
6501.8,0.84816
6478.66,0.84265
6455.51,0.84009
6432.37,0.84150
6409.22,0.84471
6386.08,0.84422
6362.93,0.84375
6339.79,0.83702
6316.64,0.83539
6293.5,0.83376
6270.35,0.83320
6247.21,0.82593
6224.06,0.81383
6200.92,0.78393
6177.77,0.78454
6154.63,0.76998
6131.48,0.75383
6108.34,0.70573
6085.19,0.62340
6062.05,0.53174
6038.9,0.48208
6015.76,0.47255
5992.61,0.54475
5969.47,0.57961
5946.32,0.55729
5923.18,0.58929
5900.03,0.61087
5876.89,0.62113
5853.74,0.63798
5830.6,0.61493
5807.45,0.57876
5784.31,0.58903
5761.16,0.61996
5738.02,0.63022
5714.87,0.65275
5691.73,0.66643
5668.58,0.67558
5645.44,0.68048
5622.29,0.69933
5599.15,0.71107
5576,0.70119
5552.86,0.69302
5529.71,0.69882
5506.57,0.70539
5483.42,0.70275
5460.28,0.70537
5437.13,0.72422
5413.99,0.72978
5390.84,0.73039
5367.7,0.72953
5344.55,0.72793
5321.41,0.73569
5298.26,0.73487
5275.12,0.72421
5251.97,0.72165
5228.83,0.72583
5205.68,0.72662
5182.54,0.72441
5159.39,0.72025
5136.25,0.70348
5113.1,0.68254
5089.96,0.67964
5066.81,0.71749
5043.67,0.73132
5020.52,0.72681
4997.38,0.72799
4974.23,0.73215
4951.09,0.72468
4927.94,0.71890
4904.8,0.71594
4881.65,0.71135
4858.51,0.70385
4835.36,0.68440
4812.22,0.64253
4789.07,0.62887
4765.93,0.65172
4742.78,0.61751
4719.64,0.51204
4696.49,0.44902
4673.35,0.47830
4650.2,0.51191
4627.06,0.48424
4603.92,0.57571
4580.77,0.51458
4557.63,0.60451
4534.48,0.60226
4511.34,0.57029
4488.19,0.46594
4465.05,0.42665
4441.9,0.34471
4418.76,0.31970
4395.61,0.35685
4372.47,0.34882
4349.32,0.34463
4326.18,0.36455
4303.03,0.37147
4279.89,0.34926
4256.74,0.34768
4233.6,0.35348
4210.45,0.34678
4187.31,0.35923
4164.16,0.37923
4141.02,0.41526
4117.87,0.37663
4094.73,0.26640
4071.58,0.31761
4048.44,0.36602
4025.29,0.38858
4002.15,0.41449
3979,0.44483
3955.86,0.43917
3932.71,0.41783
3909.57,0.42224
3886.42,0.45542
3863.28,0.48201
3840.13,0.49449
3816.99,0.48385
3793.84,0.50498
3770.7,0.49787
3747.55,0.50342
3724.41,0.50938
3701.26,0.48192
3678.12,0.46085
3654.97,0.51888
3631.83,0.47967
3608.68,0.43323
3585.54,0.35485
3562.39,0.28243
3539.25,0.27040
3516.1,0.30014
3492.96,0.32838
3469.81,0.31665
3446.67,0.23223
3423.52,0.16621
3400.38,0.24547
3377.23,0.33297
3354.09,0.32847
3330.94,0.28094
3307.8,0.31700
3284.65,0.30985
3261.51,0.32771
3238.36,0.31719
3215.22,0.31380
3192.07,0.31147
3168.93,0.29949
3145.78,0.27493
3122.64,0.23147
3099.49,0.19173
3076.35,0.16398
3053.2,0.15417
3030.06,0.20722
3006.91,0.10724
2983.77,0.03786
2960.62,0.03638
2937.48,0.07491
2914.33,0.07340
2891.19,0.08248
2868.04,0.11609
2844.9,0.15505
2821.75,0.22579
2798.61,0.25663
2775.46,0.26784
2752.32,0.30349
2729.17,0.33186
2706.03,0.35429
2682.88,0.36732
2659.74,0.36153
2636.59,0.32510
2613.45,0.32864
2590.3,0.31158
2567.16,0.29501
2544.02,0.27810
2520.87,0.29797
2497.73,0.33108
2474.58,0.35578
2451.44,0.35996
2428.29,0.29871
2405.15,0.24111
2382,0.21918
2358.86,0.26526
2335.71,0.33461
2312.57,0.35965
2289.42,0.29796
2266.28,0.30612
2243.13,0.27779
2219.99,0.27547
2196.84,0.28985
2173.7,0.30963
2150.55,0.27812
2127.41,0.26049
2104.26,0.24842
2081.12,0.25786
2057.97,0.26252
2034.83,0.26322
2011.68,0.26096
1988.54,0.23752
1965.39,0.18035
1942.25,0.17019
1919.1,0.25410
1895.96,0.24629
1872.81,0.22963
1849.67,0.17877
1826.52,0.10896
1803.38,0.09756
1780.23,0.07569
1757.09,0.03837
1733.94,0.01661
1710.8,0.03131
1687.65,0.04238
1664.51,0.07442
1641.36,0.11176
1618.22,0.11206
1595.07,0.14007
1571.93,0.09108
1548.78,0.13588
1525.64,0.09335
1502.49,0.03706
1479.35,0.05013
1456.2,0.03243
1433.06,0.05075
1409.91,0.01855
1386.77,0.02292
1363.62,0.02719
1340.48,0.02749
1317.33,0.01657
1294.19,0.01705
1271.04,0.03937
1247.9,0.03754
1224.75,0.03643
1201.61,0.06503
1178.46,0.05296
1155.32,0.03400
1132.17,0.01999
1109.03,0.02532
1085.88,0.02873
1062.74,0.06570
1039.59,0.03053
1016.45,0.03240
993.304,0.11704
970.159,0.07543
947.014,0.06176
923.869,0.08693
900.724,0.09304
877.579,0.04205
854.434,0.07218
831.289,0.10603
808.144,0.11101
784.999,0.13323
761.854,0.12694
738.709,0.02478
715.565,0.08632
692.42,0.18761
669.275,0.20303
646.13,0.21879
622.985,0.23148
599.84,0.23973

File: Triexta_Carpet_High_Pile_IS_S_221121_R3.dpt
7497.03,0.85317
7473.89,0.83408
7450.74,0.84563
7427.6,0.82530
7404.45,0.82421
7381.31,0.81734
7358.16,0.80795
7335.02,0.79171
7311.87,0.79137
7288.73,0.79940
7265.58,0.79886
7242.44,0.78769
7219.29,0.78819
7196.15,0.77928
7173,0.79292
7149.86,0.78240
7126.71,0.78276
7103.57,0.77868
7080.42,0.77957
7057.28,0.78071
7034.13,0.77576
7010.99,0.78018
6987.84,0.78250
6964.7,0.79500
6941.55,0.80101
6918.41,0.80774
6895.26,0.80117
6872.12,0.80998
6848.97,0.81084
6825.83,0.80997
6802.68,0.82201
6779.54,0.83037
6756.39,0.82462
6733.25,0.82450
6710.1,0.82824
6686.96,0.83402
6663.82,0.82982
6640.67,0.83970
6617.53,0.84126
6594.38,0.84753
6571.24,0.84026
6548.09,0.84709
6524.95,0.84644
6501.8,0.84589
6478.66,0.84248
6455.51,0.84092
6432.37,0.84318
6409.22,0.83951
6386.08,0.83544
6362.93,0.83906
6339.79,0.83810
6316.64,0.83175
6293.5,0.83297
6270.35,0.82902
6247.21,0.82671
6224.06,0.82158
6200.92,0.78398
6177.77,0.78439
6154.63,0.76815
6131.48,0.75590
6108.34,0.70569
6085.19,0.61795
6062.05,0.53494
6038.9,0.48009
6015.76,0.47113
5992.61,0.53809
5969.47,0.57840
5946.32,0.55999
5923.18,0.59174
5900.03,0.61105
5876.89,0.62038
5853.74,0.63524
5830.6,0.61507
5807.45,0.57736
5784.31,0.58750
5761.16,0.62229
5738.02,0.62955
5714.87,0.65137
5691.73,0.66768
5668.58,0.67645
5645.44,0.67715
5622.29,0.69736
5599.15,0.70968
5576,0.70024
5552.86,0.69175
5529.71,0.69677
5506.57,0.70540
5483.42,0.70147
5460.28,0.70438
5437.13,0.72408
5413.99,0.72978
5390.84,0.73060
5367.7,0.72990
5344.55,0.72582
5321.41,0.73538
5298.26,0.73357
5275.12,0.72434
5251.97,0.72140
5228.83,0.72725
5205.68,0.72385
5182.54,0.72025
5159.39,0.71699
5136.25,0.70130
5113.1,0.68056
5089.96,0.67870
5066.81,0.71713
5043.67,0.72824
5020.52,0.72639
4997.38,0.72640
4974.23,0.73133
4951.09,0.72615
4927.94,0.71884
4904.8,0.71568
4881.65,0.71056
4858.51,0.70212
4835.36,0.68384
4812.22,0.64261
4789.07,0.62753
4765.93,0.65097
4742.78,0.62021
4719.64,0.50942
4696.49,0.44838
4673.35,0.47807
4650.2,0.51234
4627.06,0.48317
4603.92,0.57386
4580.77,0.51285
4557.63,0.60420
4534.48,0.60175
4511.34,0.56968
4488.19,0.46511
4465.05,0.42632
4441.9,0.34362
4418.76,0.31955
4395.61,0.35659
4372.47,0.34866
4349.32,0.34344
4326.18,0.36463
4303.03,0.37073
4279.89,0.34920
4256.74,0.34671
4233.6,0.35331
4210.45,0.34658
4187.31,0.35920
4164.16,0.37802
4141.02,0.41458
4117.87,0.37665
4094.73,0.26663
4071.58,0.31766
4048.44,0.36536
4025.29,0.38805
4002.15,0.41399
3979,0.44422
3955.86,0.43895
3932.71,0.41620
3909.57,0.42186
3886.42,0.45412
3863.28,0.48118
3840.13,0.49506
3816.99,0.48417
3793.84,0.50389
3770.7,0.49717
3747.55,0.50269
3724.41,0.50803
3701.26,0.48080
3678.12,0.46065
3654.97,0.51939
3631.83,0.48061
3608.68,0.43323
3585.54,0.35480
3562.39,0.28292
3539.25,0.27009
3516.1,0.30063
3492.96,0.32821
3469.81,0.31752
3446.67,0.23210
3423.52,0.16683
3400.38,0.24687
3377.23,0.33327
3354.09,0.32792
3330.94,0.28143
3307.8,0.31716
3284.65,0.31009
3261.51,0.32813
3238.36,0.31670
3215.22,0.31412
3192.07,0.31150
3168.93,0.29924
3145.78,0.27553
3122.64,0.23135
3099.49,0.19116
3076.35,0.16432
3053.2,0.15380
3030.06,0.20710
3006.91,0.10769
2983.77,0.03784
2960.62,0.03627
2937.48,0.07476
2914.33,0.07319
2891.19,0.08284
2868.04,0.11652
2844.9,0.15472
2821.75,0.22602
2798.61,0.25705
2775.46,0.26712
2752.32,0.30353
2729.17,0.33100
2706.03,0.35383
2682.88,0.36686
2659.74,0.36081
2636.59,0.32441
2613.45,0.32813
2590.3,0.31105
2567.16,0.29476
2544.02,0.27767
2520.87,0.29770
2497.73,0.33115
2474.58,0.35534
2451.44,0.35955
2428.29,0.29886
2405.15,0.24071
2382,0.21912
2358.86,0.26465
2335.71,0.33391
2312.57,0.35875
2289.42,0.29731
2266.28,0.30574
2243.13,0.27704
2219.99,0.27533
2196.84,0.28901
2173.7,0.30939
2150.55,0.27766
2127.41,0.25995
2104.26,0.24832
2081.12,0.25773
2057.97,0.26220
2034.83,0.26321
2011.68,0.26070
1988.54,0.23733
1965.39,0.18008
1942.25,0.17013
1919.1,0.25368
1895.96,0.24623
1872.81,0.22937
1849.67,0.17857
1826.52,0.10872
1803.38,0.09784
1780.23,0.07560
1757.09,0.03792
1733.94,0.01651
1710.8,0.03133
1687.65,0.04273
1664.51,0.07467
1641.36,0.11183
1618.22,0.11216
1595.07,0.13942
1571.93,0.09122
1548.78,0.13548
1525.64,0.09329
1502.49,0.03686
1479.35,0.04970
1456.2,0.03226
1433.06,0.05069
1409.91,0.01807
1386.77,0.02285
1363.62,0.02765
1340.48,0.02762
1317.33,0.01670
1294.19,0.01735
1271.04,0.03943
1247.9,0.03740
1224.75,0.03613
1201.61,0.06533
1178.46,0.05315
1155.32,0.03389
1132.17,0.01981
1109.03,0.02565
1085.88,0.02941
1062.74,0.06559
1039.59,0.03073
1016.45,0.03213
993.304,0.11666
970.159,0.07473
947.014,0.06135
923.869,0.08662
900.724,0.09300
877.579,0.04288
854.434,0.07194
831.289,0.10726
808.144,0.11174
784.999,0.13344
761.854,0.12699
738.709,0.02283
715.565,0.08577
692.42,0.18636
669.275,0.20206
646.13,0.21790
622.985,0.23079
599.84,0.23980

File: Triexta_Carpet_High_Pile_IS_S_221121_R4.dpt
7497.03,0.85068
7473.89,0.84512
7450.74,0.84956
7427.6,0.82882
7404.45,0.82085
7381.31,0.82399
7358.16,0.81242
7335.02,0.79250
7311.87,0.79101
7288.73,0.80364
7265.58,0.79645
7242.44,0.79619
7219.29,0.79064
7196.15,0.77631
7173,0.78916
7149.86,0.78623
7126.71,0.78714
7103.57,0.78731
7080.42,0.78163
7057.28,0.78396
7034.13,0.76980
7010.99,0.77625
6987.84,0.78556
6964.7,0.80417
6941.55,0.79594
6918.41,0.80459
6895.26,0.80746
6872.12,0.80365
6848.97,0.80843
6825.83,0.81631
6802.68,0.83157
6779.54,0.82745
6756.39,0.82636
6733.25,0.82121
6710.1,0.83565
6686.96,0.82928
6663.82,0.83080
6640.67,0.83091
6617.53,0.84104
6594.38,0.84175
6571.24,0.83904
6548.09,0.84155
6524.95,0.83657
6501.8,0.84263
6478.66,0.84614
6455.51,0.84152
6432.37,0.84491
6409.22,0.83790
6386.08,0.84394
6362.93,0.83904
6339.79,0.83198
6316.64,0.83348
6293.5,0.83393
6270.35,0.83114
6247.21,0.82773
6224.06,0.81536
6200.92,0.78105
6177.77,0.77975
6154.63,0.76746
6131.48,0.75162
6108.34,0.70338
6085.19,0.61852
6062.05,0.53487
6038.9,0.48113
6015.76,0.47196
5992.61,0.54548
5969.47,0.57491
5946.32,0.55717
5923.18,0.58986
5900.03,0.60937
5876.89,0.62006
5853.74,0.63589
5830.6,0.61404
5807.45,0.57527
5784.31,0.59036
5761.16,0.61873
5738.02,0.62975
5714.87,0.64908
5691.73,0.66696
5668.58,0.67428
5645.44,0.67584
5622.29,0.69969
5599.15,0.71098
5576,0.69973
5552.86,0.69179
5529.71,0.69574
5506.57,0.70790
5483.42,0.70159
5460.28,0.70498
5437.13,0.72225
5413.99,0.72796
5390.84,0.73041
5367.7,0.72759
5344.55,0.72466
5321.41,0.73209
5298.26,0.73272
5275.12,0.72247
5251.97,0.71920
5228.83,0.72518
5205.68,0.72372
5182.54,0.72136
5159.39,0.71642
5136.25,0.70162
5113.1,0.68011
5089.96,0.67666
5066.81,0.71588
5043.67,0.72785
5020.52,0.72413
4997.38,0.72534
4974.23,0.72738
4951.09,0.72374
4927.94,0.71784
4904.8,0.71399
4881.65,0.70812
4858.51,0.70228
4835.36,0.68164
4812.22,0.64065
4789.07,0.62552
4765.93,0.64974
4742.78,0.61604
4719.64,0.50986
4696.49,0.44772
4673.35,0.47683
4650.2,0.51074
4627.06,0.48215
4603.92,0.57369
4580.77,0.51213
4557.63,0.60161
4534.48,0.60038
4511.34,0.56789
4488.19,0.46414
4465.05,0.42588
4441.9,0.34441
4418.76,0.31953
4395.61,0.35627
4372.47,0.34728
4349.32,0.34281
4326.18,0.36311
4303.03,0.36990
4279.89,0.34834
4256.74,0.34647
4233.6,0.35152
4210.45,0.34527
4187.31,0.35925
4164.16,0.37800
4141.02,0.41322
4117.87,0.37589
4094.73,0.26603
4071.58,0.31648
4048.44,0.36499
4025.29,0.38738
4002.15,0.41317
3979,0.44312
3955.86,0.43779
3932.71,0.41623
3909.57,0.42097
3886.42,0.45306
3863.28,0.48034
3840.13,0.49282
3816.99,0.48234
3793.84,0.50247
3770.7,0.49557
3747.55,0.50128
3724.41,0.50732
3701.26,0.48008
3678.12,0.45964
3654.97,0.51846
3631.83,0.47986
3608.68,0.43313
3585.54,0.35504
3562.39,0.28279
3539.25,0.27003
3516.1,0.30078
3492.96,0.32851
3469.81,0.31713
3446.67,0.23274
3423.52,0.16655
3400.38,0.24737
3377.23,0.33327
3354.09,0.32795
3330.94,0.28133
3307.8,0.31692
3284.65,0.31069
3261.51,0.32795
3238.36,0.31697
3215.22,0.31430
3192.07,0.31095
3168.93,0.29923
3145.78,0.27485
3122.64,0.23037
3099.49,0.19103
3076.35,0.16355
3053.2,0.15359
3030.06,0.20604
3006.91,0.10713
2983.77,0.03843
2960.62,0.03579
2937.48,0.07511
2914.33,0.07388
2891.19,0.08298
2868.04,0.11612
2844.9,0.15453
2821.75,0.22580
2798.61,0.25585
2775.46,0.26665
2752.32,0.30267
2729.17,0.33074
2706.03,0.35268
2682.88,0.36651
2659.74,0.35988
2636.59,0.32408
2613.45,0.32739
2590.3,0.31035
2567.16,0.29380
2544.02,0.27693
2520.87,0.29702
2497.73,0.32968
2474.58,0.35460
2451.44,0.35884
2428.29,0.29759
2405.15,0.24002
2382,0.21811
2358.86,0.26439
2335.71,0.33334
2312.57,0.35838
2289.42,0.29698
2266.28,0.30459
2243.13,0.27641
2219.99,0.27465
2196.84,0.28864
2173.7,0.30899
2150.55,0.27691
2127.41,0.25923
2104.26,0.24784
2081.12,0.25706
2057.97,0.26153
2034.83,0.26250
2011.68,0.26037
1988.54,0.23693
1965.39,0.17955
1942.25,0.16988
1919.1,0.25320
1895.96,0.24540
1872.81,0.22856
1849.67,0.17792
1826.52,0.10866
1803.38,0.09783
1780.23,0.07541
1757.09,0.03828
1733.94,0.01668
1710.8,0.03132
1687.65,0.04263
1664.51,0.07454
1641.36,0.11166
1618.22,0.11199
1595.07,0.13962
1571.93,0.09090
1548.78,0.13519
1525.64,0.09327
1502.49,0.03711
1479.35,0.04982
1456.2,0.03260
1433.06,0.05063
1409.91,0.01824
1386.77,0.02321
1363.62,0.02741
1340.48,0.02735
1317.33,0.01662
1294.19,0.01744
1271.04,0.03957
1247.9,0.03755
1224.75,0.03644
1201.61,0.06529
1178.46,0.05345
1155.32,0.03412
1132.17,0.02142
1109.03,0.02594
1085.88,0.02909
1062.74,0.06586
1039.59,0.03086
1016.45,0.03235
993.304,0.11633
970.159,0.07535
947.014,0.06129
923.869,0.08700
900.724,0.09332
877.579,0.04294
854.434,0.07162
831.289,0.10651
808.144,0.11199
784.999,0.13300
761.854,0.12696
738.709,0.02342
715.565,0.08565
692.42,0.18683
669.275,0.20238
646.13,0.21966
622.985,0.23234
599.84,0.24180