Folder: fsri_materials_database/01_Data/Triexta_Carpet_High_Pile/FTIR/IS (part 2)

File: Triexta_Carpet_High_Pile_IS_S_221121_R5.dpt
7497.03,0.84857
7473.89,0.83717
7450.74,0.85180
7427.6,0.82278
7404.45,0.82486
7381.31,0.81955
7358.16,0.79708
7335.02,0.79591
7311.87,0.79282
7288.73,0.79158
7265.58,0.80658
7242.44,0.79500
7219.29,0.77857
7196.15,0.78432
7173,0.79178
7149.86,0.78266
7126.71,0.78002
7103.57,0.78619
7080.42,0.78863
7057.28,0.78159
7034.13,0.77462
7010.99,0.78034
6987.84,0.78149
6964.7,0.79342
6941.55,0.79785
6918.41,0.80188
6895.26,0.79906
6872.12,0.80934
6848.97,0.81165
6825.83,0.81506
6802.68,0.82875
6779.54,0.82701
6756.39,0.82347
6733.25,0.82702
6710.1,0.82833
6686.96,0.83169
6663.82,0.83622
6640.67,0.83370
6617.53,0.83979
6594.38,0.84593
6571.24,0.84151
6548.09,0.84736
6524.95,0.84382
6501.8,0.84029
6478.66,0.84045
6455.51,0.84586
6432.37,0.84339
6409.22,0.84244
6386.08,0.84290
6362.93,0.84159
6339.79,0.83521
6316.64,0.83130
6293.5,0.83586
6270.35,0.83649
6247.21,0.82393
6224.06,0.82013
6200.92,0.78243
6177.77,0.78035
6154.63,0.76985
6131.48,0.75746
6108.34,0.70719
6085.19,0.61454
6062.05,0.53539
6038.9,0.48006
6015.76,0.47089
5992.61,0.54043
5969.47,0.57970
5946.32,0.55795
5923.18,0.58697
5900.03,0.60925
5876.89,0.62077
5853.74,0.63449
5830.6,0.61715
5807.45,0.57913
5784.31,0.58981
5761.16,0.62256
5738.02,0.63072
5714.87,0.64913
5691.73,0.66488
5668.58,0.67525
5645.44,0.67773
5622.29,0.70038
5599.15,0.71102
5576,0.69968
5552.86,0.69238
5529.71,0.69463
5506.57,0.70623
5483.42,0.70131
5460.28,0.70285
5437.13,0.72304
5413.99,0.72948
5390.84,0.72825
5367.7,0.73008
5344.55,0.72760
5321.41,0.73279
5298.26,0.73117
5275.12,0.72512
5251.97,0.72100
5228.83,0.72649
5205.68,0.72480
5182.54,0.72242
5159.39,0.71778
5136.25,0.70172
5113.1,0.68028
5089.96,0.67914
5066.81,0.71712
5043.67,0.72871
5020.52,0.72543
4997.38,0.72821
4974.23,0.73001
4951.09,0.72687
4927.94,0.71850
4904.8,0.71603
4881.65,0.71049
4858.51,0.70335
4835.36,0.68253
4812.22,0.64168
4789.07,0.62825
4765.93,0.65097
4742.78,0.61963
4719.64,0.51038
4696.49,0.44802
4673.35,0.47799
4650.2,0.51119
4627.06,0.48347
4603.92,0.57417
4580.77,0.51281
4557.63,0.60345
4534.48,0.60256
4511.34,0.56918
4488.19,0.46598
4465.05,0.42667
4441.9,0.34463
4418.76,0.31976
4395.61,0.35729
4372.47,0.34850
4349.32,0.34362
4326.18,0.36443
4303.03,0.37025
4279.89,0.34799
4256.74,0.34720
4233.6,0.35285
4210.45,0.34648
4187.31,0.35894
4164.16,0.37887
4141.02,0.41488
4117.87,0.37685
4094.73,0.26730
4071.58,0.31737
4048.44,0.36607
4025.29,0.38859
4002.15,0.41419
3979,0.44411
3955.86,0.43895
3932.71,0.41644
3909.57,0.42239
3886.42,0.45465
3863.28,0.48110
3840.13,0.49405
3816.99,0.48474
3793.84,0.50433
3770.7,0.49689
3747.55,0.50242
3724.41,0.50837
3701.26,0.48119
3678.12,0.46006
3654.97,0.51941
3631.83,0.48215
3608.68,0.43442
3585.54,0.35592
3562.39,0.28439
3539.25,0.27103
3516.1,0.30129
3492.96,0.32925
3469.81,0.31786
3446.67,0.23237
3423.52,0.16709
3400.38,0.24776
3377.23,0.33476
3354.09,0.32935
3330.94,0.28228
3307.8,0.31772
3284.65,0.31170
3261.51,0.32847
3238.36,0.31760
3215.22,0.31505
3192.07,0.31206
3168.93,0.30014
3145.78,0.27517
3122.64,0.23134
3099.49,0.19174
3076.35,0.16410
3053.2,0.15409
3030.06,0.20685
3006.91,0.10790
2983.77,0.03793
2960.62,0.03592
2937.48,0.07469
2914.33,0.07314
2891.19,0.08271
2868.04,0.11611
2844.9,0.15507
2821.75,0.22579
2798.61,0.25669
2775.46,0.26737
2752.32,0.30353
2729.17,0.33164
2706.03,0.35460
2682.88,0.36705
2659.74,0.36067
2636.59,0.32475
2613.45,0.32808
2590.3,0.31095
2567.16,0.29496
2544.02,0.27796
2520.87,0.29752
2497.73,0.33100
2474.58,0.35543
2451.44,0.35913
2428.29,0.29840
2405.15,0.24054
2382,0.21915
2358.86,0.26521
2335.71,0.33426
2312.57,0.35900
2289.42,0.29740
2266.28,0.30557
2243.13,0.27743
2219.99,0.27548
2196.84,0.28931
2173.7,0.30931
2150.55,0.27729
2127.41,0.25967
2104.26,0.24802
2081.12,0.25769
2057.97,0.26216
2034.83,0.26362
2011.68,0.26072
1988.54,0.23727
1965.39,0.17996
1942.25,0.16999
1919.1,0.25361
1895.96,0.24600
1872.81,0.22881
1849.67,0.17824
1826.52,0.10858
1803.38,0.09734
1780.23,0.07583
1757.09,0.03827
1733.94,0.01677
1710.8,0.03143
1687.65,0.04272
1664.51,0.07413
1641.36,0.11197
1618.22,0.11203
1595.07,0.13949
1571.93,0.09104
1548.78,0.13536
1525.64,0.09324
1502.49,0.03665
1479.35,0.05017
1456.2,0.03243
1433.06,0.05054
1409.91,0.01822
1386.77,0.02343
1363.62,0.02715
1340.48,0.02740
1317.33,0.01665
1294.19,0.01761
1271.04,0.03930
1247.9,0.03801
1224.75,0.03599
1201.61,0.06498
1178.46,0.05290
1155.32,0.03378
1132.17,0.02050
1109.03,0.02504
1085.88,0.02885
1062.74,0.06543
1039.59,0.03114
1016.45,0.03182
993.304,0.11592
970.159,0.07531
947.014,0.06103
923.869,0.08732
900.724,0.09307
877.579,0.04287
854.434,0.07090
831.289,0.10618
808.144,0.11147
784.999,0.13357
761.854,0.12782
738.709,0.02356
715.565,0.08740
692.42,0.18703
669.275,0.20125
646.13,0.22005
622.985,0.23132
599.84,0.24130

File: Triexta_Carpet_High_Pile_IS_S_221121_R6.dpt
7497.03,0.84437
7473.89,0.84254
7450.74,0.83752
7427.6,0.82657
7404.45,0.83136
7381.31,0.81536
7358.16,0.80890
7335.02,0.78678
7311.87,0.78778
7288.73,0.80215
7265.58,0.80165
7242.44,0.79413
7219.29,0.77715
7196.15,0.78659
7173,0.78655
7149.86,0.77928
7126.71,0.78802
7103.57,0.78836
7080.42,0.78462
7057.28,0.77730
7034.13,0.78111
7010.99,0.78803
6987.84,0.78602
6964.7,0.79721
6941.55,0.79419
6918.41,0.80130
6895.26,0.80370
6872.12,0.80220
6848.97,0.80510
6825.83,0.81465
6802.68,0.82138
6779.54,0.82850
6756.39,0.82634
6733.25,0.82762
6710.1,0.83024
6686.96,0.83547
6663.82,0.83599
6640.67,0.83494
6617.53,0.83916
6594.38,0.84515
6571.24,0.84287
6548.09,0.84513
6524.95,0.84200
6501.8,0.84496
6478.66,0.84077
6455.51,0.84199
6432.37,0.84442
6409.22,0.83906
6386.08,0.84209
6362.93,0.84348
6339.79,0.83430
6316.64,0.83477
6293.5,0.83986
6270.35,0.83125
6247.21,0.82542
6224.06,0.81950
6200.92,0.78646
6177.77,0.78526
6154.63,0.76823
6131.48,0.75356
6108.34,0.70581
6085.19,0.62334
6062.05,0.53386
6038.9,0.48422
6015.76,0.47014
5992.61,0.54255
5969.47,0.57702
5946.32,0.55977
5923.18,0.59133
5900.03,0.61217
5876.89,0.62109
5853.74,0.63664
5830.6,0.61480
5807.45,0.57790
5784.31,0.59002
5761.16,0.62026
5738.02,0.63044
5714.87,0.65056
5691.73,0.66766
5668.58,0.67708
5645.44,0.67798
5622.29,0.70148
5599.15,0.71103
5576,0.70219
5552.86,0.69401
5529.71,0.69565
5506.57,0.70752
5483.42,0.70282
5460.28,0.70393
5437.13,0.72296
5413.99,0.73012
5390.84,0.73158
5367.7,0.73149
5344.55,0.72535
5321.41,0.73567
5298.26,0.73281
5275.12,0.72404
5251.97,0.71830
5228.83,0.72765
5205.68,0.72712
5182.54,0.72395
5159.39,0.71945
5136.25,0.70318
5113.1,0.68186
5089.96,0.67812
5066.81,0.71769
5043.67,0.72983
5020.52,0.72503
4997.38,0.72719
4974.23,0.73051
4951.09,0.72554
4927.94,0.71861
4904.8,0.71465
4881.65,0.71109
4858.51,0.70281
4835.36,0.68421
4812.22,0.64231
4789.07,0.62895
4765.93,0.65193
4742.78,0.61876
4719.64,0.51173
4696.49,0.44794
4673.35,0.47819
4650.2,0.51257
4627.06,0.48352
4603.92,0.57573
4580.77,0.51392
4557.63,0.60497
4534.48,0.60336
4511.34,0.57013
4488.19,0.46613
4465.05,0.42695
4441.9,0.34531
4418.76,0.32034
4395.61,0.35715
4372.47,0.34830
4349.32,0.34394
4326.18,0.36475
4303.03,0.37152
4279.89,0.34912
4256.74,0.34772
4233.6,0.35339
4210.45,0.34641
4187.31,0.35932
4164.16,0.37859
4141.02,0.41538
4117.87,0.37744
4094.73,0.26631
4071.58,0.31745
4048.44,0.36607
4025.29,0.38833
4002.15,0.41368
3979,0.44470
3955.86,0.43868
3932.71,0.41752
3909.57,0.42195
3886.42,0.45431
3863.28,0.48104
3840.13,0.49464
3816.99,0.48459
3793.84,0.50424
3770.7,0.49793
3747.55,0.50314
3724.41,0.50892
3701.26,0.48190
3678.12,0.46118
3654.97,0.52185
3631.83,0.48324
3608.68,0.43610
3585.54,0.35666
3562.39,0.28357
3539.25,0.27139
3516.1,0.30210
3492.96,0.32977
3469.81,0.31759
3446.67,0.23328
3423.52,0.16658
3400.38,0.24733
3377.23,0.33495
3354.09,0.32955
3330.94,0.28295
3307.8,0.31855
3284.65,0.31208
3261.51,0.32928
3238.36,0.31820
3215.22,0.31568
3192.07,0.31254
3168.93,0.30079
3145.78,0.27573
3122.64,0.23171
3099.49,0.19159
3076.35,0.16444
3053.2,0.15438
3030.06,0.20636
3006.91,0.10756
2983.77,0.03788
2960.62,0.03604
2937.48,0.07517
2914.33,0.07333
2891.19,0.08213
2868.04,0.11618
2844.9,0.15533
2821.75,0.22614
2798.61,0.25618
2775.46,0.26759
2752.32,0.30357
2729.17,0.33135
2706.03,0.35456
2682.88,0.36726
2659.74,0.36164
2636.59,0.32485
2613.45,0.32825
2590.3,0.31126
2567.16,0.29468
2544.02,0.27801
2520.87,0.29832
2497.73,0.33104
2474.58,0.35542
2451.44,0.35951
2428.29,0.29832
2405.15,0.24046
2382,0.21940
2358.86,0.26462
2335.71,0.33409
2312.57,0.35932
2289.42,0.29782
2266.28,0.30586
2243.13,0.27749
2219.99,0.27519
2196.84,0.28964
2173.7,0.30988
2150.55,0.27772
2127.41,0.26046
2104.26,0.24877
2081.12,0.25758
2057.97,0.26220
2034.83,0.26368
2011.68,0.26074
1988.54,0.23734
1965.39,0.18049
1942.25,0.17009
1919.1,0.25350
1895.96,0.24615
1872.81,0.22932
1849.67,0.17881
1826.52,0.10871
1803.38,0.09781
1780.23,0.07574
1757.09,0.03776
1733.94,0.01651
1710.8,0.03157
1687.65,0.04237
1664.51,0.07445
1641.36,0.11162
1618.22,0.11206
1595.07,0.13946
1571.93,0.09075
1548.78,0.13579
1525.64,0.09335
1502.49,0.03650
1479.35,0.05003
1456.2,0.03276
1433.06,0.05021
1409.91,0.01849
1386.77,0.02304
1363.62,0.02745
1340.48,0.02779
1317.33,0.01633
1294.19,0.01720
1271.04,0.03955
1247.9,0.03762
1224.75,0.03593
1201.61,0.06519
1178.46,0.05287
1155.32,0.03367
1132.17,0.02015
1109.03,0.02569
1085.88,0.02918
1062.74,0.06571
1039.59,0.03079
1016.45,0.03207
993.304,0.11603
970.159,0.07500
947.014,0.06079
923.869,0.08660
900.724,0.09347
877.579,0.04291
854.434,0.07183
831.289,0.10733
808.144,0.11127
784.999,0.13285
761.854,0.12706
738.709,0.02404
715.565,0.08589
692.42,0.18714
669.275,0.20181
646.13,0.22003
622.985,0.23041
599.84,0.24013

File: Triexta_Carpet_High_Pile_IS_S_221121_R7.dpt
7497.03,0.85484
7473.89,0.85113
7450.74,0.83550
7427.6,0.83509
7404.45,0.81831
7381.31,0.82402
7358.16,0.79966
7335.02,0.79121
7311.87,0.78919
7288.73,0.78716
7265.58,0.79683
7242.44,0.79022
7219.29,0.77908
7196.15,0.76812
7173,0.78838
7149.86,0.77527
7126.71,0.78163
7103.57,0.79203
7080.42,0.78158
7057.28,0.77888
7034.13,0.79035
7010.99,0.77685
6987.84,0.78670
6964.7,0.79796
6941.55,0.79777
6918.41,0.79688
6895.26,0.80826
6872.12,0.80713
6848.97,0.81402
6825.83,0.81128
6802.68,0.82245
6779.54,0.82156
6756.39,0.82630
6733.25,0.82421
6710.1,0.83410
6686.96,0.83142
6663.82,0.83346
6640.67,0.83666
6617.53,0.84333
6594.38,0.83934
6571.24,0.84340
6548.09,0.84230
6524.95,0.84090
6501.8,0.83865
6478.66,0.84069
6455.51,0.84314
6432.37,0.84214
6409.22,0.84131
6386.08,0.84723
6362.93,0.84141
6339.79,0.84089
6316.64,0.83399
6293.5,0.83443
6270.35,0.82806
6247.21,0.82642
6224.06,0.81425
6200.92,0.78450
6177.77,0.77959
6154.63,0.76816
6131.48,0.75205
6108.34,0.70475
6085.19,0.62162
6062.05,0.53333
6038.9,0.48341
6015.76,0.46949
5992.61,0.54070
5969.47,0.57459
5946.32,0.55819
5923.18,0.59099
5900.03,0.61257
5876.89,0.61896
5853.74,0.63541
5830.6,0.61515
5807.45,0.57886
5784.31,0.58838
5761.16,0.62104
5738.02,0.62845
5714.87,0.64743
5691.73,0.66687
5668.58,0.67539
5645.44,0.67759
5622.29,0.70126
5599.15,0.71081
5576,0.70099
5552.86,0.69164
5529.71,0.69313
5506.57,0.70818
5483.42,0.69953
5460.28,0.70369
5437.13,0.72279
5413.99,0.72905
5390.84,0.72802
5367.7,0.72803
5344.55,0.72512
5321.41,0.73284
5298.26,0.73206
5275.12,0.72493
5251.97,0.71937
5228.83,0.72415
5205.68,0.72256
5182.54,0.72118
5159.39,0.71614
5136.25,0.70028
5113.1,0.68021
5089.96,0.67675
5066.81,0.71622
5043.67,0.72787
5020.52,0.72454
4997.38,0.72527
4974.23,0.72910
4951.09,0.72338
4927.94,0.71790
4904.8,0.71386
4881.65,0.70812
4858.51,0.70103
4835.36,0.68208
4812.22,0.63963
4789.07,0.62752
4765.93,0.64991
4742.78,0.61608
4719.64,0.51024
4696.49,0.44750
4673.35,0.47767
4650.2,0.51118
4627.06,0.48337
4603.92,0.57426
4580.77,0.51225
4557.63,0.60193
4534.48,0.60125
4511.34,0.56861
4488.19,0.46506
4465.05,0.42538
4441.9,0.34498
4418.76,0.31947
4395.61,0.35675
4372.47,0.34719
4349.32,0.34256
4326.18,0.36416
4303.03,0.37046
4279.89,0.34808
4256.74,0.34753
4233.6,0.35224
4210.45,0.34509
4187.31,0.35812
4164.16,0.37864
4141.02,0.41415
4117.87,0.37621
4094.73,0.26617
4071.58,0.31639
4048.44,0.36491
4025.29,0.38722
4002.15,0.41292
3979,0.44342
3955.86,0.43731
3932.71,0.41649
3909.57,0.42120
3886.42,0.45374
3863.28,0.47991
3840.13,0.49348
3816.99,0.48332
3793.84,0.50339
3770.7,0.49648
3747.55,0.50197
3724.41,0.50738
3701.26,0.48012
3678.12,0.46008
3654.97,0.52013
3631.83,0.48195
3608.68,0.43418
3585.54,0.35548
3562.39,0.28328
3539.25,0.27126
3516.1,0.30131
3492.96,0.32957
3469.81,0.31840
3446.67,0.23286
3423.52,0.16619
3400.38,0.24714
3377.23,0.33460
3354.09,0.32902
3330.94,0.28165
3307.8,0.31809
3284.65,0.31086
3261.51,0.32841
3238.36,0.31780
3215.22,0.31412
3192.07,0.31158
3168.93,0.30025
3145.78,0.27497
3122.64,0.23094
3099.49,0.19139
3076.35,0.16407
3053.2,0.15391
3030.06,0.20668
3006.91,0.10743
2983.77,0.03807
2960.62,0.03583
2937.48,0.07470
2914.33,0.07325
2891.19,0.08286
2868.04,0.11559
2844.9,0.15436
2821.75,0.22528
2798.61,0.25653
2775.46,0.26692
2752.32,0.30284
2729.17,0.33109
2706.03,0.35338
2682.88,0.36639
2659.74,0.36012
2636.59,0.32393
2613.45,0.32769
2590.3,0.31048
2567.16,0.29408
2544.02,0.27750
2520.87,0.29722
2497.73,0.33071
2474.58,0.35488
2451.44,0.35870
2428.29,0.29800
2405.15,0.24031
2382,0.21825
2358.86,0.26439
2335.71,0.33356
2312.57,0.35861
2289.42,0.29718
2266.28,0.30493
2243.13,0.27701
2219.99,0.27491
2196.84,0.28899
2173.7,0.30890
2150.55,0.27708
2127.41,0.25962
2104.26,0.24817
2081.12,0.25713
2057.97,0.26166
2034.83,0.26291
2011.68,0.26025
1988.54,0.23680
1965.39,0.18002
1942.25,0.16977
1919.1,0.25307
1895.96,0.24560
1872.81,0.22844
1849.67,0.17806
1826.52,0.10806
1803.38,0.09771
1780.23,0.07532
1757.09,0.03834
1733.94,0.01710
1710.8,0.03158
1687.65,0.04273
1664.51,0.07401
1641.36,0.11164
1618.22,0.11195
1595.07,0.13967
1571.93,0.09090
1548.78,0.13501
1525.64,0.09338
1502.49,0.03684
1479.35,0.05038
1456.2,0.03260
1433.06,0.05070
1409.91,0.01822
1386.77,0.02326
1363.62,0.02717
1340.48,0.02792
1317.33,0.01621
1294.19,0.01695
1271.04,0.03952
1247.9,0.03734
1224.75,0.03635
1201.61,0.06547
1178.46,0.05352
1155.32,0.03364
1132.17,0.02120
1109.03,0.02614
1085.88,0.02937
1062.74,0.06583
1039.59,0.03110
1016.45,0.03250
993.304,0.11656
970.159,0.07515
947.014,0.06108
923.869,0.08773
900.724,0.09343
877.579,0.04312
854.434,0.07141
831.289,0.10665
808.144,0.11200
784.999,0.13297
761.854,0.12721
738.709,0.02446
715.565,0.08637
692.42,0.18702
669.275,0.20275
646.13,0.21874
622.985,0.23065
599.84,0.24077

File: Triexta_Carpet_High_Pile_IS_S_221121_R8.dpt
7497.03,0.83556
7473.89,0.83815
7450.74,0.83644
7427.6,0.82767
7404.45,0.81896
7381.31,0.81794
7358.16,0.80428
7335.02,0.79604
7311.87,0.79831
7288.73,0.80020
7265.58,0.80232
7242.44,0.78842
7219.29,0.77449
7196.15,0.78839
7173,0.78165
7149.86,0.78823
7126.71,0.78939
7103.57,0.78034
7080.42,0.77966
7057.28,0.77408
7034.13,0.77651
7010.99,0.77423
6987.84,0.78395
6964.7,0.79834
6941.55,0.80253
6918.41,0.79596
6895.26,0.80103
6872.12,0.80298
6848.97,0.80916
6825.83,0.81602
6802.68,0.83002
6779.54,0.82567
6756.39,0.82607
6733.25,0.82773
6710.1,0.83573
6686.96,0.83077
6663.82,0.83800
6640.67,0.83578
6617.53,0.84111
6594.38,0.84288
6571.24,0.83964
6548.09,0.84350
6524.95,0.84213
6501.8,0.84452
6478.66,0.84115
6455.51,0.84559
6432.37,0.83769
6409.22,0.84385
6386.08,0.83936
6362.93,0.84088
6339.79,0.83834
6316.64,0.83669
6293.5,0.83400
6270.35,0.82924
6247.21,0.82252
6224.06,0.81886
6200.92,0.78308
6177.77,0.78336
6154.63,0.76891
6131.48,0.75425
6108.34,0.70529
6085.19,0.61840
6062.05,0.53141
6038.9,0.48195
6015.76,0.47403
5992.61,0.54406
5969.47,0.57873
5946.32,0.55875
5923.18,0.58947
5900.03,0.61494
5876.89,0.62077
5853.74,0.63720
5830.6,0.61746
5807.45,0.57696
5784.31,0.58972
5761.16,0.61800
5738.02,0.63063
5714.87,0.64895
5691.73,0.66498
5668.58,0.67636
5645.44,0.67643
5622.29,0.70190
5599.15,0.70943
5576,0.69862
5552.86,0.69067
5529.71,0.69561
5506.57,0.70499
5483.42,0.70036
5460.28,0.70553
5437.13,0.72454
5413.99,0.72881
5390.84,0.73135
5367.7,0.73065
5344.55,0.72557
5321.41,0.73559
5298.26,0.73475
5275.12,0.72424
5251.97,0.72018
5228.83,0.72519
5205.68,0.72337
5182.54,0.72271
5159.39,0.71702
5136.25,0.70186
5113.1,0.68037
5089.96,0.67929
5066.81,0.71849
5043.67,0.72938
5020.52,0.72609
4997.38,0.72592
4974.23,0.73013
4951.09,0.72561
4927.94,0.71884
4904.8,0.71608
4881.65,0.71073
4858.51,0.70300
4835.36,0.68323
4812.22,0.64004
4789.07,0.62746
4765.93,0.65106
4742.78,0.61831
4719.64,0.51088
4696.49,0.44780
4673.35,0.47788
4650.2,0.51232
4627.06,0.48455
4603.92,0.57323
4580.77,0.51365
4557.63,0.60310
4534.48,0.60142
4511.34,0.56869
4488.19,0.46545
4465.05,0.42664
4441.9,0.34493
4418.76,0.31952
4395.61,0.35660
4372.47,0.34805
4349.32,0.34345
4326.18,0.36485
4303.03,0.37040
4279.89,0.34894
4256.74,0.34661
4233.6,0.35261
4210.45,0.34678
4187.31,0.35913
4164.16,0.37887
4141.02,0.41512
4117.87,0.37697
4094.73,0.26643
4071.58,0.31707
4048.44,0.36637
4025.29,0.38849
4002.15,0.41349
3979,0.44426
3955.86,0.43877
3932.71,0.41727
3909.57,0.42229
3886.42,0.45460
3863.28,0.48131
3840.13,0.49431
3816.99,0.48407
3793.84,0.50361
3770.7,0.49769
3747.55,0.50215
3724.41,0.50799
3701.26,0.48111
3678.12,0.46154
3654.97,0.52248
3631.83,0.48381
3608.68,0.43590
3585.54,0.35657
3562.39,0.28370
3539.25,0.27212
3516.1,0.30178
3492.96,0.32966
3469.81,0.31860
3446.67,0.23294
3423.52,0.16654
3400.38,0.24792
3377.23,0.33520
3354.09,0.33002
3330.94,0.28291
3307.8,0.31773
3284.65,0.31141
3261.51,0.32843
3238.36,0.31859
3215.22,0.31567
3192.07,0.31266
3168.93,0.30067
3145.78,0.27524
3122.64,0.23133
3099.49,0.19166
3076.35,0.16404
3053.2,0.15444
3030.06,0.20666
3006.91,0.10755
2983.77,0.03803
2960.62,0.03581
2937.48,0.07524
2914.33,0.07341
2891.19,0.08260
2868.04,0.11578
2844.9,0.15509
2821.75,0.22543
2798.61,0.25638
2775.46,0.26739
2752.32,0.30338
2729.17,0.33165
2706.03,0.35431
2682.88,0.36736
2659.74,0.36109
2636.59,0.32540
2613.45,0.32825
2590.3,0.31108
2567.16,0.29407
2544.02,0.27774
2520.87,0.29777
2497.73,0.33084
2474.58,0.35528
2451.44,0.35927
2428.29,0.29829
2405.15,0.24071
2382,0.21907
2358.86,0.26477
2335.71,0.33404
2312.57,0.35898
2289.42,0.29799
2266.28,0.30604
2243.13,0.27743
2219.99,0.27488
2196.84,0.28934
2173.7,0.30974
2150.55,0.27743
2127.41,0.26013
2104.26,0.24846
2081.12,0.25791
2057.97,0.26213
2034.83,0.26282
2011.68,0.26089
1988.54,0.23716
1965.39,0.18015
1942.25,0.16966
1919.1,0.25348
1895.96,0.24583
1872.81,0.22886
1849.67,0.17834
1826.52,0.10822
1803.38,0.09758
1780.23,0.07571
1757.09,0.03765
1733.94,0.01678
1710.8,0.03184
1687.65,0.04279
1664.51,0.07442
1641.36,0.11197
1618.22,0.11240
1595.07,0.13954
1571.93,0.09098
1548.78,0.13535
1525.64,0.09316
1502.49,0.03695
1479.35,0.04999
1456.2,0.03279
1433.06,0.05060
1409.91,0.01832
1386.77,0.02318
1363.62,0.02693
1340.48,0.02750
1317.33,0.01657
1294.19,0.01719
1271.04,0.03950
1247.9,0.03752
1224.75,0.03652
1201.61,0.06501
1178.46,0.05276
1155.32,0.03340
1132.17,0.02090
1109.03,0.02591
1085.88,0.02915
1062.74,0.06541
1039.59,0.03094
1016.45,0.03220
993.304,0.11643
970.159,0.07482
947.014,0.06109
923.869,0.08768
900.724,0.09279
877.579,0.04378
854.434,0.07154
831.289,0.10691
808.144,0.11176
784.999,0.13415
761.854,0.12715
738.709,0.02387
715.565,0.08600
692.42,0.18856
669.275,0.20179
646.13,0.22174
622.985,0.23305
599.84,0.24140

File: Triexta_Carpet_High_Pile_IS_T_221121_R4.dpt
7497.03,0.01739
7473.89,0.02747
7450.74,0.01637
7427.6,0.02216
7404.45,0.02754
7381.31,0.02277
7358.16,0.02098
7335.02,0.03221
7311.87,0.02571
7288.73,0.02835
7265.58,0.02973
7242.44,0.02810
7219.29,0.02448
7196.15,0.01615
7173,0.02699
7149.86,0.02602
7126.71,0.02294
7103.57,0.02452
7080.42,0.02216
7057.28,0.02722
7034.13,0.02628
7010.99,0.02338
6987.84,0.02477
6964.7,0.02444
6941.55,0.02124
6918.41,0.02525
6895.26,0.02033
6872.12,0.03145
6848.97,0.01833
6825.83,0.02324
6802.68,0.02058
6779.54,0.02719
6756.39,0.02224
6733.25,0.02435
6710.1,0.03074
6686.96,0.02417
6663.82,0.01737
6640.67,0.02015
6617.53,0.02125
6594.38,0.02038
6571.24,0.02410
6548.09,0.01953
6524.95,0.02423
6501.8,0.02016
6478.66,0.02182
6455.51,0.02037
6432.37,0.02332
6409.22,0.02239
6386.08,0.02084
6362.93,0.01771
6339.79,0.02607
6316.64,0.02467
6293.5,0.02029
6270.35,0.02337
6247.21,0.02495
6224.06,0.02041
6200.92,0.01856
6177.77,0.02487
6154.63,0.02200
6131.48,0.02551
6108.34,0.02078
6085.19,0.02231
6062.05,0.02029
6038.9,0.02172
6015.76,0.02301
5992.61,0.02075
5969.47,0.02025
5946.32,0.01905
5923.18,0.02145
5900.03,0.02083
5876.89,0.01935
5853.74,0.02230
5830.6,0.01964
5807.45,0.02478
5784.31,0.02033
5761.16,0.02219
5738.02,0.02178
5714.87,0.02068
5691.73,0.02033
5668.58,0.02127
5645.44,0.02264
5622.29,0.02224
5599.15,0.02346
5576,0.02262
5552.86,0.02088
5529.71,0.02098
5506.57,0.02155
5483.42,0.02135
5460.28,0.02176
5437.13,0.02195
5413.99,0.02274
5390.84,0.02076
5367.7,0.02114
5344.55,0.02071
5321.41,0.02124
5298.26,0.02111
5275.12,0.02291
5251.97,0.02110
5228.83,0.02110
5205.68,0.02352
5182.54,0.02159
5159.39,0.02229
5136.25,0.02201
5113.1,0.02065
5089.96,0.02196
5066.81,0.02273
5043.67,0.02227
5020.52,0.02187
4997.38,0.02138
4974.23,0.02222
4951.09,0.02235
4927.94,0.02173
4904.8,0.02037
4881.65,0.02232
4858.51,0.02134
4835.36,0.02174
4812.22,0.02239
4789.07,0.02209
4765.93,0.02240
4742.78,0.02225
4719.64,0.02294
4696.49,0.02188
4673.35,0.02185
4650.2,0.02152
4627.06,0.02231
4603.92,0.02166
4580.77,0.02195
4557.63,0.02139
4534.48,0.02133
4511.34,0.02098
4488.19,0.02236
4465.05,0.02305
4441.9,0.02120
4418.76,0.02209
4395.61,0.02245
4372.47,0.02299
4349.32,0.02244
4326.18,0.02163
4303.03,0.02257
4279.89,0.02243
4256.74,0.02196
4233.6,0.02193
4210.45,0.02206
4187.31,0.02234
4164.16,0.02202
4141.02,0.02268
4117.87,0.02244
4094.73,0.02265
4071.58,0.02228
4048.44,0.02202
4025.29,0.02224
4002.15,0.02266
3979,0.02215
3955.86,0.02162
3932.71,0.02285
3909.57,0.02230
3886.42,0.02242
3863.28,0.02242
3840.13,0.02276
3816.99,0.02251
3793.84,0.02208
3770.7,0.02244
3747.55,0.02154
3724.41,0.02251
3701.26,0.02266
3678.12,0.02242
3654.97,0.02180
3631.83,0.02231
3608.68,0.02142
3585.54,0.02148
3562.39,0.02121
3539.25,0.02121
3516.1,0.02023
3492.96,0.02086
3469.81,0.02055
3446.67,0.02112
3423.52,0.02086
3400.38,0.02051
3377.23,0.02056
3354.09,0.02027
3330.94,0.01996
3307.8,0.02057
3284.65,0.02025
3261.51,0.02015
3238.36,0.02001
3215.22,0.02027
3192.07,0.02104
3168.93,0.02042
3145.78,0.02104
3122.64,0.02080
3099.49,0.02083
3076.35,0.01999
3053.2,0.02045
3030.06,0.02093
3006.91,0.02056
2983.77,0.01993
2960.62,0.01984
2937.48,0.01986
2914.33,0.02023
2891.19,0.02019
2868.04,0.02029
2844.9,0.02124
2821.75,0.02115
2798.61,0.02122
2775.46,0.02115
2752.32,0.02115
2729.17,0.02096
2706.03,0.02102
2682.88,0.02149
2659.74,0.02145
2636.59,0.02121
2613.45,0.02123
2590.3,0.02170
2567.16,0.02125
2544.02,0.02128
2520.87,0.02094
2497.73,0.02163
2474.58,0.02137
2451.44,0.02111
2428.29,0.02123
2405.15,0.02117
2382,0.02144
2358.86,0.02131
2335.71,0.02121
2312.57,0.02101
2289.42,0.02115
2266.28,0.02112
2243.13,0.02079
2219.99,0.02128
2196.84,0.02104
2173.7,0.02116
2150.55,0.02112
2127.41,0.02081
2104.26,0.02101
2081.12,0.02088
2057.97,0.02073
2034.83,0.02116
2011.68,0.02091
1988.54,0.02097
1965.39,0.02136
1942.25,0.02080
1919.1,0.02077
1895.96,0.02084
1872.81,0.02063
1849.67,0.02065
1826.52,0.02037
1803.38,0.01999
1780.23,0.01921
1757.09,0.01772
1733.94,0.01978
1710.8,0.02056
1687.65,0.01935
1664.51,0.01832
1641.36,0.01870
1618.22,0.01942
1595.07,0.01878
1571.93,0.01822
1548.78,0.01802
1525.64,0.01876
1502.49,0.01843
1479.35,0.01835
1456.2,0.01880
1433.06,0.01936
1409.91,0.01882
1386.77,0.01823
1363.62,0.01826
1340.48,0.01794
1317.33,0.01741
1294.19,0.01812
1271.04,0.01951
1247.9,0.02020
1224.75,0.01947
1201.61,0.01857
1178.46,0.01815
1155.32,0.01771
1132.17,0.01819
1109.03,0.01863
1085.88,0.01783
1062.74,0.02017
1039.59,0.01942
1016.45,0.01909
993.304,0.02140
970.159,0.02021
947.014,0.01972
923.869,0.01956
900.724,0.01923
877.579,0.01949
854.434,0.01884
831.289,0.01950
808.144,0.01893
784.999,0.01905
761.854,0.01863
738.709,0.01886
715.565,0.01761
692.42,0.01887
669.275,0.01757
646.13,0.01720
622.985,0.01722
599.84,0.01605