Folder: fsri_materials_database/01_Data/Triexta_Carpet_High_Pile/FTIR/IS (part 3)

File: Triexta_Carpet_High_Pile_IS_T_221121_R5.dpt
7497.03,0.01886
7473.89,0.02154
7450.74,0.01168
7427.6,0.03326
7404.45,0.03111
7381.31,0.02713
7358.16,0.02514
7335.02,0.02701
7311.87,0.02668
7288.73,0.02886
7265.58,0.02172
7242.44,0.02704
7219.29,0.02455
7196.15,0.02748
7173,0.01693
7149.86,0.02615
7126.71,0.02417
7103.57,0.02518
7080.42,0.02792
7057.28,0.02351
7034.13,0.02954
7010.99,0.02792
6987.84,0.02506
6964.7,0.02476
6941.55,0.02356
6918.41,0.02270
6895.26,0.02132
6872.12,0.02188
6848.97,0.01937
6825.83,0.02812
6802.68,0.02548
6779.54,0.02534
6756.39,0.02359
6733.25,0.02578
6710.1,0.02200
6686.96,0.02131
6663.82,0.02391
6640.67,0.02202
6617.53,0.02113
6594.38,0.02194
6571.24,0.02018
6548.09,0.02254
6524.95,0.02130
6501.8,0.02329
6478.66,0.02456
6455.51,0.02363
6432.37,0.02206
6409.22,0.02530
6386.08,0.02140
6362.93,0.02205
6339.79,0.01938
6316.64,0.02020
6293.5,0.02164
6270.35,0.02371
6247.21,0.01967
6224.06,0.02159
6200.92,0.02443
6177.77,0.01934
6154.63,0.01938
6131.48,0.01809
6108.34,0.02050
6085.19,0.02190
6062.05,0.02330
6038.9,0.02438
6015.76,0.02030
5992.61,0.02359
5969.47,0.01971
5946.32,0.02089
5923.18,0.02033
5900.03,0.02205
5876.89,0.02037
5853.74,0.02155
5830.6,0.02420
5807.45,0.02257
5784.31,0.02036
5761.16,0.02210
5738.02,0.02097
5714.87,0.02282
5691.73,0.02112
5668.58,0.01899
5645.44,0.02286
5622.29,0.02072
5599.15,0.02307
5576,0.02268
5552.86,0.02064
5529.71,0.02099
5506.57,0.02020
5483.42,0.02097
5460.28,0.02074
5437.13,0.02140
5413.99,0.02196
5390.84,0.02317
5367.7,0.02137
5344.55,0.02136
5321.41,0.02100
5298.26,0.02071
5275.12,0.02213
5251.97,0.02232
5228.83,0.02250
5205.68,0.02164
5182.54,0.02221
5159.39,0.02295
5136.25,0.02248
5113.1,0.02234
5089.96,0.02127
5066.81,0.02152
5043.67,0.02256
5020.52,0.02106
4997.38,0.02184
4974.23,0.02169
4951.09,0.02242
4927.94,0.02107
4904.8,0.02192
4881.65,0.02187
4858.51,0.02156
4835.36,0.02103
4812.22,0.02165
4789.07,0.02195
4765.93,0.02192
4742.78,0.02135
4719.64,0.02128
4696.49,0.02180
4673.35,0.02170
4650.2,0.02268
4627.06,0.02176
4603.92,0.02229
4580.77,0.02163
4557.63,0.02239
4534.48,0.02226
4511.34,0.02265
4488.19,0.02209
4465.05,0.02181
4441.9,0.02143
4418.76,0.02119
4395.61,0.02256
4372.47,0.02175
4349.32,0.02214
4326.18,0.02242
4303.03,0.02286
4279.89,0.02168
4256.74,0.02201
4233.6,0.02226
4210.45,0.02215
4187.31,0.02262
4164.16,0.02217
4141.02,0.02218
4117.87,0.02278
4094.73,0.02274
4071.58,0.02198
4048.44,0.02191
4025.29,0.02246
4002.15,0.02211
3979,0.02226
3955.86,0.02215
3932.71,0.02223
3909.57,0.02293
3886.42,0.02238
3863.28,0.02317
3840.13,0.02266
3816.99,0.02287
3793.84,0.02240
3770.7,0.02261
3747.55,0.02239
3724.41,0.02274
3701.26,0.02302
3678.12,0.02285
3654.97,0.02243
3631.83,0.02248
3608.68,0.02200
3585.54,0.02164
3562.39,0.02084
3539.25,0.02122
3516.1,0.02024
3492.96,0.02091
3469.81,0.02062
3446.67,0.02095
3423.52,0.02016
3400.38,0.02015
3377.23,0.02005
3354.09,0.02098
3330.94,0.01989
3307.8,0.02078
3284.65,0.02011
3261.51,0.02103
3238.36,0.02080
3215.22,0.02074
3192.07,0.02085
3168.93,0.02136
3145.78,0.02071
3122.64,0.02039
3099.49,0.02100
3076.35,0.02011
3053.2,0.02023
3030.06,0.02085
3006.91,0.02055
2983.77,0.02026
2960.62,0.01924
2937.48,0.01991
2914.33,0.02038
2891.19,0.02067
2868.04,0.02053
2844.9,0.02106
2821.75,0.02138
2798.61,0.02128
2775.46,0.02115
2752.32,0.02094
2729.17,0.02121
2706.03,0.02112
2682.88,0.02143
2659.74,0.02119
2636.59,0.02123
2613.45,0.02134
2590.3,0.02110
2567.16,0.02113
2544.02,0.02107
2520.87,0.02094
2497.73,0.02116
2474.58,0.02112
2451.44,0.02106
2428.29,0.02144
2405.15,0.02098
2382,0.02131
2358.86,0.02178
2335.71,0.02120
2312.57,0.02102
2289.42,0.02095
2266.28,0.02116
2243.13,0.02090
2219.99,0.02128
2196.84,0.02107
2173.7,0.02134
2150.55,0.02110
2127.41,0.02134
2104.26,0.02132
2081.12,0.02108
2057.97,0.02102
2034.83,0.02072
2011.68,0.02085
1988.54,0.02063
1965.39,0.02135
1942.25,0.02067
1919.1,0.02082
1895.96,0.02073
1872.81,0.02058
1849.67,0.02061
1826.52,0.01991
1803.38,0.02001
1780.23,0.01933
1757.09,0.01776
1733.94,0.01988
1710.8,0.02051
1687.65,0.01911
1664.51,0.01894
1641.36,0.01878
1618.22,0.01908
1595.07,0.01899
1571.93,0.01825
1548.78,0.01827
1525.64,0.01872
1502.49,0.01844
1479.35,0.01860
1456.2,0.01890
1433.06,0.01875
1409.91,0.01865
1386.77,0.01800
1363.62,0.01815
1340.48,0.01790
1317.33,0.01726
1294.19,0.01829
1271.04,0.01933
1247.9,0.02056
1224.75,0.01949
1201.61,0.01863
1178.46,0.01823
1155.32,0.01785
1132.17,0.01801
1109.03,0.01856
1085.88,0.01825
1062.74,0.01885
1039.59,0.01966
1016.45,0.01943
993.304,0.02092
970.159,0.02034
947.014,0.01955
923.869,0.01930
900.724,0.01903
877.579,0.01998
854.434,0.01896
831.289,0.01856
808.144,0.01890
784.999,0.01907
761.854,0.01826
738.709,0.01793
715.565,0.01836
692.42,0.01843
669.275,0.01831
646.13,0.01686
622.985,0.01821
599.84,0.01635