Folder: fsri_materials_database/01_Data/Bamboo_Rug_Bamboo/MCC (part 2)

File: Bamboo_Rug_Bamboo_MCC_30K_min_211124_R3.txt
Sample ID:	C:\MCC\MCC Cal\Test\Bamboo_RugA_MCC_30K_min_211124_R3.txt
Sample Weight (mg):	4.83
Heating Rate (C/s):	0.5
Combustor Temp (C):	900
N2 Flow Rate (cc/min):	80
O2 Flow Rate (cc/min):	20
Calibration File:	C:\MCC\MCC Cal\Coeff1 JN10440_30_210304.txt.txt
T Correction Coefficients:	0	1.024463	0
Time Shift (s):	14
*
Time (s)	Temperature (C)	N2 flow rate (cc/min)	O2 flow rate (cc/min)	Flow Rate (cc/min)	Oxygen (%)	HRR (W/g)	Heating rate (C/s)
-0.001	110.532	80.009	19.994	103.127	19.971	-0.207	0.033
8.000	110.554	80.009	19.996	103.167	19.965	0.198	-0.003
16.000	110.683	80.010	19.994	103.217	19.956	0.806	0.039
23.999	111.133	80.011	19.994	103.265	19.946	1.509	0.076
32.000	111.890	80.009	19.995	103.305	19.933	2.375	0.118
40.000	113.121	80.008	19.997	103.341	19.931	2.507	0.186
47.999	114.763	80.008	19.993	103.351	19.930	2.556	0.215
55.999	116.713	80.009	19.995	103.342	19.929	2.615	0.245
63.999	118.979	80.008	19.994	103.365	19.924	2.954	0.308
71.999	121.513	80.008	19.995	103.375	19.923	3.012	0.340
79.999	124.317	80.010	19.995	103.377	19.921	3.166	0.366
87.999	127.239	80.010	19.994	103.396	19.918	3.369	0.374
95.999	130.540	80.009	19.995	103.388	19.917	3.442	0.451
103.999	133.912	80.010	19.996	103.393	19.914	3.641	0.428
111.999	137.514	80.010	19.994	103.389	19.916	3.475	0.470
119.999	141.161	80.007	19.996	103.383	19.919	3.299	0.445
127.999	145.031	80.007	19.995	103.391	19.919	3.272	0.502
135.999	148.898	80.007	19.996	103.390	19.914	3.594	0.496
143.999	152.862	80.009	19.994	103.370	19.918	3.343	0.481
151.999	156.784	80.008	19.994	103.371	19.914	3.599	0.484
159.999	160.778	80.009	19.995	103.378	19.916	3.467	0.477
167.999	164.847	80.012	19.994	103.361	19.917	3.446	0.505
175.999	168.897	80.008	19.994	103.360	19.916	3.484	0.520
183.999	172.899	80.010	19.993	103.361	19.913	3.656	0.518
192.000	176.867	80.009	19.995	103.357	19.913	3.680	0.475
199.999	180.837	80.005	19.995	103.349	19.911	3.823	0.512
207.999	184.826	80.008	19.995	103.348	19.908	4.012	0.493
215.999	188.827	80.007	19.996	103.336	19.905	4.219	0.489
223.999	192.802	80.009	19.996	103.328	19.902	4.390	0.519
231.999	196.684	80.009	19.996	103.330	19.897	4.719	0.474
239.999	200.618	80.009	19.994	103.333	19.897	4.745	0.466
248.000	204.675	80.011	19.994	103.331	19.890	5.230	0.513
255.999	208.598	80.010	19.994	103.346	19.885	5.527	0.478
263.999	212.549	80.009	19.994	103.333	19.878	6.018	0.508
272.000	216.535	80.011	19.994	103.326	19.869	6.593	0.494
279.999	220.445	80.008	19.996	103.330	19.866	6.798	0.497
287.999	224.399	80.007	19.995	103.338	19.859	7.310	0.498
295.999	228.407	80.008	19.996	103.335	19.853	7.710	0.515
303.999	232.425	80.007	19.995	103.338	19.847	8.096	0.525
311.999	236.372	80.009	19.995	103.341	19.833	9.011	0.477
319.999	240.337	80.007	19.996	103.355	19.824	9.642	0.486
328.000	244.330	80.009	19.995	103.360	19.808	10.692	0.460
335.999	248.284	80.010	19.994	103.359	19.788	12.027	0.484
343.999	252.351	80.011	19.994	103.360	19.767	13.441	0.493
351.999	256.325	80.006	19.994	103.365	19.741	15.152	0.499
359.999	260.295	80.011	19.994	103.381	19.716	16.873	0.479
367.999	264.272	80.008	19.993	103.394	19.686	18.879	0.492
375.999	268.324	80.007	19.994	103.404	19.655	20.900	0.506
383.999	272.341	80.010	19.995	103.417	19.617	23.488	0.504
391.999	276.371	80.008	19.995	103.432	19.584	25.673	0.514
400.000	280.381	80.009	19.994	103.435	19.551	27.858	0.508
407.999	284.370	80.009	19.995	103.439	19.514	30.324	0.510
415.999	288.440	80.009	19.995	103.441	19.476	32.893	0.508
423.999	292.479	80.010	19.995	103.469	19.447	34.854	0.457
431.999	296.508	80.009	19.995	103.474	19.420	36.640	0.468
439.999	300.544	80.011	19.994	103.478	19.393	38.469	0.503
447.999	304.628	80.009	19.995	103.475	19.371	39.892	0.517
455.999	308.604	80.009	19.994	103.482	19.352	41.179	0.501
463.999	312.672	80.007	19.994	103.484	19.338	42.128	0.515
471.999	316.739	80.011	19.993	103.477	19.327	42.833	0.494
479.999	320.760	80.006	19.995	103.480	19.316	43.595	0.473
487.999	324.834	80.008	19.995	103.492	19.302	44.521	0.522
495.999	328.844	80.009	19.995	103.496	19.283	45.843	0.481
503.999	332.960	80.010	19.995	103.516	19.248	48.186	0.547
511.999	336.991	80.009	19.997	103.524	19.201	51.363	0.521
519.999	341.095	80.011	19.994	103.571	19.142	55.332	0.519
527.999	345.113	80.008	19.994	103.597	19.049	61.559	0.510
535.999	349.141	80.009	19.993	103.634	18.933	69.300	0.495
543.999	353.268	80.007	19.994	103.672	18.820	76.842	0.561
552.000	357.240	80.009	19.995	103.670	18.742	82.029	0.500
560.000	361.489	80.009	19.994	103.589	18.780	79.396	0.550
568.000	365.363	80.005	19.994	103.449	18.965	67.007	0.578
575.999	369.365	80.008	19.994	103.362	19.242	48.440	0.544
584.000	373.424	80.009	19.995	103.318	19.492	31.772	0.507
591.999	377.490	80.009	19.994	103.288	19.661	20.490	0.470
600.000	381.552	80.009	19.996	103.281	19.749	14.599	0.507
608.000	385.517	80.010	19.994	103.276	19.792	11.735	0.508
616.000	389.467	80.008	19.994	103.277	19.819	9.949	0.447
623.999	393.512	80.006	19.994	103.275	19.834	8.934	0.500
631.999	397.566	80.010	19.994	103.270	19.843	8.334	0.478
640.000	401.555	80.009	19.995	103.278	19.852	7.746	0.465
647.999	405.612	80.009	19.995	103.282	19.859	7.301	0.484
656.000	409.595	80.009	19.993	103.264	19.860	7.229	0.469
663.999	413.680	80.011	19.994	103.269	19.865	6.899	0.490
671.999	417.732	80.008	19.996	103.248	19.870	6.529	0.521
679.999	421.729	80.010	19.995	103.251	19.873	6.327	0.479
687.999	425.855	80.011	19.994	103.259	19.882	5.767	0.516
696.000	429.883	80.009	19.995	103.266	19.880	5.912	0.507
703.999	433.969	80.008	19.995	103.252	19.883	5.664	0.504
712.000	437.991	80.008	19.995	103.249	19.892	5.090	0.493
719.999	442.022	80.008	19.994	103.248	19.899	4.627	0.499
728.000	446.043	80.008	19.994	103.250	19.902	4.390	0.471
735.999	450.128	80.008	19.995	103.245	19.907	4.097	0.541
743.999	454.141	80.010	19.994	103.247	19.908	4.001	0.491
752.000	458.263	80.010	19.994	103.240	19.919	3.312	0.505
759.999	462.374	80.009	19.995	103.241	19.916	3.456	0.527
768.000	466.358	80.011	19.994	103.240	19.921	3.163	0.472
776.000	470.434	80.009	19.994	103.244	19.925	2.909	0.517
783.999	474.576	80.008	19.994	103.245	19.924	2.913	0.530
791.999	478.586	80.006	19.996	103.242	19.927	2.762	0.480
800.000	482.678	80.009	19.995	103.239	19.931	2.479	0.536
808.000	486.784	80.009	19.995	103.234	19.934	2.272	0.524
815.999	490.915	80.008	19.994	103.235	19.938	2.006	0.516
823.999	494.984	80.009	19.994	103.238	19.937	2.078	0.539
832.000	499.062	80.009	19.995	103.238	19.940	1.905	0.487
840.000	503.149	80.011	19.998	103.233	19.941	1.806	0.513
847.999	507.188	80.011	19.994	103.221	19.939	1.952	0.523
856.000	511.232	80.010	19.995	103.211	19.941	1.835	0.520
864.000	515.255	80.009	19.995	103.219	19.945	1.527	0.519
872.000	519.284	80.009	19.996	103.225	19.943	1.646	0.539
879.999	523.365	80.010	19.997	103.220	19.945	1.520	0.481
887.999	527.328	80.008	19.996	103.215	19.946	1.498	0.516
895.999	531.233	80.008	19.995	103.222	19.942	1.741	0.491
903.999	535.227	80.008	19.994	103.213	19.950	1.211	0.517
911.999	539.127	80.008	19.994	103.222	19.944	1.594	0.502
920.000	543.161	80.009	19.994	103.220	19.949	1.274	0.510
928.000	547.207	80.011	19.995	103.212	19.946	1.451	0.555
935.999	551.332	80.010	19.993	103.229	19.944	1.595	0.520
944.000	555.635	80.008	19.994	103.219	19.949	1.261	0.544
952.000	559.990	80.008	19.995	103.208	19.952	1.059	0.551
959.999	564.422	80.007	19.994	103.236	19.945	1.565	0.593
967.999	568.678	80.008	19.995	103.215	19.945	1.545	0.519
975.999	572.945	80.006	19.996	103.207	19.946	1.469	0.558
983.999	577.097	80.008	19.997	103.208	19.952	1.110	0.496
991.999	581.248	80.009	19.995	103.215	19.951	1.146	0.503
999.999	585.454	80.009	19.994	103.203	19.953	1.018	0.546
1007.999	589.591	80.011	19.996	103.221	19.953	0.980	0.505
1015.999	593.712	80.012	19.994	103.208	19.952	1.059	0.497
1023.999	597.832	80.009	19.994	103.213	19.949	1.282	0.536
1031.999	601.959	80.009	19.994	103.207	19.951	1.137	0.517
1039.999	606.016	80.008	19.995	103.213	19.953	1.002	0.506
1048.000	610.138	80.009	19.995	103.214	19.955	0.847	0.516
1055.999	614.178	80.007	19.996	103.204	19.952	1.097	0.495
1064.000	618.245	80.008	19.995	103.203	19.957	0.719	0.504
1072.000	622.273	80.009	19.995	103.207	19.953	1.022	0.495
1079.999	626.346	80.008	19.996	103.207	19.950	1.180	0.504
1087.999	630.390	80.010	19.994	103.212	19.945	1.531	0.512
1095.999	634.417	80.012	19.993	103.218	19.951	1.167	0.512
1104.000	638.524	80.009	19.996	103.213	19.949	1.291	0.519
1111.999	642.556	80.008	19.994	103.209	19.951	1.162	0.521
1119.999	646.561	80.009	19.994	103.209	19.948	1.351	0.524
1127.999	650.622	80.009	19.994	103.205	19.953	1.014	0.482
1136.000	654.697	80.008	19.996	103.203	19.955	0.870	0.490
1144.000	658.559	80.008	19.994	103.200	19.951	1.135	0.463
1152.000	662.364	80.010	19.994	103.206	19.952	1.092	0.464
1159.999	666.036	80.010	19.995	103.204	19.950	1.203	0.435
1167.999	669.735	80.009	19.994	103.202	19.955	0.845	0.468
1175.999	673.444	80.010	19.994	103.206	19.950	1.194	0.475
1183.999	677.335	80.011	19.994	103.207	19.946	1.464	0.503
1192.000	681.211	80.008	19.996	103.203	19.949	1.302	0.500
1199.999	685.147	80.007	19.994	103.195	19.950	1.182	0.505
1208.000	689.019	80.008	19.994	103.202	19.946	1.477	0.509
1216.000	692.904	80.009	19.994	103.204	19.946	1.507	0.517
1223.999	696.906	80.009	19.994	103.205	19.944	1.579	0.531
1231.999	700.810	80.010	19.995	103.206	19.944	1.644	0.530
1240.000	704.767	80.009	19.993	103.203	19.950	1.227	0.508
1248.000	708.571	80.009	19.994	103.204	19.950	1.189	0.494
1255.999	712.380	80.011	19.994	103.199	19.948	1.374	0.467
1263.999	716.202	80.010	19.995	103.191	19.944	1.631	0.488
1271.999	720.007	80.008	19.995	103.186	19.950	1.191	0.485
1279.999	723.830	80.009	19.995	103.202	19.952	1.093	0.514
1288.000	727.694	80.009	19.994	103.201	19.951	1.122	0.506
1295.999	731.667	80.009	19.994	103.202	19.953	0.987	0.495
1303.999	735.713	80.007	19.994	103.209	19.955	0.896	0.504
1311.999	739.863	80.009	19.995	103.206	19.945	1.550	0.520
1318.500	743.254	80.009	19.993	103.202	19.947	1.379	0.527