Folder: fsri_materials_database/01_Data/Bamboo_Rug_Bamboo/MCC

Note: README.md
# Materials and Products Database
### Repository of materials and products properties and fire test data to improve fire modeling and fire investigation.

This project was supported in part by Award No. 2019-DU-BX-0018, awarded by the National Institute of Justice, Office of Justice Programs, U.S. Department of Justice. The opinions, findings, and conclusions or recommendations expressed in this publication / program / exhibition are those of the author(s) and do not necessarily reflect those of the Department of Justice.

***
***

__Cite this database:__ "McKinnon, M., Weinschenk, C., Dow, N., DiDomizio, M., and Madrzykowski, D. Materials and Products Database (Version 1.0.0), Fire Safety Research Institute, UL Research Institutes. Columbia, MD 21045, 2023."

__Cite the Technical Reference Guide:__ "McKinnon, M., Weinschenk, C., and Madrzykowski, D. Materials and Products Database - Technical Reference Guide, Fire Safety Research Institute, UL Research Institutes. Columbia, MD 21045, 2023."

__Cite the User Guide:__ "McKinnon, M., and Weinschenk, C. Materials and Products Database - User Guide, Fire Safety Research Institute, UL Research Institutes. Columbia, MD 21045, 2023."

***
***

## Database Structure

## 01_Data/
Raw data generated from each apparatus are included here in plain-text format. The data is organized first by material, next by the short name of test apparatus used, and where applicable additional filtering by test settings.

### Test Apparatus and Data File Structure
- __Cone Calorimeter__ (Cone)
    + Data file structure includes the material, the short name for the apparatus, heat flux setting and scan/scalar, date of test, and replicate number. Scan is for the raw output data and scalar is for the initial conditions and high-level test parameters. 
        * Example: __MDF_Cone_HF25scalar_210323_R1__ stands for the first replicate of scalar data generated from a medium density fiber board test in cone calorimeter exposed to 25 kW/m<sup>2</sup> on March 23, 2021.
    + A _Cone_Notes.csv_ is generated for each material from the __plot_Cone_data.py__ script. For materials whose experiments deviated from typical behavior relevant pictures are included in the respective material directory.
- __Fourier Transform Infrared Spectrometer__ (FTIR)
    + The FTIR directory contains subdirectories for the Attenuated Total Reflectance method (ATR) and the Integrating Sphere (IS)
    + Data file structure for the ATR experiment files includes the material, the abbreviated name for the apparatus, date of test, and replicate number. 
        * Example: __MDF_ATR_210323_R5__ stands for the fifth replicate of data collected with the ATR accessory conducted on June 8, 2021.
    + Data file structure for the IS experiment files includes the material, the abbreviated name for the apparatus, the measurand, whether the test is a sample measurement or standard reference, date of test, and replicate number.
        * Example: __OSB_IS_REFLECT_MEAS_2

File: Bamboo_Rug_Bamboo_MCC_30K_min_211124_R1.txt
Sample ID:	C:\MCC\MCC Cal\Test\Bamboo_RugA_MCC_30K_min_211124_R1.txt
Sample Weight (mg):	4.9
Heating Rate (C/s):	0.5
Combustor Temp (C):	900
N2 Flow Rate (cc/min):	80
O2 Flow Rate (cc/min):	20
Calibration File:	C:\MCC\MCC Cal\Coeff1 JN10440_30_210304.txt.txt
T Correction Coefficients:	0	1.024463	0
Time Shift (s):	14
*
Time (s)	Temperature (C)	N2 flow rate (cc/min)	O2 flow rate (cc/min)	Flow Rate (cc/min)	Oxygen (%)	HRR (W/g)	Heating rate (C/s)
0.000	108.064	80.011	19.994	103.127	20.100	-0.175	-0.004
7.999	108.118	80.008	19.994	103.130	20.097	-0.004	0.015
15.999	108.084	80.008	19.995	103.151	20.097	0.005	-0.003
23.999	108.196	80.008	19.995	103.274	20.075	1.424	0.052
31.999	108.874	80.008	19.995	103.367	20.061	2.347	0.132
40.000	110.005	80.006	19.994	103.362	20.055	2.747	0.224
48.000	111.672	80.008	19.995	103.372	20.054	2.828	0.235
55.999	113.661	80.010	19.995	103.366	20.053	2.920	0.282
64.001	115.915	80.009	19.996	103.386	20.047	3.282	0.288
71.999	118.495	80.009	19.995	103.391	20.049	3.177	0.295
79.999	121.221	80.010	19.994	103.398	20.045	3.403	0.352
88.000	124.189	80.009	19.994	103.402	20.045	3.414	0.350
96.000	127.370	80.007	19.995	103.399	20.046	3.392	0.398
103.999	130.690	80.006	19.994	103.403	20.043	3.552	0.430
111.999	134.132	80.008	19.994	103.400	20.045	3.459	0.438
119.999	137.702	80.007	19.994	103.398	20.042	3.600	0.477
128.000	141.335	80.008	19.995	103.380	20.041	3.676	0.443
136.000	145.026	80.008	19.995	103.393	20.044	3.486	0.473
144.000	148.690	80.008	19.994	103.388	20.038	3.886	0.468
152.000	152.498	80.008	19.995	103.395	20.041	3.713	0.513
160.000	156.245	80.008	19.994	103.392	20.041	3.698	0.493
168.000	160.129	80.009	19.995	103.389	20.038	3.859	0.496
176.000	164.047	80.007	19.994	103.375	20.038	3.872	0.492
184.000	167.968	80.007	19.996	103.388	20.037	3.966	0.492
192.000	171.881	80.009	19.995	103.373	20.036	3.993	0.501
200.000	175.908	80.009	19.994	103.371	20.038	3.901	0.505
208.000	179.854	80.007	19.994	103.364	20.034	4.153	0.511
216.000	183.824	80.008	19.993	103.363	20.035	4.057	0.504
224.000	187.914	80.010	19.995	103.371	20.025	4.753	0.542
232.000	191.883	80.008	19.994	103.363	20.026	4.691	0.498
240.000	195.919	80.008	19.994	103.357	20.028	4.561	0.508
248.000	199.895	80.011	19.995	103.359	20.020	5.088	0.504
256.000	203.911	80.007	19.995	103.357	20.019	5.106	0.492
264.000	207.880	80.006	19.996	103.356	20.012	5.598	0.489
272.000	211.836	80.008	19.995	103.348	20.003	6.219	0.499
280.000	215.683	80.007	19.993	103.357	19.999	6.484	0.483
288.000	219.587	80.007	19.994	103.354	19.996	6.669	0.497
296.000	223.452	80.008	19.995	103.359	19.988	7.210	0.490
304.000	227.359	80.011	19.995	103.359	19.979	7.762	0.506
312.000	231.279	80.010	19.994	103.360	19.973	8.180	0.506
320.000	235.185	80.009	19.994	103.360	19.965	8.723	0.502
328.000	239.102	80.010	19.995	103.411	19.947	9.865	0.493
336.000	243.043	80.011	19.994	103.367	19.931	10.957	0.505
344.000	246.986	80.007	19.996	103.365	19.918	11.791	0.508
352.000	251.009	80.007	19.996	103.380	19.896	13.214	0.500
360.000	255.008	80.008	19.994	103.401	19.873	14.784	0.501
368.000	258.978	80.009	19.995	103.397	19.846	16.517	0.511
376.000	262.938	80.008	19.995	103.401	19.817	18.458	0.502
384.000	266.939	80.009	19.995	103.405	19.785	20.527	0.481
392.000	270.965	80.009	19.995	103.419	19.752	22.712	0.521
400.000	274.927	80.008	19.993	103.441	19.722	24.685	0.520
408.001	278.874	80.008	19.994	103.451	19.681	27.391	0.514
416.000	282.881	80.011	19.994	103.473	19.647	29.627	0.499
424.000	286.823	80.007	19.994	103.472	19.612	31.935	0.502
432.000	290.828	80.009	19.995	103.478	19.583	33.865	0.479
440.000	294.702	80.008	19.996	103.477	19.552	35.913	0.567
448.000	298.904	80.008	19.996	103.479	19.522	37.863	0.550
456.000	302.907	80.007	19.996	103.493	19.500	39.359	0.470
464.000	306.989	80.010	19.996	103.498	19.473	41.151	0.546
472.000	311.040	80.010	19.995	103.498	19.456	42.222	0.541
480.000	315.109	80.009	19.995	103.495	19.440	43.317	0.508
488.000	319.151	80.010	19.993	103.507	19.429	44.052	0.508
496.000	323.183	80.011	19.994	103.497	19.415	44.929	0.504
504.000	327.170	80.013	19.996	103.511	19.399	46.041	0.513
512.000	331.139	80.008	19.994	103.517	19.376	47.555	0.510
520.000	335.114	80.010	19.994	103.521	19.336	50.179	0.516
528.000	339.106	80.008	19.995	103.557	19.281	53.840	0.469
536.000	343.022	80.008	19.993	103.599	19.204	58.956	0.493
544.000	346.931	80.009	19.995	103.639	19.098	65.987	0.468
552.000	351.010	80.007	19.995	103.681	18.979	73.828	0.490
560.000	355.131	80.011	19.993	103.697	18.874	80.690	0.507
568.000	359.244	80.010	19.994	103.649	18.843	82.649	0.513
576.000	363.347	80.008	19.995	103.539	18.950	75.490	0.530
584.000	367.373	80.012	19.995	103.423	19.189	59.715	0.484
592.000	371.465	80.007	19.994	103.358	19.464	41.672	0.504
600.000	375.491	80.009	19.994	103.324	19.677	27.614	0.499
608.000	379.554	80.009	19.995	103.306	19.810	18.909	0.509
616.000	383.529	80.009	19.995	103.283	19.883	14.064	0.489
624.000	387.504	80.006	19.995	103.286	19.920	11.658	0.493
632.000	391.488	80.009	19.994	103.281	19.937	10.551	0.498
640.000	395.582	80.009	19.994	103.269	19.948	9.833	0.520
648.000	399.714	80.009	19.995	103.279	19.950	9.662	0.541
656.000	403.796	80.010	19.994	103.279	19.960	9.034	0.524
664.000	407.911	80.011	19.994	103.277	19.964	8.741	0.504
672.000	412.035	80.008	19.994	103.270	19.969	8.407	0.512
680.000	416.038	80.008	19.993	103.263	19.970	8.342	0.518
688.000	420.137	80.008	19.992	103.265	19.974	8.060	0.495
696.000	424.174	80.009	19.995	103.263	19.975	8.047	0.472
704.000	428.245	80.008	19.994	103.257	19.988	7.156	0.500
712.000	432.215	80.009	19.996	103.266	19.993	6.837	0.472
720.000	436.347	80.010	19.996	103.258	19.996	6.652	0.495
728.000	440.383	80.008	19.995	103.254	19.999	6.432	0.472
736.000	444.379	80.010	19.996	103.262	20.004	6.114	0.498
744.000	448.313	80.010	19.993	103.251	20.005	6.029	0.493
752.000	452.312	80.011	19.993	103.257	20.014	5.473	0.489
760.000	456.375	80.008	19.994	103.245	20.011	5.633	0.517
768.000	460.399	80.008	19.995	103.266	20.017	5.284	0.487
776.000	464.453	80.009	19.994	103.247	20.020	5.085	0.487
784.000	468.545	80.010	19.994	103.258	20.024	4.799	0.487
792.000	472.614	80.007	19.995	103.251	20.025	4.760	0.534
800.000	476.741	80.010	19.994	103.258	20.028	4.544	0.520
808.000	480.880	80.012	19.994	103.256	20.029	4.503	0.545
816.000	485.032	80.010	19.995	103.251	20.030	4.428	0.549
824.000	489.101	80.009	19.996	103.247	20.028	4.559	0.516
832.000	493.165	80.011	19.996	103.240	20.030	4.412	0.511
840.000	497.155	80.008	19.995	103.242	20.037	3.921	0.497
848.000	501.175	80.008	19.995	103.244	20.040	3.742	0.527
856.000	505.153	80.009	19.994	103.244	20.039	3.824	0.500
864.000	509.176	80.009	19.995	103.249	20.037	3.944	0.501
872.000	513.213	80.008	19.995	103.246	20.040	3.749	0.491
880.000	517.267	80.009	19.993	103.246	20.040	3.735	0.522
888.000	521.445	80.011	19.995	103.252	20.038	3.898	0.510
896.000	525.724	80.008	19.994	103.245	20.038	3.859	0.529
904.000	530.027	80.009	19.996	103.245	20.039	3.804	0.538
912.000	534.480	80.012	19.995	103.242	20.035	4.079	0.566
920.000	538.838	80.008	19.994	103.239	20.041	3.675	0.552
928.000	543.169	80.007	19.996	103.246	20.037	3.950	0.558
936.000	547.393	80.010	19.995	103.242	20.044	3.488	0.522
944.000	551.586	80.009	19.994	103.239	20.039	3.790	0.531
952.000	555.669	80.009	19.995	103.244	20.042	3.619	0.494
960.000	559.755	80.009	19.994	103.233	20.046	3.362	0.502
968.000	563.781	80.011	19.994	103.237	20.044	3.472	0.468
976.000	567.743	80.009	19.994	103.232	20.043	3.548	0.481
984.000	571.819	80.011	19.995	103.236	20.043	3.542	0.537
992.000	575.890	80.010	19.996	103.230	20.047	3.279	0.504
1000.000	579.894	80.010	19.993	103.238	20.041	3.678	0.494
1008.000	583.928	80.008	19.994	103.245	20.049	3.135	0.486
1016.000	587.968	80.009	19.996	103.227	20.041	3.675	0.513
1024.001	591.991	80.009	19.996	103.235	20.044	3.460	0.488
1031.999	596.080	80.009	19.996	103.235	20.038	3.854	0.502
1040.000	600.145	80.007	19.996	103.233	20.040	3.743	0.494
1048.000	604.242	80.010	19.995	103.230	20.037	3.973	0.533
1055.999	608.289	80.010	19.996	103.234	20.037	3.922	0.498
1063.999	612.388	80.010	19.995	103.239	20.045	3.431	0.509
1071.999	616.515	80.008	19.993	103.231	20.042	3.630	0.514
1080.000	620.564	80.010	19.994	103.228	20.039	3.784	0.497
1087.999	624.564	80.007	19.996	103.235	20.039	3.847	0.507
1095.999	628.601	80.007	19.995	103.220	20.040	3.720	0.488
1104.000	632.627	80.008	19.994	103.223	20.043	3.544	0.519
1112.001	636.699	80.008	19.996	103.212	20.040	3.751	0.536
1119.999	640.745	80.006	19.996	103.219	20.038	3.865	0.528
1128.000	644.722	80.008	19.995	103.212	20.032	4.301	0.500
1135.999	648.674	80.010	19.993	103.220	20.036	3.993	0.496
1143.999	652.701	80.010	19.994	103.217	20.041	3.664	0.518
1151.999	656.729	80.009	19.995	103.218	20.040	3.718	0.491
1159.999	660.763	80.011	19.994	103.221	20.037	3.962	0.482
1168.000	664.915	80.010	19.994	103.211	20.039	3.837	0.537
1175.999	669.152	80.009	19.994	103.224	20.040	3.771	0.553
1183.999	673.387	80.009	19.995	103.234	20.044	3.507	0.546
1191.999	677.729	80.009	19.995	103.208	20.043	3.548	0.550
1199.999	681.940	80.009	19.994	103.208	20.041	3.688	0.529
1208.000	686.029	80.009	19.996	103.209	20.038	3.859	0.531
1215.999	690.108	80.010	19.996	103.207	20.040	3.732	0.517
1223.999	694.182	80.011	19.994	103.210	20.041	3.682	0.526
1231.999	698.286	80.012	19.995	103.211	20.042	3.650	0.526
1240.000	702.408	80.011	19.994	103.212	20.042	3.590	0.500
1248.000	706.463	80.011	19.994	103.204	20.038	3.852	0.557
1256.001	710.556	80.008	19.995	103.207	20.041	3.704	0.526
1264.001	714.628	80.008	19.995	103.207	20.037	3.948	0.510
1272.000	718.681	80.007	19.994	103.210	20.037	3.955	0.504
1280.000	722.821	80.009	19.995	103.206	20.046	3.377	0.506
1288.001	726.905	80.008	19.996	103.207	20.047	3.305	0.501
1295.999	730.979	80.010	19.995	103.208	20.044	3.489	0.494
1303.999	735.068	80.010	19.995	103.205	20.044	3.459	0.519
1312.000	739.125	80.009	19.995	103.202	20.048	3.232	0.494
1319.999	743.246	80.011	19.994	103.206	20.042	3.636	0.514
1320.499	743.464	80.011	19.994	103.207	20.041	3.703	0.489

File: Bamboo_Rug_Bamboo_MCC_30K_min_211124_R2.txt
Sample ID:	C:\MCC\MCC Cal\Test\Bamboo_RugA_MCC_30K_min_211124_R2.txt
Sample Weight (mg):	4.67
Heating Rate (C/s):	0.5
Combustor Temp (C):	900
N2 Flow Rate (cc/min):	80
O2 Flow Rate (cc/min):	20
Calibration File:	C:\MCC\MCC Cal\Coeff1 JN10440_30_210304.txt.txt
T Correction Coefficients:	0	1.024463	0
Time Shift (s):	14
*
Time (s)	Temperature (C)	N2 flow rate (cc/min)	O2 flow rate (cc/min)	Flow Rate (cc/min)	Oxygen (%)	HRR (W/g)	Heating rate (C/s)
-0.001	108.987	80.009	19.998	103.115	20.144	-0.039	-0.000
8.000	108.947	80.007	19.995	103.104	20.147	-0.283	0.000
16.000	108.993	80.008	19.993	103.169	20.134	0.671	0.041
24.000	109.262	80.008	19.993	103.279	20.126	1.223	0.059
32.000	109.863	80.010	19.994	103.093	20.139	0.329	0.089
40.001	110.213	80.005	19.995	103.089	20.145	-0.097	0.045
47.999	110.484	80.005	19.994	103.094	20.142	0.067	0.024
55.999	110.636	80.005	19.994	103.094	20.147	-0.229	0.009
64.000	110.754	80.006	19.996	103.091	20.145	-0.097	0.006
71.999	110.782	80.004	19.996	103.093	20.151	-0.541	-0.015
79.999	110.787	80.005	19.994	103.094	20.149	-0.422	-0.014
87.999	110.795	80.008	19.995	103.088	20.149	-0.366	-0.011
96.000	110.713	80.007	19.994	103.088	20.144	-0.054	-0.008
103.999	110.637	80.007	19.994	103.086	20.151	-0.524	-0.012
112.000	110.545	80.010	19.993	103.090	20.150	-0.431	-0.029
119.999	110.519	80.006	19.994	103.086	20.147	-0.262	0.018
127.999	110.402	80.006	19.994	103.090	20.150	-0.492	-0.023
136.000	110.296	80.005	19.995	103.091	20.147	-0.242	-0.010
144.000	110.207	80.007	19.994	103.091	20.145	-0.091	-0.002
152.000	110.097	80.004	19.996	103.090	20.146	-0.162	0.007
160.000	110.027	80.007	19.996	103.088	20.148	-0.301	0.015
168.000	109.905	80.009	19.993	103.086	20.148	-0.342	-0.005
176.000	109.805	80.007	19.994	103.088	20.149	-0.403	-0.016
184.000	109.698	80.006	19.994	103.092	20.149	-0.405	-0.016
192.000	109.643	80.008	19.994	103.091	20.148	-0.314	0.011
200.000	109.535	80.009	19.994	103.091	20.147	-0.230	-0.012
208.000	109.479	80.007	19.994	103.088	20.146	-0.184	-0.016
216.000	109.364	80.007	19.994	103.088	20.146	-0.157	-0.039
224.000	109.288	80.007	19.996	103.108	20.101	2.958	-0.035
232.000	110.871	80.006	19.994	104.131	19.978	11.457	0.376
240.000	115.677	80.005	19.995	104.035	19.959	12.800	0.691
248.000	122.817	80.007	19.995	103.948	19.976	11.598	0.958
256.000	131.364	80.006	19.996	103.822	19.999	9.993	1.099
264.000	140.620	80.007	19.995	103.714	20.016	8.805	1.176
272.000	150.123	80.009	19.994	103.645	20.030	7.870	1.189
280.000	159.525	80.008	19.994	103.596	20.039	7.207	1.188
288.000	168.786	80.007	19.994	103.554	20.042	6.989	1.097
296.000	177.685	80.009	19.994	103.510	20.044	6.849	1.091
304.000	186.255	80.008	19.995	103.490	20.045	6.798	1.059
312.000	194.514	80.009	19.995	103.480	20.042	6.969	1.011
320.000	202.407	80.006	19.994	103.461	20.034	7.542	0.965
328.000	210.081	80.008	19.995	103.440	20.029	7.891	0.935
336.000	217.297	80.009	19.994	103.405	20.020	8.541	0.872
344.000	224.173	80.008	19.996	103.398	20.006	9.495	0.849
352.000	230.787	80.008	19.995	103.389	19.988	10.694	0.787
360.000	236.994	80.011	19.995	103.373	19.972	11.832	0.759
368.000	242.865	80.008	19.995	103.365	19.956	12.929	0.692
376.000	248.462	80.006	19.995	103.371	19.941	14.003	0.699
384.000	253.770	80.007	19.994	103.377	19.910	16.094	0.632
392.000	258.869	80.006	19.994	103.392	19.879	18.289	0.624
400.000	263.660	80.008	19.993	103.382	19.846	20.552	0.612
408.000	268.238	80.007	19.996	103.400	19.809	23.104	0.512
416.000	272.776	80.008	19.995	103.399	19.770	25.796	0.540
424.000	277.115	80.009	19.995	103.404	19.730	28.582	0.517
432.000	281.302	80.008	19.995	103.426	19.692	31.211	0.507
440.000	285.427	80.008	19.996	103.433	19.657	33.627	0.491
448.000	289.457	80.008	19.995	103.439	19.625	35.840	0.510
456.000	293.514	80.007	19.994	103.444	19.596	37.809	0.487
464.000	297.476	80.008	19.994	103.449	19.572	39.477	0.478
472.000	301.467	80.008	19.994	103.445	19.556	40.622	0.506
480.000	305.393	80.007	19.995	103.462	19.545	41.379	0.505
488.000	309.352	80.008	19.995	103.451	19.529	42.462	0.499
496.000	313.349	80.009	19.993	103.451	19.519	43.124	0.507
504.000	317.248	80.008	19.995	103.443	19.514	43.467	0.460
512.000	321.229	80.007	19.995	103.458	19.509	43.831	0.481
520.000	325.198	80.007	19.994	103.466	19.497	44.696	0.489
528.000	329.237	80.009	19.995	103.468	19.473	46.366	0.526
536.000	333.233	80.007	19.996	103.477	19.446	48.198	0.530
544.000	337.253	80.008	19.995	103.495	19.402	51.279	0.535
552.000	341.268	80.008	19.993	103.520	19.342	55.460	0.483
560.000	345.274	80.007	19.995	103.556	19.257	61.358	0.512
568.000	349.276	80.005	19.995	103.601	19.152	68.662	0.492
576.000	353.348	80.008	19.996	103.638	19.038	76.547	0.533
584.000	357.338	80.009	19.995	103.651	18.949	82.602	0.482
592.000	361.384	80.008	19.993	103.580	18.951	82.388	0.514
600.000	365.376	80.009	19.996	103.459	19.102	71.910	0.477
608.000	369.453	80.010	19.996	103.363	19.355	54.398	0.502
616.000	373.521	80.008	19.995	103.311	19.614	36.488	0.549
624.000	377.566	80.005	19.997	103.282	19.797	23.920	0.498
632.000	381.687	80.006	19.996	103.272	19.898	16.920	0.527
640.000	385.670	80.007	19.994	103.258	19.952	13.224	0.472
648.000	389.650	80.007	19.994	103.258	19.981	11.176	0.496
656.000	393.687	80.008	19.995	103.261	19.994	10.332	0.531
664.000	397.683	80.008	19.995	103.253	19.999	9.922	0.495
672.000	401.713	80.009	19.997	103.251	20.004	9.575	0.492
680.000	405.699	80.008	19.994	103.255	20.011	9.125	0.494
688.000	409.789	80.010	19.994	103.253	20.016	8.780	0.480
696.000	413.880	80.007	19.994	103.244	20.029	7.894	0.476
704.000	418.013	80.007	19.995	103.260	20.026	8.084	0.575
712.000	422.114	80.006	19.997	103.246	20.028	7.933	0.368
720.000	426.160	80.007	19.995	103.254	20.033	7.629	0.547
728.000	430.212	80.007	19.996	103.244	20.035	7.447	0.507
736.000	434.321	80.007	19.995	103.245	20.040	7.153	0.542
744.000	438.473	80.009	19.995	103.245	20.043	6.918	0.540
752.000	442.502	80.007	19.994	103.243	20.048	6.605	0.514
760.000	446.595	80.008	19.994	103.243	20.049	6.483	0.486
768.000	450.651	80.010	19.994	103.246	20.053	6.204	0.500
776.000	454.750	80.009	19.993	103.247	20.056	6.007	0.532
784.000	458.827	80.006	19.996	103.243	20.064	5.482	0.524
792.000	462.819	80.007	19.996	103.230	20.067	5.259	0.487
800.000	466.852	80.009	19.994	103.236	20.068	5.197	0.513
808.000	470.909	80.006	19.996	103.238	20.071	4.988	0.519
816.000	474.968	80.007	19.997	103.239	20.068	5.186	0.510
824.000	479.051	80.008	19.995	103.225	20.071	4.981	0.538
832.000	483.079	80.009	19.994	103.239	20.069	5.118	0.494
840.000	487.213	80.008	19.997	103.246	20.070	5.052	0.522
848.000	491.307	80.008	19.994	103.236	20.070	5.063	0.486
856.000	495.531	80.009	19.994	103.224	20.071	5.003	0.523
864.000	499.677	80.007	19.994	103.227	20.070	5.038	0.547
872.000	503.846	80.007	19.995	103.220	20.073	4.867	0.516
880.000	507.919	80.008	19.995	103.227	20.076	4.613	0.494
888.000	511.979	80.007	19.995	103.233	20.076	4.651	0.481
896.000	516.101	80.008	19.996	103.217	20.076	4.616	0.516
904.000	520.177	80.006	19.995	103.231	20.080	4.369	0.520
912.000	524.226	80.009	19.995	103.223	20.076	4.649	0.503
920.000	528.339	80.009	19.996	103.228	20.081	4.276	0.507
928.000	532.462	80.008	19.995	103.221	20.081	4.315	0.528
936.000	536.784	80.011	19.994	103.226	20.076	4.638	0.524
944.000	541.225	80.007	19.996	103.219	20.075	4.704	0.541
952.000	545.680	80.009	19.994	103.229	20.077	4.562	0.536
960.000	550.218	80.009	19.995	103.228	20.074	4.778	0.577
968.000	554.770	80.007	19.996	103.240	20.078	4.486	0.572
976.000	559.179	80.007	19.995	103.229	20.077	4.569	0.540
984.000	563.570	80.008	19.994	103.215	20.076	4.626	0.566
992.000	567.884	80.009	19.996	103.212	20.077	4.546	0.511
1000.000	572.185	80.008	19.995	103.205	20.073	4.855	0.541
1008.000	576.546	80.008	19.996	103.220	20.078	4.535	0.546
1016.000	580.597	80.010	19.995	103.227	20.075	4.727	0.480
1024.000	584.595	80.008	19.994	103.214	20.073	4.857	0.498
1032.000	588.513	80.007	19.995	103.208	20.076	4.650	0.478
1039.999	592.447	80.007	19.994	103.214	20.073	4.853	0.478
1048.000	596.424	80.009	19.994	103.209	20.074	4.747	0.490
1055.999	600.265	80.007	19.994	103.205	20.076	4.643	0.454
1063.999	604.138	80.006	19.994	103.206	20.075	4.690	0.510
1072.000	607.919	80.009	19.996	103.216	20.074	4.753	0.475
1079.999	611.815	80.009	19.997	103.213	20.073	4.844	0.469
1088.001	615.789	80.008	19.995	103.207	20.073	4.879	0.507
1095.999	619.684	80.009	19.995	103.205	20.071	4.965	0.453
1104.000	623.635	80.007	19.995	103.206	20.067	5.266	0.489
1111.999	627.558	80.007	19.994	103.208	20.067	5.259	0.476
1119.999	631.489	80.009	19.996	103.204	20.068	5.221	0.487
1127.999	635.537	80.009	19.995	103.205	20.068	5.177	0.518
1135.999	639.543	80.008	19.995	103.207	20.067	5.244	0.493
1143.999	643.671	80.008	19.996	103.206	20.064	5.475	0.522
1151.999	647.727	80.007	19.993	103.209	20.063	5.566	0.509
1160.000	651.805	80.011	19.996	103.211	20.061	5.698	0.524
1168.001	655.892	80.008	19.996	103.204	20.057	5.921	0.523
1175.999	659.953	80.010	19.996	103.208	20.059	5.837	0.505
1184.000	664.072	80.011	19.996	103.206	20.056	6.016	0.505
1192.000	668.127	80.008	19.994	103.200	20.057	5.956	0.494
1199.999	672.246	80.006	19.996	103.204	20.058	5.893	0.528
1207.999	676.332	80.008	19.993	103.202	20.056	5.999	0.500
1216.000	680.409	80.010	19.996	103.208	20.052	6.298	0.524
1223.999	684.464	80.008	19.994	103.206	20.056	6.003	0.523
1232.001	688.486	80.007	19.995	103.203	20.056	6.051	0.497
1240.000	692.488	80.010	19.994	103.198	20.052	6.287	0.509
1248.000	696.460	80.008	19.996	103.196	20.050	6.450	0.491
1256.000	700.515	80.009	19.994	103.198	20.044	6.810	0.497
1263.999	704.533	80.009	19.995	103.181	20.047	6.614	0.484
1272.000	708.507	80.009	19.995	103.183	20.051	6.350	0.486
1279.999	712.565	80.007	19.994	103.192	20.046	6.712	0.474
1287.999	716.704	80.008	19.995	103.195	20.045	6.767	0.521
1295.999	720.733	80.006	19.995	103.205	20.042	6.997	0.487
1303.999	724.791	80.007	19.995	103.193	20.038	7.266	0.531
1311.999	728.769	80.009	19.994	103.195	20.042	6.996	0.540
1319.999	732.736	80.007	19.996	103.176	20.037	7.301	0.474
1328.000	736.598	80.009	19.996	103.188	20.040	7.118	0.483
1335.999	740.367	80.009	19.994	103.200	20.039	7.217	0.472
1343.500	743.958	80.010	19.994	103.195	20.034	7.532	0.457