Folder: fsri_materials_database/01_Data/Pine_Siding/FTIR/IS (part 2)

File: Pine_Siding_IS_S_220916_R5.dpt
7497.03,0.83468
7473.89,0.82978
7450.74,0.82281
7427.6,0.80918
7404.45,0.79845
7381.31,0.78994
7358.16,0.78154
7335.02,0.77398
7311.87,0.77331
7288.73,0.76498
7265.58,0.76212
7242.44,0.76290
7219.29,0.76638
7196.15,0.76399
7173,0.74536
7149.86,0.73627
7126.71,0.71996
7103.57,0.70300
7080.42,0.68053
7057.28,0.66634
7034.13,0.63371
7010.99,0.61853
6987.84,0.60730
6964.7,0.60021
6941.55,0.59089
6918.41,0.58725
6895.26,0.59035
6872.12,0.58981
6848.97,0.58633
6825.83,0.58518
6802.68,0.58340
6779.54,0.58595
6756.39,0.58132
6733.25,0.58931
6710.1,0.58730
6686.96,0.58865
6663.82,0.59279
6640.67,0.60360
6617.53,0.60395
6594.38,0.60514
6571.24,0.60506
6548.09,0.61273
6524.95,0.61179
6501.8,0.61309
6478.66,0.61636
6455.51,0.61900
6432.37,0.62336
6409.22,0.62587
6386.08,0.62557
6362.93,0.62956
6339.79,0.62752
6316.64,0.62802
6293.5,0.63513
6270.35,0.63902
6247.21,0.64824
6224.06,0.65631
6200.92,0.66044
6177.77,0.66818
6154.63,0.67196
6131.48,0.67878
6108.34,0.68389
6085.19,0.68392
6062.05,0.68186
6038.9,0.67604
6015.76,0.67045
5992.61,0.66113
5969.47,0.66219
5946.32,0.66242
5923.18,0.66399
5900.03,0.66097
5876.89,0.65782
5853.74,0.65618
5830.6,0.65380
5807.45,0.65057
5784.31,0.64892
5761.16,0.65489
5738.02,0.65382
5714.87,0.65509
5691.73,0.65165
5668.58,0.65082
5645.44,0.64969
5622.29,0.65054
5599.15,0.65175
5576,0.65133
5552.86,0.65595
5529.71,0.65588
5506.57,0.65734
5483.42,0.66066
5460.28,0.66311
5437.13,0.66746
5413.99,0.67204
5390.84,0.67393
5367.7,0.67560
5344.55,0.67263
5321.41,0.66275
5298.26,0.64063
5275.12,0.60443
5251.97,0.55922
5228.83,0.52810
5205.68,0.50982
5182.54,0.50900
5159.39,0.51627
5136.25,0.52776
5113.1,0.54025
5089.96,0.55149
5066.81,0.56465
5043.67,0.57380
5020.52,0.58021
4997.38,0.58052
4974.23,0.57600
4951.09,0.55943
4927.94,0.53856
4904.8,0.51450
4881.65,0.49275
4858.51,0.47298
4835.36,0.45705
4812.22,0.44375
4789.07,0.43724
4765.93,0.43259
4742.78,0.43340
4719.64,0.43533
4696.49,0.43964
4673.35,0.44317
4650.2,0.45401
4627.06,0.46329
4603.92,0.47761
4580.77,0.48728
4557.63,0.49560
4534.48,0.50168
4511.34,0.50525
4488.19,0.49671
4465.05,0.47560
4441.9,0.44759
4418.76,0.41513
4395.61,0.39909
4372.47,0.40841
4349.32,0.41279
4326.18,0.40744
4303.03,0.39708
4279.89,0.39032
4256.74,0.39382
4233.6,0.39731
4210.45,0.39759
4187.31,0.39927
4164.16,0.40441
4141.02,0.39957
4117.87,0.38549
4094.73,0.36419
4071.58,0.34089
4048.44,0.31954
4025.29,0.30574
4002.15,0.30385
3979,0.31045
3955.86,0.32023
3932.71,0.33225
3909.57,0.34236
3886.42,0.35202
3863.28,0.36072
3840.13,0.37080
3816.99,0.37315
3793.84,0.37214
3770.7,0.36998
3747.55,0.36239
3724.41,0.34640
3701.26,0.31915
3678.12,0.26609
3654.97,0.19470
3631.83,0.14566
3608.68,0.10982
3585.54,0.08459
3562.39,0.06957
3539.25,0.06049
3516.1,0.05415
3492.96,0.05062
3469.81,0.04752
3446.67,0.04512
3423.52,0.04601
3400.38,0.04671
3377.23,0.04625
3354.09,0.04861
3330.94,0.05174
3307.8,0.05468
3284.65,0.05722
3261.51,0.06135
3238.36,0.06789
3215.22,0.07321
3192.07,0.08072
3168.93,0.08828
3145.78,0.09611
3122.64,0.10498
3099.49,0.11247
3076.35,0.11861
3053.2,0.12537
3030.06,0.12858
3006.91,0.12230
2983.77,0.10854
2960.62,0.08541
2937.48,0.07463
2914.33,0.07362
2891.19,0.07628
2868.04,0.08202
2844.9,0.09428
2821.75,0.11711
2798.61,0.13580
2775.46,0.14383
2752.32,0.14707
2729.17,0.14921
2706.03,0.15679
2682.88,0.16533
2659.74,0.17125
2636.59,0.17736
2613.45,0.18413
2590.3,0.19011
2567.16,0.19415
2544.02,0.19549
2520.87,0.20140
2497.73,0.21076
2474.58,0.22073
2451.44,0.22910
2428.29,0.24011
2405.15,0.25271
2382,0.26336
2358.86,0.27266
2335.71,0.27830
2312.57,0.28167
2289.42,0.27984
2266.28,0.27605
2243.13,0.27167
2219.99,0.27006
2196.84,0.26561
2173.7,0.25295
2150.55,0.24410
2127.41,0.24209
2104.26,0.24584
2081.12,0.24613
2057.97,0.24252
2034.83,0.24817
2011.68,0.26098
1988.54,0.26835
1965.39,0.27442
1942.25,0.28590
1919.1,0.29197
1895.96,0.28958
1872.81,0.28816
1849.67,0.28412
1826.52,0.27413
1803.38,0.25351
1780.23,0.21212
1757.09,0.12323
1733.94,0.09081
1710.8,0.11592
1687.65,0.12017
1664.51,0.09127
1641.36,0.08593
1618.22,0.08575
1595.07,0.08182
1571.93,0.11774
1548.78,0.13791
1525.64,0.09133
1502.49,0.06598
1479.35,0.07348
1456.2,0.05792
1433.06,0.05621
1409.91,0.06304
1386.77,0.05705
1363.62,0.05608
1340.48,0.05713
1317.33,0.05532
1294.19,0.05639
1271.04,0.05063
1247.9,0.05501
1224.75,0.05397
1201.61,0.05459
1178.46,0.04715
1155.32,0.05120
1132.17,0.04201
1109.03,0.04914
1085.88,0.04945
1062.74,0.07377
1039.59,0.07601
1016.45,0.08750
993.304,0.09581
970.159,0.11484
947.014,0.12469
923.869,0.13297
900.724,0.11128
877.579,0.11864
854.434,0.12081
831.289,0.12104
808.144,0.10559
784.999,0.10763
761.854,0.09850
738.709,0.09341
715.565,0.08576
692.42,0.08018
669.275,0.07423
646.13,0.07645
622.985,0.07406
599.84,0.07869

File: Pine_Siding_IS_S_220916_R6.dpt
7497.03,0.83442
7473.89,0.83346
7450.74,0.81693
7427.6,0.80930
7404.45,0.81028
7381.31,0.79516
7358.16,0.78363
7335.02,0.77823
7311.87,0.77869
7288.73,0.77376
7265.58,0.76470
7242.44,0.76254
7219.29,0.75633
7196.15,0.75177
7173,0.74286
7149.86,0.73294
7126.71,0.72287
7103.57,0.70031
7080.42,0.68110
7057.28,0.66289
7034.13,0.63580
7010.99,0.61467
6987.84,0.60336
6964.7,0.60332
6941.55,0.58816
6918.41,0.58302
6895.26,0.58436
6872.12,0.58341
6848.97,0.58445
6825.83,0.58487
6802.68,0.58805
6779.54,0.58231
6756.39,0.58435
6733.25,0.59200
6710.1,0.58749
6686.96,0.59254
6663.82,0.59319
6640.67,0.60214
6617.53,0.60466
6594.38,0.60667
6571.24,0.61024
6548.09,0.61510
6524.95,0.61964
6501.8,0.61457
6478.66,0.61645
6455.51,0.61931
6432.37,0.62127
6409.22,0.62392
6386.08,0.62353
6362.93,0.62717
6339.79,0.62618
6316.64,0.63006
6293.5,0.63427
6270.35,0.64045
6247.21,0.64736
6224.06,0.65198
6200.92,0.66323
6177.77,0.67171
6154.63,0.67584
6131.48,0.67622
6108.34,0.68432
6085.19,0.68377
6062.05,0.68202
6038.9,0.67627
6015.76,0.67181
5992.61,0.66762
5969.47,0.66045
5946.32,0.66204
5923.18,0.66590
5900.03,0.65845
5876.89,0.65735
5853.74,0.65782
5830.6,0.65599
5807.45,0.65269
5784.31,0.65144
5761.16,0.65661
5738.02,0.65354
5714.87,0.65367
5691.73,0.65349
5668.58,0.65163
5645.44,0.65028
5622.29,0.65096
5599.15,0.65031
5576,0.65418
5552.86,0.65557
5529.71,0.65760
5506.57,0.65798
5483.42,0.65793
5460.28,0.66260
5437.13,0.66470
5413.99,0.67335
5390.84,0.67426
5367.7,0.67507
5344.55,0.67478
5321.41,0.66403
5298.26,0.64341
5275.12,0.60579
5251.97,0.56324
5228.83,0.52921
5205.68,0.51301
5182.54,0.51142
5159.39,0.51803
5136.25,0.53123
5113.1,0.54440
5089.96,0.55388
5066.81,0.56571
5043.67,0.57703
5020.52,0.58175
4997.38,0.58373
4974.23,0.57749
4951.09,0.56100
4927.94,0.53730
4904.8,0.51493
4881.65,0.49257
4858.51,0.47336
4835.36,0.45595
4812.22,0.44432
4789.07,0.43753
4765.93,0.43375
4742.78,0.43211
4719.64,0.43585
4696.49,0.43907
4673.35,0.44191
4650.2,0.45370
4627.06,0.46342
4603.92,0.47853
4580.77,0.48851
4557.63,0.49682
4534.48,0.50182
4511.34,0.50476
4488.19,0.49688
4465.05,0.47582
4441.9,0.44751
4418.76,0.41427
4395.61,0.39954
4372.47,0.40779
4349.32,0.41366
4326.18,0.40768
4303.03,0.39715
4279.89,0.39129
4256.74,0.39428
4233.6,0.39775
4210.45,0.39730
4187.31,0.39946
4164.16,0.40526
4141.02,0.40074
4117.87,0.38516
4094.73,0.36444
4071.58,0.34098
4048.44,0.31917
4025.29,0.30661
4002.15,0.30487
3979,0.31060
3955.86,0.32003
3932.71,0.33186
3909.57,0.34329
3886.42,0.35302
3863.28,0.36171
3840.13,0.37134
3816.99,0.37332
3793.84,0.37334
3770.7,0.37084
3747.55,0.36350
3724.41,0.34863
3701.26,0.32052
3678.12,0.26752
3654.97,0.19684
3631.83,0.14763
3608.68,0.11109
3585.54,0.08522
3562.39,0.06928
3539.25,0.06030
3516.1,0.05422
3492.96,0.04935
3469.81,0.04673
3446.67,0.04616
3423.52,0.04512
3400.38,0.04601
3377.23,0.04677
3354.09,0.04863
3330.94,0.05162
3307.8,0.05479
3284.65,0.05805
3261.51,0.06182
3238.36,0.06693
3215.22,0.07342
3192.07,0.08102
3168.93,0.08868
3145.78,0.09664
3122.64,0.10507
3099.49,0.11414
3076.35,0.11875
3053.2,0.12538
3030.06,0.12915
3006.91,0.12284
2983.77,0.10940
2960.62,0.08527
2937.48,0.07439
2914.33,0.07362
2891.19,0.07676
2868.04,0.08259
2844.9,0.09448
2821.75,0.11761
2798.61,0.13586
2775.46,0.14445
2752.32,0.14753
2729.17,0.14919
2706.03,0.15657
2682.88,0.16574
2659.74,0.17156
2636.59,0.17750
2613.45,0.18506
2590.3,0.19085
2567.16,0.19435
2544.02,0.19594
2520.87,0.20184
2497.73,0.21084
2474.58,0.22039
2451.44,0.22987
2428.29,0.24054
2405.15,0.25282
2382,0.26359
2358.86,0.27333
2335.71,0.27886
2312.57,0.28198
2289.42,0.28066
2266.28,0.27659
2243.13,0.27237
2219.99,0.27074
2196.84,0.26623
2173.7,0.25364
2150.55,0.24443
2127.41,0.24315
2104.26,0.24634
2081.12,0.24721
2057.97,0.24319
2034.83,0.24898
2011.68,0.26178
1988.54,0.26904
1965.39,0.27492
1942.25,0.28670
1919.1,0.29297
1895.96,0.29039
1872.81,0.28860
1849.67,0.28511
1826.52,0.27451
1803.38,0.25386
1780.23,0.21252
1757.09,0.12372
1733.94,0.09076
1710.8,0.11578
1687.65,0.12049
1664.51,0.09114
1641.36,0.08645
1618.22,0.08656
1595.07,0.08208
1571.93,0.11815
1548.78,0.13830
1525.64,0.09124
1502.49,0.06608
1479.35,0.07361
1456.2,0.05749
1433.06,0.05570
1409.91,0.06309
1386.77,0.05675
1363.62,0.05600
1340.48,0.05732
1317.33,0.05576
1294.19,0.05621
1271.04,0.05049
1247.9,0.05468
1224.75,0.05479
1201.61,0.05441
1178.46,0.04701
1155.32,0.05123
1132.17,0.04188
1109.03,0.04924
1085.88,0.04886
1062.74,0.07415
1039.59,0.07603
1016.45,0.08718
993.304,0.09489
970.159,0.11521
947.014,0.12488
923.869,0.13333
900.724,0.11149
877.579,0.11872
854.434,0.12116
831.289,0.12116
808.144,0.10643
784.999,0.10913
761.854,0.09895
738.709,0.09341
715.565,0.08631
692.42,0.08029
669.275,0.07707
646.13,0.07692
622.985,0.07550
599.84,0.07929

File: Pine_Siding_IS_S_220916_R7.dpt
7497.03,0.82995
7473.89,0.83961
7450.74,0.81729
7427.6,0.81384
7404.45,0.79899
7381.31,0.79846
7358.16,0.78348
7335.02,0.78644
7311.87,0.77013
7288.73,0.76342
7265.58,0.76359
7242.44,0.76552
7219.29,0.76501
7196.15,0.75724
7173,0.75265
7149.86,0.73653
7126.71,0.71750
7103.57,0.70111
7080.42,0.68462
7057.28,0.66262
7034.13,0.63506
7010.99,0.61488
6987.84,0.60494
6964.7,0.58830
6941.55,0.59055
6918.41,0.58837
6895.26,0.59154
6872.12,0.58424
6848.97,0.58526
6825.83,0.58046
6802.68,0.58237
6779.54,0.58778
6756.39,0.58346
6733.25,0.59023
6710.1,0.59189
6686.96,0.58966
6663.82,0.59592
6640.67,0.60043
6617.53,0.60005
6594.38,0.60815
6571.24,0.60739
6548.09,0.61842
6524.95,0.61850
6501.8,0.61929
6478.66,0.61690
6455.51,0.62461
6432.37,0.62034
6409.22,0.62439
6386.08,0.62589
6362.93,0.62711
6339.79,0.62909
6316.64,0.63302
6293.5,0.63597
6270.35,0.64155
6247.21,0.64952
6224.06,0.65349
6200.92,0.66378
6177.77,0.66735
6154.63,0.67343
6131.48,0.67776
6108.34,0.68190
6085.19,0.68526
6062.05,0.68384
6038.9,0.68155
6015.76,0.67284
5992.61,0.66343
5969.47,0.66198
5946.32,0.66085
5923.18,0.66651
5900.03,0.65954
5876.89,0.65923
5853.74,0.65855
5830.6,0.65467
5807.45,0.65172
5784.31,0.65241
5761.16,0.65610
5738.02,0.65603
5714.87,0.65600
5691.73,0.65237
5668.58,0.65235
5645.44,0.65200
5622.29,0.65284
5599.15,0.65110
5576,0.65169
5552.86,0.65402
5529.71,0.65849
5506.57,0.65719
5483.42,0.65942
5460.28,0.66161
5437.13,0.66834
5413.99,0.67331
5390.84,0.67595
5367.7,0.67824
5344.55,0.67468
5321.41,0.66400
5298.26,0.64498
5275.12,0.60809
5251.97,0.56344
5228.83,0.53194
5205.68,0.51787
5182.54,0.51401
5159.39,0.51999
5136.25,0.53374
5113.1,0.54589
5089.96,0.55583
5066.81,0.56828
5043.67,0.57761
5020.52,0.58490
4997.38,0.58529
4974.23,0.57806
4951.09,0.56269
4927.94,0.53893
4904.8,0.51546
4881.65,0.49350
4858.51,0.47447
4835.36,0.45710
4812.22,0.44475
4789.07,0.43732
4765.93,0.43537
4742.78,0.43390
4719.64,0.43572
4696.49,0.43920
4673.35,0.44386
4650.2,0.45422
4627.06,0.46442
4603.92,0.47721
4580.77,0.48918
4557.63,0.49780
4534.48,0.50321
4511.34,0.50556
4488.19,0.49842
4465.05,0.47635
4441.9,0.44845
4418.76,0.41558
4395.61,0.40022
4372.47,0.40805
4349.32,0.41435
4326.18,0.40946
4303.03,0.39889
4279.89,0.39104
4256.74,0.39473
4233.6,0.39842
4210.45,0.39830
4187.31,0.40047
4164.16,0.40599
4141.02,0.40035
4117.87,0.38629
4094.73,0.36531
4071.58,0.34229
4048.44,0.32001
4025.29,0.30713
4002.15,0.30572
3979,0.31114
3955.86,0.32052
3932.71,0.33202
3909.57,0.34330
3886.42,0.35330
3863.28,0.36251
3840.13,0.37220
3816.99,0.37449
3793.84,0.37426
3770.7,0.37209
3747.55,0.36538
3724.41,0.34966
3701.26,0.32169
3678.12,0.26889
3654.97,0.19866
3631.83,0.14914
3608.68,0.11179
3585.54,0.08524
3562.39,0.06950
3539.25,0.06038
3516.1,0.05470
3492.96,0.04971
3469.81,0.04733
3446.67,0.04644
3423.52,0.04633
3400.38,0.04650
3377.23,0.04652
3354.09,0.04792
3330.94,0.05154
3307.8,0.05518
3284.65,0.05765
3261.51,0.06190
3238.36,0.06765
3215.22,0.07395
3192.07,0.08133
3168.93,0.08915
3145.78,0.09766
3122.64,0.10579
3099.49,0.11331
3076.35,0.12004
3053.2,0.12621
3030.06,0.12932
3006.91,0.12327
2983.77,0.10976
2960.62,0.08584
2937.48,0.07415
2914.33,0.07310
2891.19,0.07676
2868.04,0.08245
2844.9,0.09487
2821.75,0.11739
2798.61,0.13622
2775.46,0.14463
2752.32,0.14743
2729.17,0.14955
2706.03,0.15705
2682.88,0.16565
2659.74,0.17179
2636.59,0.17806
2613.45,0.18499
2590.3,0.19109
2567.16,0.19529
2544.02,0.19625
2520.87,0.20202
2497.73,0.21160
2474.58,0.22113
2451.44,0.22991
2428.29,0.24098
2405.15,0.25330
2382,0.26419
2358.86,0.27341
2335.71,0.27924
2312.57,0.28274
2289.42,0.28170
2266.28,0.27772
2243.13,0.27318
2219.99,0.27169
2196.84,0.26730
2173.7,0.25485
2150.55,0.24587
2127.41,0.24391
2104.26,0.24759
2081.12,0.24836
2057.97,0.24436
2034.83,0.25016
2011.68,0.26272
1988.54,0.27011
1965.39,0.27619
1942.25,0.28770
1919.1,0.29369
1895.96,0.29122
1872.81,0.28944
1849.67,0.28601
1826.52,0.27517
1803.38,0.25509
1780.23,0.21314
1757.09,0.12352
1733.94,0.09109
1710.8,0.11625
1687.65,0.12119
1664.51,0.09168
1641.36,0.08664
1618.22,0.08632
1595.07,0.08224
1571.93,0.11871
1548.78,0.13840
1525.64,0.09142
1502.49,0.06601
1479.35,0.07353
1456.2,0.05809
1433.06,0.05556
1409.91,0.06295
1386.77,0.05719
1363.62,0.05605
1340.48,0.05725
1317.33,0.05553
1294.19,0.05612
1271.04,0.05028
1247.9,0.05449
1224.75,0.05429
1201.61,0.05473
1178.46,0.04768
1155.32,0.05151
1132.17,0.04270
1109.03,0.04905
1085.88,0.04982
1062.74,0.07401
1039.59,0.07652
1016.45,0.08792
993.304,0.09563
970.159,0.11445
947.014,0.12526
923.869,0.13290
900.724,0.11222
877.579,0.11889
854.434,0.12068
831.289,0.12133
808.144,0.10649
784.999,0.10870
761.854,0.09995
738.709,0.09444
715.565,0.08666
692.42,0.08018
669.275,0.07481
646.13,0.07757
622.985,0.07367
599.84,0.08120

File: Pine_Siding_IS_S_220916_R8.dpt
7497.03,0.84227
7473.89,0.83078
7450.74,0.81986
7427.6,0.81561
7404.45,0.80553
7381.31,0.79559
7358.16,0.78666
7335.02,0.77678
7311.87,0.77037
7288.73,0.77042
7265.58,0.77630
7242.44,0.76135
7219.29,0.76798
7196.15,0.75583
7173,0.74585
7149.86,0.73609
7126.71,0.72184
7103.57,0.70523
7080.42,0.68252
7057.28,0.66136
7034.13,0.63672
7010.99,0.61190
6987.84,0.60363
6964.7,0.59604
6941.55,0.58523
6918.41,0.58924
6895.26,0.59014
6872.12,0.58554
6848.97,0.58351
6825.83,0.58681
6802.68,0.58357
6779.54,0.58287
6756.39,0.59284
6733.25,0.58840
6710.1,0.59325
6686.96,0.59347
6663.82,0.59496
6640.67,0.60310
6617.53,0.60682
6594.38,0.61129
6571.24,0.61748
6548.09,0.61136
6524.95,0.62000
6501.8,0.62049
6478.66,0.61988
6455.51,0.62352
6432.37,0.62028
6409.22,0.62071
6386.08,0.62536
6362.93,0.62689
6339.79,0.62942
6316.64,0.62966
6293.5,0.63886
6270.35,0.63955
6247.21,0.64695
6224.06,0.65982
6200.92,0.66125
6177.77,0.66999
6154.63,0.67360
6131.48,0.67933
6108.34,0.68337
6085.19,0.68503
6062.05,0.68020
6038.9,0.67765
6015.76,0.67134
5992.61,0.66052
5969.47,0.66088
5946.32,0.66173
5923.18,0.66677
5900.03,0.66276
5876.89,0.65691
5853.74,0.65607
5830.6,0.65534
5807.45,0.65440
5784.31,0.65555
5761.16,0.65709
5738.02,0.65355
5714.87,0.65489
5691.73,0.65426
5668.58,0.65130
5645.44,0.65226
5622.29,0.65253
5599.15,0.65154
5576,0.65305
5552.86,0.65503
5529.71,0.65785
5506.57,0.65867
5483.42,0.66037
5460.28,0.66363
5437.13,0.66742
5413.99,0.67408
5390.84,0.67561
5367.7,0.67667
5344.55,0.67436
5321.41,0.66471
5298.26,0.64628
5275.12,0.60933
5251.97,0.56579
5228.83,0.53433
5205.68,0.52043
5182.54,0.51689
5159.39,0.52270
5136.25,0.53620
5113.1,0.54615
5089.96,0.55909
5066.81,0.57016
5043.67,0.57926
5020.52,0.58589
4997.38,0.58611
4974.23,0.57944
4951.09,0.56220
4927.94,0.53907
4904.8,0.51514
4881.65,0.49430
4858.51,0.47237
4835.36,0.45689
4812.22,0.44495
4789.07,0.43816
4765.93,0.43302
4742.78,0.43402
4719.64,0.43649
4696.49,0.43917
4673.35,0.44482
4650.2,0.45380
4627.06,0.46352
4603.92,0.47822
4580.77,0.48948
4557.63,0.49757
4534.48,0.50342
4511.34,0.50660
4488.19,0.49805
4465.05,0.47650
4441.9,0.44748
4418.76,0.41568
4395.61,0.40000
4372.47,0.40854
4349.32,0.41357
4326.18,0.40864
4303.03,0.39805
4279.89,0.39089
4256.74,0.39490
4233.6,0.39823
4210.45,0.39804
4187.31,0.39990
4164.16,0.40546
4141.02,0.40090
4117.87,0.38597
4094.73,0.36590
4071.58,0.34201
4048.44,0.31972
4025.29,0.30679
4002.15,0.30537
3979,0.31133
3955.86,0.32046
3932.71,0.33289
3909.57,0.34371
3886.42,0.35314
3863.28,0.36250
3840.13,0.37246
3816.99,0.37482
3793.84,0.37376
3770.7,0.37229
3747.55,0.36634
3724.41,0.35118
3701.26,0.32331
3678.12,0.27062
3654.97,0.20014
3631.83,0.15029
3608.68,0.11266
3585.54,0.08542
3562.39,0.07034
3539.25,0.05968
3516.1,0.05452
3492.96,0.05017
3469.81,0.04753
3446.67,0.04546
3423.52,0.04641
3400.38,0.04635
3377.23,0.04702
3354.09,0.04845
3330.94,0.05254
3307.8,0.05482
3284.65,0.05740
3261.51,0.06183
3238.36,0.06799
3215.22,0.07411
3192.07,0.08132
3168.93,0.08955
3145.78,0.09753
3122.64,0.10610
3099.49,0.11380
3076.35,0.11998
3053.2,0.12671
3030.06,0.12982
3006.91,0.12370
2983.77,0.10928
2960.62,0.08560
2937.48,0.07443
2914.33,0.07352
2891.19,0.07669
2868.04,0.08239
2844.9,0.09441
2821.75,0.11790
2798.61,0.13655
2775.46,0.14437
2752.32,0.14805
2729.17,0.14988
2706.03,0.15711
2682.88,0.16583
2659.74,0.17219
2636.59,0.17803
2613.45,0.18507
2590.3,0.19103
2567.16,0.19544
2544.02,0.19638
2520.87,0.20221
2497.73,0.21139
2474.58,0.22088
2451.44,0.22990
2428.29,0.24127
2405.15,0.25335
2382,0.26432
2358.86,0.27387
2335.71,0.27983
2312.57,0.28280
2289.42,0.28151
2266.28,0.27795
2243.13,0.27365
2219.99,0.27191
2196.84,0.26794
2173.7,0.25512
2150.55,0.24608
2127.41,0.24414
2104.26,0.24826
2081.12,0.24855
2057.97,0.24447
2034.83,0.25082
2011.68,0.26330
1988.54,0.27059
1965.39,0.27650
1942.25,0.28825
1919.1,0.29398
1895.96,0.29188
1872.81,0.28974
1849.67,0.28627
1826.52,0.27583
1803.38,0.25504
1780.23,0.21280
1757.09,0.12324
1733.94,0.09158
1710.8,0.11609
1687.65,0.12130
1664.51,0.09195
1641.36,0.08654
1618.22,0.08669
1595.07,0.08216
1571.93,0.11862
1548.78,0.13859
1525.64,0.09203
1502.49,0.06586
1479.35,0.07352
1456.2,0.05775
1433.06,0.05579
1409.91,0.06298
1386.77,0.05687
1363.62,0.05618
1340.48,0.05716
1317.33,0.05545
1294.19,0.05590
1271.04,0.05053
1247.9,0.05491
1224.75,0.05454
1201.61,0.05461
1178.46,0.04719
1155.32,0.05147
1132.17,0.04233
1109.03,0.04932
1085.88,0.04987
1062.74,0.07357
1039.59,0.07613
1016.45,0.08777
993.304,0.09606
970.159,0.11468
947.014,0.12530
923.869,0.13295
900.724,0.11207
877.579,0.11882
854.434,0.12191
831.289,0.12236
808.144,0.10703
784.999,0.10872
761.854,0.09970
738.709,0.09431
715.565,0.08619
692.42,0.08166
669.275,0.07559
646.13,0.07797
622.985,0.07432
599.84,0.08088

File: Pine_Siding_IS_T_220916_R2.dpt
7497.03,0.03047
7473.89,0.01928
7450.74,0.02433
7427.6,0.02969
7404.45,0.02718
7381.31,0.02043
7358.16,0.02859
7335.02,0.02319
7311.87,0.02003
7288.73,0.02126
7265.58,0.02026
7242.44,0.02374
7219.29,0.02265
7196.15,0.02135
7173,0.02431
7149.86,0.02297
7126.71,0.02459
7103.57,0.02445
7080.42,0.02916
7057.28,0.02216
7034.13,0.02821
7010.99,0.02420
6987.84,0.02010
6964.7,0.02062
6941.55,0.02891
6918.41,0.02237
6895.26,0.01951
6872.12,0.02226
6848.97,0.01887
6825.83,0.02270
6802.68,0.02628
6779.54,0.02158
6756.39,0.02376
6733.25,0.02425
6710.1,0.02563
6686.96,0.02400
6663.82,0.02024
6640.67,0.02378
6617.53,0.02371
6594.38,0.02207
6571.24,0.02140
6548.09,0.02547
6524.95,0.02396
6501.8,0.02238
6478.66,0.01759
6455.51,0.02348
6432.37,0.02317
6409.22,0.02354
6386.08,0.02160
6362.93,0.02316
6339.79,0.02357
6316.64,0.01875
6293.5,0.02178
6270.35,0.02104
6247.21,0.02197
6224.06,0.02132
6200.92,0.02392
6177.77,0.01909
6154.63,0.02371
6131.48,0.02385
6108.34,0.02423
6085.19,0.01924
6062.05,0.02176
6038.9,0.01992
6015.76,0.02275
5992.61,0.02445
5969.47,0.02001
5946.32,0.02212
5923.18,0.02156
5900.03,0.01931
5876.89,0.02155
5853.74,0.01950
5830.6,0.02279
5807.45,0.02175
5784.31,0.02293
5761.16,0.01946
5738.02,0.01930
5714.87,0.02189
5691.73,0.02118
5668.58,0.02120
5645.44,0.02328
5622.29,0.02047
5599.15,0.02348
5576,0.02253
5552.86,0.02065
5529.71,0.02242
5506.57,0.02246
5483.42,0.02117
5460.28,0.02343
5437.13,0.02324
5413.99,0.02218
5390.84,0.02064
5367.7,0.02021
5344.55,0.02235
5321.41,0.02022
5298.26,0.02009
5275.12,0.02176
5251.97,0.02142
5228.83,0.02266
5205.68,0.02152
5182.54,0.02112
5159.39,0.02191
5136.25,0.02144
5113.1,0.02201
5089.96,0.02177
5066.81,0.02212
5043.67,0.02233
5020.52,0.02204
4997.38,0.02204
4974.23,0.02213
4951.09,0.02153
4927.94,0.02312
4904.8,0.02128
4881.65,0.02211
4858.51,0.02068
4835.36,0.02129
4812.22,0.02114
4789.07,0.02161
4765.93,0.02279
4742.78,0.02213
4719.64,0.02172
4696.49,0.02156
4673.35,0.02192
4650.2,0.02157
4627.06,0.02299
4603.92,0.02217
4580.77,0.02262
4557.63,0.02215
4534.48,0.02150
4511.34,0.02222
4488.19,0.02199
4465.05,0.02239
4441.9,0.02195
4418.76,0.02236
4395.61,0.02262
4372.47,0.02274
4349.32,0.02269
4326.18,0.02211
4303.03,0.02161
4279.89,0.02156
4256.74,0.02191
4233.6,0.02190
4210.45,0.02188
4187.31,0.02336
4164.16,0.02230
4141.02,0.02231
4117.87,0.02193
4094.73,0.02149
4071.58,0.02232
4048.44,0.02202
4025.29,0.02300
4002.15,0.02220
3979,0.02279
3955.86,0.02253
3932.71,0.02207
3909.57,0.02257
3886.42,0.02246
3863.28,0.02222
3840.13,0.02190
3816.99,0.02248
3793.84,0.02266
3770.7,0.02260
3747.55,0.02233
3724.41,0.02218
3701.26,0.02260
3678.12,0.02284
3654.97,0.02249
3631.83,0.02154
3608.68,0.02088
3585.54,0.02069
3562.39,0.02095
3539.25,0.02043
3516.1,0.02114
3492.96,0.02072
3469.81,0.02047
3446.67,0.02031
3423.52,0.02087
3400.38,0.01957
3377.23,0.02067
3354.09,0.02020
3330.94,0.01989
3307.8,0.02041
3284.65,0.01975
3261.51,0.02083
3238.36,0.02045
3215.22,0.01990
3192.07,0.02002
3168.93,0.02117
3145.78,0.02091
3122.64,0.02061
3099.49,0.02113
3076.35,0.02028
3053.2,0.02100
3030.06,0.02055
3006.91,0.02061
2983.77,0.01991
2960.62,0.01915
2937.48,0.01948
2914.33,0.02044
2891.19,0.02024
2868.04,0.01977
2844.9,0.02110
2821.75,0.02126
2798.61,0.02103
2775.46,0.02086
2752.32,0.02105
2729.17,0.02090
2706.03,0.02070
2682.88,0.02117
2659.74,0.02139
2636.59,0.02102
2613.45,0.02137
2590.3,0.02154
2567.16,0.02110
2544.02,0.02112
2520.87,0.02087
2497.73,0.02060
2474.58,0.02088
2451.44,0.02074
2428.29,0.02130
2405.15,0.02075
2382,0.02077
2358.86,0.02178
2335.71,0.02115
2312.57,0.02094
2289.42,0.02092
2266.28,0.02074
2243.13,0.02088
2219.99,0.02106
2196.84,0.02098
2173.7,0.02059
2150.55,0.02090
2127.41,0.02112
2104.26,0.02083
2081.12,0.02099
2057.97,0.02110
2034.83,0.02095
2011.68,0.02074
1988.54,0.02042
1965.39,0.02079
1942.25,0.02086
1919.1,0.02057
1895.96,0.02068
1872.81,0.02049
1849.67,0.01996
1826.52,0.02032
1803.38,0.01940
1780.23,0.01893
1757.09,0.01748
1733.94,0.01977
1710.8,0.02024
1687.65,0.01920
1664.51,0.01847
1641.36,0.01818
1618.22,0.01854
1595.07,0.01886
1571.93,0.01833
1548.78,0.01829
1525.64,0.01921
1502.49,0.01862
1479.35,0.01836
1456.2,0.01858
1433.06,0.01864
1409.91,0.01826
1386.77,0.01784
1363.62,0.01816
1340.48,0.01776
1317.33,0.01684
1294.19,0.01736
1271.04,0.01925
1247.9,0.02030
1224.75,0.01947
1201.61,0.01814
1178.46,0.01786
1155.32,0.01741
1132.17,0.01833
1109.03,0.01877
1085.88,0.01718
1062.74,0.02025
1039.59,0.02004
1016.45,0.01892
993.304,0.02098
970.159,0.02008
947.014,0.01960
923.869,0.01917
900.724,0.01882
877.579,0.01859
854.434,0.01921
831.289,0.01904
808.144,0.01868
784.999,0.01828
761.854,0.01802
738.709,0.01837
715.565,0.01859
692.42,0.01700
669.275,0.01781
646.13,0.01682
622.985,0.01527
599.84,0.01598