Folder: fsri_materials_database/01_Data/Pine_Siding/FTIR/IS

Note: README.md
# Materials and Products Database
### Repository of materials and products properties and fire test data to improve fire modeling and fire investigation.

This project was supported in part by Award No. 2019-DU-BX-0018, awarded by the National Institute of Justice, Office of Justice Programs, U.S. Department of Justice. The opinions, findings, and conclusions or recommendations expressed in this publication / program / exhibition are those of the author(s) and do not necessarily reflect those of the Department of Justice.

***
***

__Cite this database:__ "McKinnon, M., Weinschenk, C., Dow, N., DiDomizio, M., and Madrzykowski, D. Materials and Products Database (Version 1.0.0), Fire Safety Research Institute, UL Research Institutes. Columbia, MD 21045, 2023."

__Cite the Technical Reference Guide:__ "McKinnon, M., Weinschenk, C., and Madrzykowski, D. Materials and Products Database - Technical Reference Guide, Fire Safety Research Institute, UL Research Institutes. Columbia, MD 21045, 2023."

__Cite the User Guide:__ "McKinnon, M., and Weinschenk, C. Materials and Products Database - User Guide, Fire Safety Research Institute, UL Research Institutes. Columbia, MD 21045, 2023."

***
***

## Database Structure

## 01_Data/
Raw data generated from each apparatus are included here in plain-text format. The data is organized first by material, next by the short name of test apparatus used, and where applicable additional filtering by test settings.

### Test Apparatus and Data File Structure
- __Cone Calorimeter__ (Cone)
    + Data file structure includes the material, the short name for the apparatus, heat flux setting and scan/scalar, date of test, and replicate number. Scan is for the raw output data and scalar is for the initial conditions and high-level test parameters. 
        * Example: __MDF_Cone_HF25scalar_210323_R1__ stands for the first replicate of scalar data generated from a medium density fiber board test in cone calorimeter exposed to 25 kW/m<sup>2</sup> on March 23, 2021.
    + A _Cone_Notes.csv_ is generated for each material from the __plot_Cone_data.py__ script. For materials whose experiments deviated from typical behavior relevant pictures are included in the respective material directory.
- __Fourier Transform Infrared Spectrometer__ (FTIR)
    + The FTIR directory contains subdirectories for the Attenuated Total Reflectance method (ATR) and the Integrating Sphere (IS)
    + Data file structure for the ATR experiment files includes the material, the abbreviated name for the apparatus, date of test, and replicate number. 
        * Example: __MDF_ATR_210323_R5__ stands for the fifth replicate of data collected with the ATR accessory conducted on June 8, 2021.
    + Data file structure for the IS experiment files includes the material, the abbreviated name for the apparatus, the measurand, whether the test is a sample measurement or standard reference, date of test, and replicate number.
        * Example: __OSB_IS_REFLECT_MEAS_2

File: Pine_Siding_IS_S_220916_R1.dpt
7497.03,0.83752
7473.89,0.82659
7450.74,0.81073
7427.6,0.80640
7404.45,0.79634
7381.31,0.79651
7358.16,0.78258
7335.02,0.76468
7311.87,0.76670
7288.73,0.76038
7265.58,0.75917
7242.44,0.75989
7219.29,0.76061
7196.15,0.75156
7173,0.74453
7149.86,0.73203
7126.71,0.70888
7103.57,0.69285
7080.42,0.67168
7057.28,0.64853
7034.13,0.62680
7010.99,0.60555
6987.84,0.59873
6964.7,0.59172
6941.55,0.58548
6918.41,0.58066
6895.26,0.57810
6872.12,0.57900
6848.97,0.57846
6825.83,0.57579
6802.68,0.57894
6779.54,0.58161
6756.39,0.58147
6733.25,0.58209
6710.1,0.57926
6686.96,0.58575
6663.82,0.58852
6640.67,0.59285
6617.53,0.59626
6594.38,0.60601
6571.24,0.60177
6548.09,0.60631
6524.95,0.60420
6501.8,0.60778
6478.66,0.61022
6455.51,0.61027
6432.37,0.61822
6409.22,0.61597
6386.08,0.62025
6362.93,0.61953
6339.79,0.62480
6316.64,0.62235
6293.5,0.62935
6270.35,0.63341
6247.21,0.64100
6224.06,0.64811
6200.92,0.65723
6177.77,0.65758
6154.63,0.66773
6131.48,0.67300
6108.34,0.67287
6085.19,0.67694
6062.05,0.67671
6038.9,0.66763
6015.76,0.66555
5992.61,0.65644
5969.47,0.65741
5946.32,0.65669
5923.18,0.65973
5900.03,0.65321
5876.89,0.65102
5853.74,0.65340
5830.6,0.65277
5807.45,0.64750
5784.31,0.64583
5761.16,0.65010
5738.02,0.64978
5714.87,0.64819
5691.73,0.64557
5668.58,0.64453
5645.44,0.64845
5622.29,0.64537
5599.15,0.64632
5576,0.64576
5552.86,0.64594
5529.71,0.65032
5506.57,0.65233
5483.42,0.65344
5460.28,0.65501
5437.13,0.66051
5413.99,0.66557
5390.84,0.66808
5367.7,0.66783
5344.55,0.66523
5321.41,0.65240
5298.26,0.62630
5275.12,0.58393
5251.97,0.53305
5228.83,0.49779
5205.68,0.48046
5182.54,0.47669
5159.39,0.48415
5136.25,0.49684
5113.1,0.51091
5089.96,0.52441
5066.81,0.53645
5043.67,0.54966
5020.52,0.55850
4997.38,0.56383
4974.23,0.55908
4951.09,0.54834
4927.94,0.52970
4904.8,0.50888
4881.65,0.48793
4858.51,0.46843
4835.36,0.45221
4812.22,0.44030
4789.07,0.43447
4765.93,0.42970
4742.78,0.42925
4719.64,0.43108
4696.49,0.43454
4673.35,0.43819
4650.2,0.44939
4627.06,0.45823
4603.92,0.47176
4580.77,0.48363
4557.63,0.49091
4534.48,0.49786
4511.34,0.49960
4488.19,0.49146
4465.05,0.47087
4441.9,0.44190
4418.76,0.41149
4395.61,0.39632
4372.47,0.40499
4349.32,0.40985
4326.18,0.40524
4303.03,0.39406
4279.89,0.38648
4256.74,0.39022
4233.6,0.39359
4210.45,0.39279
4187.31,0.39385
4164.16,0.39853
4141.02,0.39370
4117.87,0.37862
4094.73,0.35841
4071.58,0.33586
4048.44,0.31398
4025.29,0.30103
4002.15,0.29919
3979,0.30517
3955.86,0.31364
3932.71,0.32415
3909.57,0.33519
3886.42,0.34389
3863.28,0.35243
3840.13,0.36243
3816.99,0.36327
3793.84,0.36087
3770.7,0.35663
3747.55,0.34762
3724.41,0.33014
3701.26,0.29937
3678.12,0.24210
3654.97,0.17150
3631.83,0.12680
3608.68,0.09773
3585.54,0.07731
3562.39,0.06581
3539.25,0.05809
3516.1,0.05258
3492.96,0.04879
3469.81,0.04603
3446.67,0.04502
3423.52,0.04514
3400.38,0.04500
3377.23,0.04650
3354.09,0.04772
3330.94,0.05131
3307.8,0.05346
3284.65,0.05641
3261.51,0.06000
3238.36,0.06482
3215.22,0.07123
3192.07,0.07701
3168.93,0.08313
3145.78,0.09081
3122.64,0.09828
3099.49,0.10519
3076.35,0.11133
3053.2,0.11762
3030.06,0.12132
3006.91,0.11756
2983.77,0.10575
2960.62,0.08455
2937.48,0.07404
2914.33,0.07259
2891.19,0.07605
2868.04,0.08190
2844.9,0.09308
2821.75,0.11537
2798.61,0.13264
2775.46,0.14041
2752.32,0.14367
2729.17,0.14587
2706.03,0.15198
2682.88,0.16122
2659.74,0.16700
2636.59,0.17343
2613.45,0.18006
2590.3,0.18639
2567.16,0.18984
2544.02,0.19163
2520.87,0.19728
2497.73,0.20684
2474.58,0.21584
2451.44,0.22489
2428.29,0.23519
2405.15,0.24677
2382,0.25748
2358.86,0.26549
2335.71,0.27065
2312.57,0.27313
2289.42,0.27121
2266.28,0.26675
2243.13,0.26229
2219.99,0.25918
2196.84,0.25433
2173.7,0.24179
2150.55,0.23329
2127.41,0.23148
2104.26,0.23421
2081.12,0.23524
2057.97,0.23204
2034.83,0.23784
2011.68,0.25015
1988.54,0.25747
1965.39,0.26322
1942.25,0.27464
1919.1,0.28056
1895.96,0.27934
1872.81,0.27730
1849.67,0.27412
1826.52,0.26456
1803.38,0.24489
1780.23,0.20710
1757.09,0.12314
1733.94,0.08939
1710.8,0.11140
1687.65,0.11306
1664.51,0.08552
1641.36,0.08016
1618.22,0.08162
1595.07,0.07972
1571.93,0.11412
1548.78,0.13259
1525.64,0.08903
1502.49,0.06550
1479.35,0.07243
1456.2,0.05725
1433.06,0.05494
1409.91,0.06241
1386.77,0.05628
1363.62,0.05578
1340.48,0.05676
1317.33,0.05562
1294.19,0.05625
1271.04,0.05012
1247.9,0.05398
1224.75,0.05441
1201.61,0.05476
1178.46,0.04734
1155.32,0.05118
1132.17,0.04169
1109.03,0.04918
1085.88,0.04876
1062.74,0.07301
1039.59,0.07521
1016.45,0.08634
993.304,0.09467
970.159,0.11357
947.014,0.12333
923.869,0.12995
900.724,0.10890
877.579,0.11573
854.434,0.11634
831.289,0.11495
808.144,0.10092
784.999,0.10163
761.854,0.09305
738.709,0.08934
715.565,0.08227
692.42,0.07648
669.275,0.07280
646.13,0.07413
622.985,0.07150
599.84,0.07652

File: Pine_Siding_IS_S_220916_R2.dpt
7497.03,0.83438
7473.89,0.82784
7450.74,0.82108
7427.6,0.80830
7404.45,0.79816
7381.31,0.79138
7358.16,0.78147
7335.02,0.77975
7311.87,0.77692
7288.73,0.76449
7265.58,0.77198
7242.44,0.76609
7219.29,0.76062
7196.15,0.75036
7173,0.74706
7149.86,0.72910
7126.71,0.71143
7103.57,0.69334
7080.42,0.67635
7057.28,0.64771
7034.13,0.63410
7010.99,0.61184
6987.84,0.59883
6964.7,0.59327
6941.55,0.58445
6918.41,0.58380
6895.26,0.58247
6872.12,0.58139
6848.97,0.58520
6825.83,0.58183
6802.68,0.57853
6779.54,0.58051
6756.39,0.58044
6733.25,0.58607
6710.1,0.58771
6686.96,0.58904
6663.82,0.59040
6640.67,0.59414
6617.53,0.60292
6594.38,0.60388
6571.24,0.60871
6548.09,0.61432
6524.95,0.60763
6501.8,0.61466
6478.66,0.61124
6455.51,0.61481
6432.37,0.61878
6409.22,0.62315
6386.08,0.62278
6362.93,0.62726
6339.79,0.62695
6316.64,0.62798
6293.5,0.63021
6270.35,0.63800
6247.21,0.64322
6224.06,0.65603
6200.92,0.66171
6177.77,0.66681
6154.63,0.67107
6131.48,0.67692
6108.34,0.68043
6085.19,0.68231
6062.05,0.67926
6038.9,0.67495
6015.76,0.66838
5992.61,0.65964
5969.47,0.65650
5946.32,0.66042
5923.18,0.66318
5900.03,0.65692
5876.89,0.65582
5853.74,0.66059
5830.6,0.65496
5807.45,0.65061
5784.31,0.65214
5761.16,0.65454
5738.02,0.65206
5714.87,0.64878
5691.73,0.65034
5668.58,0.64811
5645.44,0.64854
5622.29,0.64777
5599.15,0.64831
5576,0.64924
5552.86,0.65240
5529.71,0.65344
5506.57,0.65367
5483.42,0.65693
5460.28,0.66074
5437.13,0.66450
5413.99,0.67019
5390.84,0.67257
5367.7,0.67327
5344.55,0.66923
5321.41,0.65747
5298.26,0.63416
5275.12,0.59463
5251.97,0.54706
5228.83,0.51296
5205.68,0.49522
5182.54,0.49358
5159.39,0.50126
5136.25,0.51342
5113.1,0.52599
5089.96,0.53742
5066.81,0.55010
5043.67,0.56232
5020.52,0.57048
4997.38,0.57490
4974.23,0.56888
4951.09,0.55409
4927.94,0.53535
4904.8,0.51231
4881.65,0.49093
4858.51,0.47052
4835.36,0.45494
4812.22,0.44197
4789.07,0.43710
4765.93,0.43120
4742.78,0.43139
4719.64,0.43443
4696.49,0.43706
4673.35,0.44231
4650.2,0.45161
4627.06,0.46164
4603.92,0.47646
4580.77,0.48641
4557.63,0.49326
4534.48,0.50054
4511.34,0.50266
4488.19,0.49475
4465.05,0.47317
4441.9,0.44682
4418.76,0.41458
4395.61,0.39879
4372.47,0.40671
4349.32,0.41282
4326.18,0.40688
4303.03,0.39644
4279.89,0.38896
4256.74,0.39269
4233.6,0.39634
4210.45,0.39539
4187.31,0.39781
4164.16,0.40266
4141.02,0.39695
4117.87,0.38269
4094.73,0.36196
4071.58,0.33851
4048.44,0.31677
4025.29,0.30359
4002.15,0.30242
3979,0.30833
3955.86,0.31733
3932.71,0.32882
3909.57,0.33976
3886.42,0.34903
3863.28,0.35718
3840.13,0.36631
3816.99,0.36933
3793.84,0.36749
3770.7,0.36440
3747.55,0.35580
3724.41,0.33970
3701.26,0.31013
3678.12,0.25452
3654.97,0.18295
3631.83,0.13689
3608.68,0.10434
3585.54,0.08146
3562.39,0.06774
3539.25,0.05885
3516.1,0.05357
3492.96,0.04945
3469.81,0.04655
3446.67,0.04567
3423.52,0.04587
3400.38,0.04578
3377.23,0.04643
3354.09,0.04823
3330.94,0.05070
3307.8,0.05499
3284.65,0.05643
3261.51,0.06139
3238.36,0.06628
3215.22,0.07210
3192.07,0.07951
3168.93,0.08624
3145.78,0.09426
3122.64,0.10195
3099.49,0.10954
3076.35,0.11543
3053.2,0.12219
3030.06,0.12538
3006.91,0.12015
2983.77,0.10709
2960.62,0.08459
2937.48,0.07439
2914.33,0.07334
2891.19,0.07653
2868.04,0.08199
2844.9,0.09381
2821.75,0.11684
2798.61,0.13412
2775.46,0.14194
2752.32,0.14584
2729.17,0.14791
2706.03,0.15511
2682.88,0.16337
2659.74,0.16926
2636.59,0.17607
2613.45,0.18240
2590.3,0.18888
2567.16,0.19284
2544.02,0.19388
2520.87,0.20000
2497.73,0.20876
2474.58,0.21870
2451.44,0.22762
2428.29,0.23836
2405.15,0.25028
2382,0.26077
2358.86,0.26945
2335.71,0.27534
2312.57,0.27772
2289.42,0.27663
2266.28,0.27221
2243.13,0.26767
2219.99,0.26528
2196.84,0.26041
2173.7,0.24800
2150.55,0.23941
2127.41,0.23712
2104.26,0.24050
2081.12,0.24167
2057.97,0.23783
2034.83,0.24355
2011.68,0.25645
1988.54,0.26356
1965.39,0.26946
1942.25,0.28089
1919.1,0.28673
1895.96,0.28485
1872.81,0.28359
1849.67,0.27966
1826.52,0.26975
1803.38,0.24980
1780.23,0.21041
1757.09,0.12351
1733.94,0.09052
1710.8,0.11365
1687.65,0.11714
1664.51,0.08839
1641.36,0.08357
1618.22,0.08421
1595.07,0.08104
1571.93,0.11633
1548.78,0.13553
1525.64,0.09039
1502.49,0.06594
1479.35,0.07322
1456.2,0.05773
1433.06,0.05565
1409.91,0.06277
1386.77,0.05643
1363.62,0.05591
1340.48,0.05699
1317.33,0.05572
1294.19,0.05635
1271.04,0.05001
1247.9,0.05482
1224.75,0.05445
1201.61,0.05479
1178.46,0.04725
1155.32,0.05150
1132.17,0.04258
1109.03,0.04879
1085.88,0.04962
1062.74,0.07403
1039.59,0.07599
1016.45,0.08699
993.304,0.09577
970.159,0.11426
947.014,0.12440
923.869,0.13206
900.724,0.11059
877.579,0.11720
854.434,0.11840
831.289,0.11839
808.144,0.10265
784.999,0.10504
761.854,0.09701
738.709,0.09158
715.565,0.08347
692.42,0.07874
669.275,0.07367
646.13,0.07662
622.985,0.06909
599.84,0.07832

File: Pine_Siding_IS_S_220916_R3.dpt
7497.03,0.83009
7473.89,0.82917
7450.74,0.80973
7427.6,0.81321
7404.45,0.79565
7381.31,0.79067
7358.16,0.78075
7335.02,0.78239
7311.87,0.77289
7288.73,0.77163
7265.58,0.76924
7242.44,0.76121
7219.29,0.76263
7196.15,0.75073
7173,0.74373
7149.86,0.72808
7126.71,0.72812
7103.57,0.70279
7080.42,0.67400
7057.28,0.65521
7034.13,0.62468
7010.99,0.61167
6987.84,0.60007
6964.7,0.59744
6941.55,0.58754
6918.41,0.58630
6895.26,0.58468
6872.12,0.58023
6848.97,0.58057
6825.83,0.58088
6802.68,0.58858
6779.54,0.58558
6756.39,0.58204
6733.25,0.58752
6710.1,0.58259
6686.96,0.59358
6663.82,0.59545
6640.67,0.59414
6617.53,0.59645
6594.38,0.60558
6571.24,0.60768
6548.09,0.60982
6524.95,0.61306
6501.8,0.61699
6478.66,0.61364
6455.51,0.61620
6432.37,0.62033
6409.22,0.61883
6386.08,0.62503
6362.93,0.62683
6339.79,0.62717
6316.64,0.62728
6293.5,0.63118
6270.35,0.63848
6247.21,0.64300
6224.06,0.65408
6200.92,0.65920
6177.77,0.66219
6154.63,0.67416
6131.48,0.67483
6108.34,0.67966
6085.19,0.68378
6062.05,0.67849
6038.9,0.67642
6015.76,0.67058
5992.61,0.66135
5969.47,0.65674
5946.32,0.66076
5923.18,0.66218
5900.03,0.65659
5876.89,0.65467
5853.74,0.65566
5830.6,0.65324
5807.45,0.65037
5784.31,0.65062
5761.16,0.65342
5738.02,0.65436
5714.87,0.65102
5691.73,0.65211
5668.58,0.65048
5645.44,0.64907
5622.29,0.64888
5599.15,0.64677
5576,0.64953
5552.86,0.65122
5529.71,0.65482
5506.57,0.65584
5483.42,0.65859
5460.28,0.65896
5437.13,0.66618
5413.99,0.66995
5390.84,0.67282
5367.7,0.67390
5344.55,0.67118
5321.41,0.65938
5298.26,0.63602
5275.12,0.59752
5251.97,0.55140
5228.83,0.51771
5205.68,0.50259
5182.54,0.49940
5159.39,0.50672
5136.25,0.51807
5113.1,0.53087
5089.96,0.54407
5066.81,0.55573
5043.67,0.56680
5020.52,0.57408
4997.38,0.57630
4974.23,0.57166
4951.09,0.55703
4927.94,0.53652
4904.8,0.51290
4881.65,0.49102
4858.51,0.47228
4835.36,0.45562
4812.22,0.44414
4789.07,0.43605
4765.93,0.43250
4742.78,0.43255
4719.64,0.43487
4696.49,0.43708
4673.35,0.44218
4650.2,0.45213
4627.06,0.46133
4603.92,0.47608
4580.77,0.48729
4557.63,0.49460
4534.48,0.50104
4511.34,0.50302
4488.19,0.49606
4465.05,0.47462
4441.9,0.44675
4418.76,0.41462
4395.61,0.39898
4372.47,0.40746
4349.32,0.41253
4326.18,0.40744
4303.03,0.39688
4279.89,0.38931
4256.74,0.39502
4233.6,0.39650
4210.45,0.39617
4187.31,0.39776
4164.16,0.40340
4141.02,0.39841
4117.87,0.38389
4094.73,0.36240
4071.58,0.33932
4048.44,0.31806
4025.29,0.30436
4002.15,0.30338
3979,0.30888
3955.86,0.31809
3932.71,0.32971
3909.57,0.34027
3886.42,0.34959
3863.28,0.35863
3840.13,0.36826
3816.99,0.37008
3793.84,0.36904
3770.7,0.36597
3747.55,0.35722
3724.41,0.34201
3701.26,0.31313
3678.12,0.25874
3654.97,0.18802
3631.83,0.14044
3608.68,0.10681
3585.54,0.08303
3562.39,0.06836
3539.25,0.05929
3516.1,0.05357
3492.96,0.04954
3469.81,0.04701
3446.67,0.04579
3423.52,0.04588
3400.38,0.04594
3377.23,0.04611
3354.09,0.04865
3330.94,0.05241
3307.8,0.05483
3284.65,0.05670
3261.51,0.06171
3238.36,0.06611
3215.22,0.07317
3192.07,0.08012
3168.93,0.08727
3145.78,0.09565
3122.64,0.10306
3099.49,0.11084
3076.35,0.11665
3053.2,0.12298
3030.06,0.12694
3006.91,0.12135
2983.77,0.10814
2960.62,0.08518
2937.48,0.07396
2914.33,0.07321
2891.19,0.07640
2868.04,0.08246
2844.9,0.09393
2821.75,0.11714
2798.61,0.13526
2775.46,0.14342
2752.32,0.14659
2729.17,0.14858
2706.03,0.15598
2682.88,0.16433
2659.74,0.17053
2636.59,0.17661
2613.45,0.18352
2590.3,0.18946
2567.16,0.19350
2544.02,0.19479
2520.87,0.20066
2497.73,0.20999
2474.58,0.21938
2451.44,0.22803
2428.29,0.23916
2405.15,0.25112
2382,0.26196
2358.86,0.27080
2335.71,0.27652
2312.57,0.27922
2289.42,0.27787
2266.28,0.27392
2243.13,0.26914
2219.99,0.26728
2196.84,0.26283
2173.7,0.25025
2150.55,0.24124
2127.41,0.23920
2104.26,0.24290
2081.12,0.24376
2057.97,0.23963
2034.83,0.24571
2011.68,0.25790
1988.54,0.26537
1965.39,0.27137
1942.25,0.28300
1919.1,0.28876
1895.96,0.28682
1872.81,0.28522
1849.67,0.28146
1826.52,0.27141
1803.38,0.25101
1780.23,0.21115
1757.09,0.12330
1733.94,0.09061
1710.8,0.11490
1687.65,0.11833
1664.51,0.08919
1641.36,0.08450
1618.22,0.08490
1595.07,0.08130
1571.93,0.11705
1548.78,0.13680
1525.64,0.09077
1502.49,0.06598
1479.35,0.07326
1456.2,0.05759
1433.06,0.05564
1409.91,0.06313
1386.77,0.05702
1363.62,0.05576
1340.48,0.05702
1317.33,0.05567
1294.19,0.05657
1271.04,0.05017
1247.9,0.05445
1224.75,0.05470
1201.61,0.05495
1178.46,0.04703
1155.32,0.05188
1132.17,0.04229
1109.03,0.04891
1085.88,0.04924
1062.74,0.07314
1039.59,0.07602
1016.45,0.08796
993.304,0.09536
970.159,0.11445
947.014,0.12422
923.869,0.13160
900.724,0.11113
877.579,0.11837
854.434,0.11977
831.289,0.11964
808.144,0.10493
784.999,0.10610
761.854,0.09711
738.709,0.09218
715.565,0.08471
692.42,0.08015
669.275,0.07348
646.13,0.07585
622.985,0.07384
599.84,0.07711

File: Pine_Siding_IS_S_220916_R4.dpt
7497.03,0.83663
7473.89,0.82476
7450.74,0.81895
7427.6,0.80744
7404.45,0.79546
7381.31,0.78670
7358.16,0.77901
7335.02,0.77515
7311.87,0.77852
7288.73,0.76724
7265.58,0.76196
7242.44,0.76157
7219.29,0.75620
7196.15,0.75536
7173,0.75162
7149.86,0.73417
7126.71,0.71811
7103.57,0.70102
7080.42,0.67985
7057.28,0.65787
7034.13,0.63568
7010.99,0.61681
6987.84,0.60423
6964.7,0.59594
6941.55,0.59157
6918.41,0.58491
6895.26,0.58308
6872.12,0.58252
6848.97,0.58789
6825.83,0.58145
6802.68,0.58393
6779.54,0.58514
6756.39,0.58523
6733.25,0.58740
6710.1,0.58563
6686.96,0.59204
6663.82,0.59454
6640.67,0.59553
6617.53,0.60063
6594.38,0.60216
6571.24,0.60936
6548.09,0.60912
6524.95,0.61270
6501.8,0.61077
6478.66,0.61762
6455.51,0.61464
6432.37,0.61965
6409.22,0.62236
6386.08,0.62322
6362.93,0.62667
6339.79,0.62511
6316.64,0.63112
6293.5,0.63084
6270.35,0.64052
6247.21,0.64650
6224.06,0.65243
6200.92,0.65674
6177.77,0.66493
6154.63,0.67281
6131.48,0.67701
6108.34,0.67987
6085.19,0.68199
6062.05,0.68140
6038.9,0.67604
6015.76,0.66852
5992.61,0.66426
5969.47,0.65914
5946.32,0.65997
5923.18,0.66082
5900.03,0.65895
5876.89,0.65338
5853.74,0.65307
5830.6,0.65506
5807.45,0.64960
5784.31,0.64851
5761.16,0.65026
5738.02,0.65239
5714.87,0.65172
5691.73,0.65101
5668.58,0.65051
5645.44,0.64918
5622.29,0.64953
5599.15,0.64929
5576,0.64892
5552.86,0.65371
5529.71,0.65478
5506.57,0.65533
5483.42,0.65895
5460.28,0.66014
5437.13,0.66480
5413.99,0.66822
5390.84,0.67210
5367.7,0.67302
5344.55,0.66952
5321.41,0.66022
5298.26,0.63832
5275.12,0.60124
5251.97,0.55239
5228.83,0.52246
5205.68,0.50563
5182.54,0.50328
5159.39,0.51022
5136.25,0.52207
5113.1,0.53539
5089.96,0.54689
5066.81,0.55869
5043.67,0.56847
5020.52,0.57574
4997.38,0.57890
4974.23,0.57174
4951.09,0.55695
4927.94,0.53566
4904.8,0.51334
4881.65,0.49182
4858.51,0.47159
4835.36,0.45507
4812.22,0.44278
4789.07,0.43647
4765.93,0.43284
4742.78,0.43118
4719.64,0.43410
4696.49,0.43765
4673.35,0.44236
4650.2,0.45131
4627.06,0.46160
4603.92,0.47571
4580.77,0.48729
4557.63,0.49468
4534.48,0.50045
4511.34,0.50302
4488.19,0.49513
4465.05,0.47371
4441.9,0.44520
4418.76,0.41367
4395.61,0.39865
4372.47,0.40687
4349.32,0.41244
4326.18,0.40676
4303.03,0.39643
4279.89,0.38937
4256.74,0.39335
4233.6,0.39648
4210.45,0.39664
4187.31,0.39720
4164.16,0.40244
4141.02,0.39784
4117.87,0.38382
4094.73,0.36354
4071.58,0.33944
4048.44,0.31724
4025.29,0.30492
4002.15,0.30302
3979,0.30907
3955.86,0.31831
3932.71,0.33032
3909.57,0.34155
3886.42,0.34997
3863.28,0.35874
3840.13,0.36899
3816.99,0.37149
3793.84,0.36999
3770.7,0.36678
3747.55,0.35978
3724.41,0.34405
3701.26,0.31568
3678.12,0.26185
3654.97,0.19168
3631.83,0.14319
3608.68,0.10841
3585.54,0.08377
3562.39,0.06855
3539.25,0.06000
3516.1,0.05377
3492.96,0.04953
3469.81,0.04748
3446.67,0.04626
3423.52,0.04548
3400.38,0.04598
3377.23,0.04717
3354.09,0.04823
3330.94,0.05253
3307.8,0.05467
3284.65,0.05686
3261.51,0.06202
3238.36,0.06712
3215.22,0.07311
3192.07,0.07969
3168.93,0.08731
3145.78,0.09654
3122.64,0.10459
3099.49,0.11136
3076.35,0.11709
3053.2,0.12351
3030.06,0.12742
3006.91,0.12193
2983.77,0.10868
2960.62,0.08501
2937.48,0.07429
2914.33,0.07387
2891.19,0.07651
2868.04,0.08242
2844.9,0.09389
2821.75,0.11722
2798.61,0.13489
2775.46,0.14310
2752.32,0.14647
2729.17,0.14884
2706.03,0.15578
2682.88,0.16471
2659.74,0.17062
2636.59,0.17661
2613.45,0.18358
2590.3,0.18963
2567.16,0.19320
2544.02,0.19486
2520.87,0.20042
2497.73,0.21012
2474.58,0.21963
2451.44,0.22851
2428.29,0.23918
2405.15,0.25144
2382,0.26193
2358.86,0.27094
2335.71,0.27722
2312.57,0.27997
2289.42,0.27833
2266.28,0.27446
2243.13,0.27002
2219.99,0.26782
2196.84,0.26369
2173.7,0.25100
2150.55,0.24220
2127.41,0.24050
2104.26,0.24386
2081.12,0.24464
2057.97,0.24041
2034.83,0.24659
2011.68,0.25898
1988.54,0.26640
1965.39,0.27258
1942.25,0.28408
1919.1,0.28997
1895.96,0.28755
1872.81,0.28599
1849.67,0.28212
1826.52,0.27210
1803.38,0.25168
1780.23,0.21137
1757.09,0.12321
1733.94,0.09052
1710.8,0.11523
1687.65,0.11892
1664.51,0.09019
1641.36,0.08531
1618.22,0.08516
1595.07,0.08145
1571.93,0.11740
1548.78,0.13701
1525.64,0.09078
1502.49,0.06575
1479.35,0.07350
1456.2,0.05805
1433.06,0.05569
1409.91,0.06294
1386.77,0.05708
1363.62,0.05604
1340.48,0.05711
1317.33,0.05582
1294.19,0.05599
1271.04,0.05030
1247.9,0.05440
1224.75,0.05431
1201.61,0.05513
1178.46,0.04739
1155.32,0.05158
1132.17,0.04158
1109.03,0.04893
1085.88,0.04946
1062.74,0.07344
1039.59,0.07655
1016.45,0.08756
993.304,0.09511
970.159,0.11467
947.014,0.12430
923.869,0.13214
900.724,0.11131
877.579,0.11838
854.434,0.12010
831.289,0.12042
808.144,0.10510
784.999,0.10750
761.854,0.09848
738.709,0.09335
715.565,0.08457
692.42,0.08038
669.275,0.07475
646.13,0.07687
622.985,0.07243
599.84,0.07971