Folder: fsri_materials_database/01_Data/Pine_Siding/FTIR/IS (part 3)

File: Pine_Siding_IS_T_220916_R8.dpt
7497.03,0.02766
7473.89,0.02104
7450.74,0.02673
7427.6,0.03246
7404.45,0.01680
7381.31,0.02555
7358.16,0.02171
7335.02,0.02296
7311.87,0.01794
7288.73,0.02884
7265.58,0.02872
7242.44,0.02190
7219.29,0.02838
7196.15,0.02188
7173,0.02469
7149.86,0.02240
7126.71,0.02032
7103.57,0.03045
7080.42,0.02099
7057.28,0.02443
7034.13,0.02198
7010.99,0.02733
6987.84,0.02512
6964.7,0.02916
6941.55,0.01523
6918.41,0.02525
6895.26,0.02333
6872.12,0.02405
6848.97,0.02107
6825.83,0.01922
6802.68,0.01840
6779.54,0.02025
6756.39,0.01915
6733.25,0.02081
6710.1,0.02780
6686.96,0.02500
6663.82,0.01931
6640.67,0.02777
6617.53,0.02078
6594.38,0.02577
6571.24,0.01988
6548.09,0.02198
6524.95,0.02122
6501.8,0.02267
6478.66,0.01848
6455.51,0.02104
6432.37,0.02309
6409.22,0.02043
6386.08,0.01708
6362.93,0.02001
6339.79,0.01924
6316.64,0.02301
6293.5,0.01937
6270.35,0.02258
6247.21,0.02130
6224.06,0.02226
6200.92,0.02431
6177.77,0.02073
6154.63,0.02193
6131.48,0.02412
6108.34,0.02183
6085.19,0.02012
6062.05,0.02279
6038.9,0.02262
6015.76,0.02214
5992.61,0.02190
5969.47,0.02398
5946.32,0.01997
5923.18,0.01988
5900.03,0.02343
5876.89,0.02072
5853.74,0.02481
5830.6,0.02193
5807.45,0.02225
5784.31,0.02433
5761.16,0.02294
5738.02,0.02274
5714.87,0.02090
5691.73,0.02006
5668.58,0.02256
5645.44,0.02139
5622.29,0.02168
5599.15,0.02200
5576,0.02141
5552.86,0.02092
5529.71,0.02113
5506.57,0.01992
5483.42,0.02286
5460.28,0.02237
5437.13,0.02037
5413.99,0.02130
5390.84,0.02132
5367.7,0.02108
5344.55,0.02331
5321.41,0.02231
5298.26,0.02207
5275.12,0.02060
5251.97,0.02185
5228.83,0.02007
5205.68,0.02172
5182.54,0.02071
5159.39,0.02161
5136.25,0.02230
5113.1,0.02038
5089.96,0.02145
5066.81,0.02103
5043.67,0.02136
5020.52,0.02125
4997.38,0.02228
4974.23,0.02180
4951.09,0.02190
4927.94,0.02142
4904.8,0.02304
4881.65,0.02184
4858.51,0.02192
4835.36,0.02245
4812.22,0.02298
4789.07,0.02087
4765.93,0.02303
4742.78,0.02251
4719.64,0.02306
4696.49,0.02252
4673.35,0.02277
4650.2,0.02215
4627.06,0.02222
4603.92,0.02252
4580.77,0.02298
4557.63,0.02226
4534.48,0.02163
4511.34,0.02181
4488.19,0.02208
4465.05,0.02196
4441.9,0.02203
4418.76,0.02225
4395.61,0.02210
4372.47,0.02184
4349.32,0.02162
4326.18,0.02135
4303.03,0.02324
4279.89,0.02206
4256.74,0.02231
4233.6,0.02181
4210.45,0.02200
4187.31,0.02284
4164.16,0.02219
4141.02,0.02228
4117.87,0.02227
4094.73,0.02228
4071.58,0.02262
4048.44,0.02247
4025.29,0.02268
4002.15,0.02267
3979,0.02233
3955.86,0.02308
3932.71,0.02226
3909.57,0.02227
3886.42,0.02254
3863.28,0.02246
3840.13,0.02225
3816.99,0.02163
3793.84,0.02207
3770.7,0.02258
3747.55,0.02313
3724.41,0.02199
3701.26,0.02249
3678.12,0.02250
3654.97,0.02182
3631.83,0.02189
3608.68,0.02148
3585.54,0.02187
3562.39,0.02160
3539.25,0.02101
3516.1,0.02102
3492.96,0.02082
3469.81,0.02098
3446.67,0.02008
3423.52,0.02049
3400.38,0.01991
3377.23,0.02104
3354.09,0.02005
3330.94,0.01994
3307.8,0.01979
3284.65,0.01984
3261.51,0.02060
3238.36,0.01987
3215.22,0.02077
3192.07,0.02069
3168.93,0.02131
3145.78,0.02057
3122.64,0.02142
3099.49,0.02109
3076.35,0.02022
3053.2,0.02053
3030.06,0.02036
3006.91,0.02005
2983.77,0.01995
2960.62,0.01936
2937.48,0.01934
2914.33,0.01966
2891.19,0.02042
2868.04,0.02048
2844.9,0.02102
2821.75,0.02111
2798.61,0.02092
2775.46,0.02062
2752.32,0.02164
2729.17,0.02059
2706.03,0.02154
2682.88,0.02112
2659.74,0.02117
2636.59,0.02082
2613.45,0.02140
2590.3,0.02099
2567.16,0.02089
2544.02,0.02109
2520.87,0.02109
2497.73,0.02098
2474.58,0.02087
2451.44,0.02081
2428.29,0.02073
2405.15,0.02073
2382,0.02110
2358.86,0.02119
2335.71,0.02095
2312.57,0.02087
2289.42,0.02073
2266.28,0.02099
2243.13,0.02084
2219.99,0.02083
2196.84,0.02074
2173.7,0.02074
2150.55,0.02098
2127.41,0.02071
2104.26,0.02085
2081.12,0.02067
2057.97,0.02068
2034.83,0.02105
2011.68,0.02063
1988.54,0.02093
1965.39,0.02070
1942.25,0.02063
1919.1,0.02044
1895.96,0.02063
1872.81,0.02031
1849.67,0.02027
1826.52,0.01990
1803.38,0.01960
1780.23,0.01881
1757.09,0.01783
1733.94,0.01932
1710.8,0.02048
1687.65,0.01969
1664.51,0.01864
1641.36,0.01819
1618.22,0.01886
1595.07,0.01855
1571.93,0.01818
1548.78,0.01855
1525.64,0.01866
1502.49,0.01863
1479.35,0.01853
1456.2,0.01875
1433.06,0.01833
1409.91,0.01834
1386.77,0.01809
1363.62,0.01820
1340.48,0.01770
1317.33,0.01675
1294.19,0.01767
1271.04,0.01924
1247.9,0.02022
1224.75,0.01950
1201.61,0.01881
1178.46,0.01755
1155.32,0.01716
1132.17,0.01803
1109.03,0.01834
1085.88,0.01823
1062.74,0.01978
1039.59,0.01914
1016.45,0.01918
993.304,0.02055
970.159,0.01998
947.014,0.01946
923.869,0.01866
900.724,0.01872
877.579,0.01869
854.434,0.01935
831.289,0.01866
808.144,0.01884
784.999,0.01863
761.854,0.01834
738.709,0.01877
715.565,0.01780
692.42,0.01622
669.275,0.01700
646.13,0.01787
622.985,0.01632
599.84,0.01720