Folder: fsri_materials_database/01_Data/Particleboard/FTIR/IS

Note: README.md
# Materials and Products Database
### Repository of materials and products properties and fire test data to improve fire modeling and fire investigation.

This project was supported in part by Award No. 2019-DU-BX-0018, awarded by the National Institute of Justice, Office of Justice Programs, U.S. Department of Justice. The opinions, findings, and conclusions or recommendations expressed in this publication / program / exhibition are those of the author(s) and do not necessarily reflect those of the Department of Justice.

***
***

__Cite this database:__ "McKinnon, M., Weinschenk, C., Dow, N., DiDomizio, M., and Madrzykowski, D. Materials and Products Database (Version 1.0.0), Fire Safety Research Institute, UL Research Institutes. Columbia, MD 21045, 2023."

__Cite the Technical Reference Guide:__ "McKinnon, M., Weinschenk, C., and Madrzykowski, D. Materials and Products Database - Technical Reference Guide, Fire Safety Research Institute, UL Research Institutes. Columbia, MD 21045, 2023."

__Cite the User Guide:__ "McKinnon, M., and Weinschenk, C. Materials and Products Database - User Guide, Fire Safety Research Institute, UL Research Institutes. Columbia, MD 21045, 2023."

***
***

## Database Structure

## 01_Data/
Raw data generated from each apparatus are included here in plain-text format. The data is organized first by material, next by the short name of test apparatus used, and where applicable additional filtering by test settings.

### Test Apparatus and Data File Structure
- __Cone Calorimeter__ (Cone)
    + Data file structure includes the material, the short name for the apparatus, heat flux setting and scan/scalar, date of test, and replicate number. Scan is for the raw output data and scalar is for the initial conditions and high-level test parameters. 
        * Example: __MDF_Cone_HF25scalar_210323_R1__ stands for the first replicate of scalar data generated from a medium density fiber board test in cone calorimeter exposed to 25 kW/m<sup>2</sup> on March 23, 2021.
    + A _Cone_Notes.csv_ is generated for each material from the __plot_Cone_data.py__ script. For materials whose experiments deviated from typical behavior relevant pictures are included in the respective material directory.
- __Fourier Transform Infrared Spectrometer__ (FTIR)
    + The FTIR directory contains subdirectories for the Attenuated Total Reflectance method (ATR) and the Integrating Sphere (IS)
    + Data file structure for the ATR experiment files includes the material, the abbreviated name for the apparatus, date of test, and replicate number. 
        * Example: __MDF_ATR_210323_R5__ stands for the fifth replicate of data collected with the ATR accessory conducted on June 8, 2021.
    + Data file structure for the IS experiment files includes the material, the abbreviated name for the apparatus, the measurand, whether the test is a sample measurement or standard reference, date of test, and replicate number.
        * Example: __OSB_IS_REFLECT_MEAS_2

File: Particleboard_IS_S_220927_R1.dpt
7497.03,0.71618
7473.89,0.71804
7450.74,0.70470
7427.6,0.69360
7404.45,0.69350
7381.31,0.67745
7358.16,0.66995
7335.02,0.67030
7311.87,0.66168
7288.73,0.66907
7265.58,0.65567
7242.44,0.65600
7219.29,0.65276
7196.15,0.64689
7173,0.64035
7149.86,0.62750
7126.71,0.61829
7103.57,0.59945
7080.42,0.58345
7057.28,0.56778
7034.13,0.55002
7010.99,0.52953
6987.84,0.52119
6964.7,0.51697
6941.55,0.50637
6918.41,0.50206
6895.26,0.49404
6872.12,0.49372
6848.97,0.49031
6825.83,0.49085
6802.68,0.48921
6779.54,0.47636
6756.39,0.47435
6733.25,0.46972
6710.1,0.47468
6686.96,0.47430
6663.82,0.47985
6640.67,0.48496
6617.53,0.48633
6594.38,0.48844
6571.24,0.49716
6548.09,0.50118
6524.95,0.50520
6501.8,0.50726
6478.66,0.50862
6455.51,0.51441
6432.37,0.51340
6409.22,0.51785
6386.08,0.51469
6362.93,0.52160
6339.79,0.52202
6316.64,0.52248
6293.5,0.53046
6270.35,0.53172
6247.21,0.54112
6224.06,0.54813
6200.92,0.55267
6177.77,0.55892
6154.63,0.56379
6131.48,0.57014
6108.34,0.57071
6085.19,0.57650
6062.05,0.57409
6038.9,0.57098
6015.76,0.56127
5992.61,0.55419
5969.47,0.55089
5946.32,0.55136
5923.18,0.54976
5900.03,0.54396
5876.89,0.54203
5853.74,0.54056
5830.6,0.53712
5807.45,0.53436
5784.31,0.53451
5761.16,0.53871
5738.02,0.53928
5714.87,0.53775
5691.73,0.53829
5668.58,0.53670
5645.44,0.53742
5622.29,0.53630
5599.15,0.54168
5576,0.53936
5552.86,0.54140
5529.71,0.54488
5506.57,0.54523
5483.42,0.54726
5460.28,0.54918
5437.13,0.55561
5413.99,0.55994
5390.84,0.56053
5367.7,0.55914
5344.55,0.55562
5321.41,0.54411
5298.26,0.52213
5275.12,0.48593
5251.97,0.43676
5228.83,0.40573
5205.68,0.38895
5182.54,0.38057
5159.39,0.38443
5136.25,0.38873
5113.1,0.39174
5089.96,0.38882
5066.81,0.38754
5043.67,0.39396
5020.52,0.40388
4997.38,0.41115
4974.23,0.41209
4951.09,0.40215
4927.94,0.39074
4904.8,0.37929
4881.65,0.36721
4858.51,0.35839
4835.36,0.35008
4812.22,0.34246
4789.07,0.33968
4765.93,0.33672
4742.78,0.33581
4719.64,0.33599
4696.49,0.33870
4673.35,0.34058
4650.2,0.34285
4627.06,0.34740
4603.92,0.35369
4580.77,0.35746
4557.63,0.35921
4534.48,0.36231
4511.34,0.36486
4488.19,0.36074
4465.05,0.34780
4441.9,0.32755
4418.76,0.30786
4395.61,0.29978
4372.47,0.30633
4349.32,0.30889
4326.18,0.30500
4303.03,0.30093
4279.89,0.29668
4256.74,0.30032
4233.6,0.30360
4210.45,0.30261
4187.31,0.30409
4164.16,0.30578
4141.02,0.30012
4117.87,0.28908
4094.73,0.27280
4071.58,0.25683
4048.44,0.24083
4025.29,0.23076
4002.15,0.22856
3979,0.23183
3955.86,0.23711
3932.71,0.24493
3909.57,0.25121
3886.42,0.25891
3863.28,0.26632
3840.13,0.27436
3816.99,0.27700
3793.84,0.27664
3770.7,0.27423
3747.55,0.26689
3724.41,0.25254
3701.26,0.22833
3678.12,0.18489
3654.97,0.13046
3631.83,0.09675
3608.68,0.07578
3585.54,0.06242
3562.39,0.05273
3539.25,0.04744
3516.1,0.04312
3492.96,0.04004
3469.81,0.03813
3446.67,0.03754
3423.52,0.03680
3400.38,0.03708
3377.23,0.03745
3354.09,0.03773
3330.94,0.04102
3307.8,0.04205
3284.65,0.04316
3261.51,0.04517
3238.36,0.04780
3215.22,0.05026
3192.07,0.05302
3168.93,0.05574
3145.78,0.06005
3122.64,0.06387
3099.49,0.06670
3076.35,0.06964
3053.2,0.07400
3030.06,0.07566
3006.91,0.07523
2983.77,0.06939
2960.62,0.05861
2937.48,0.05360
2914.33,0.05492
2891.19,0.05706
2868.04,0.06006
2844.9,0.06684
2821.75,0.08181
2798.61,0.09068
2775.46,0.09567
2752.32,0.09820
2729.17,0.10069
2706.03,0.10539
2682.88,0.11048
2659.74,0.11509
2636.59,0.11937
2613.45,0.12357
2590.3,0.12799
2567.16,0.13029
2544.02,0.13197
2520.87,0.13529
2497.73,0.14065
2474.58,0.14620
2451.44,0.15190
2428.29,0.15899
2405.15,0.16737
2382,0.17421
2358.86,0.18002
2335.71,0.18304
2312.57,0.18370
2289.42,0.18196
2266.28,0.17833
2243.13,0.17442
2219.99,0.17133
2196.84,0.16757
2173.7,0.16044
2150.55,0.15612
2127.41,0.15488
2104.26,0.15761
2081.12,0.15805
2057.97,0.15520
2034.83,0.15830
2011.68,0.16431
1988.54,0.16863
1965.39,0.17210
1942.25,0.17719
1919.1,0.17870
1895.96,0.17639
1872.81,0.17377
1849.67,0.16840
1826.52,0.15832
1803.38,0.14048
1780.23,0.11248
1757.09,0.06996
1733.94,0.05185
1710.8,0.05219
1687.65,0.04398
1664.51,0.03850
1641.36,0.04412
1618.22,0.04446
1595.07,0.04553
1571.93,0.05140
1548.78,0.05129
1525.64,0.04956
1502.49,0.04723
1479.35,0.04910
1456.2,0.04350
1433.06,0.04262
1409.91,0.04541
1386.77,0.04182
1363.62,0.04141
1340.48,0.04163
1317.33,0.04086
1294.19,0.04115
1271.04,0.03828
1247.9,0.04107
1224.75,0.04175
1201.61,0.04223
1178.46,0.03672
1155.32,0.03748
1132.17,0.03493
1109.03,0.03700
1085.88,0.03731
1062.74,0.04772
1039.59,0.05222
1016.45,0.05997
993.304,0.06225
970.159,0.06991
947.014,0.07496
923.869,0.07783
900.724,0.06789
877.579,0.07043
854.434,0.07134
831.289,0.06781
808.144,0.06124
784.999,0.05916
761.854,0.05655
738.709,0.05291
715.565,0.04928
692.42,0.04616
669.275,0.04559
646.13,0.04402
622.985,0.04364
599.84,0.04698

File: Particleboard_IS_S_220927_R2.dpt
7497.03,0.71897
7473.89,0.70801
7450.74,0.70682
7427.6,0.69974
7404.45,0.69355
7381.31,0.68417
7358.16,0.67504
7335.02,0.66545
7311.87,0.66503
7288.73,0.65959
7265.58,0.66211
7242.44,0.65348
7219.29,0.65437
7196.15,0.64573
7173,0.64056
7149.86,0.62649
7126.71,0.61565
7103.57,0.60457
7080.42,0.59086
7057.28,0.56941
7034.13,0.55459
7010.99,0.53225
6987.84,0.51938
6964.7,0.51590
6941.55,0.50940
6918.41,0.49669
6895.26,0.50168
6872.12,0.49982
6848.97,0.49563
6825.83,0.49387
6802.68,0.49118
6779.54,0.48272
6756.39,0.48069
6733.25,0.47815
6710.1,0.48079
6686.96,0.47466
6663.82,0.48071
6640.67,0.48116
6617.53,0.48907
6594.38,0.49888
6571.24,0.50469
6548.09,0.51121
6524.95,0.50560
6501.8,0.51028
6478.66,0.51269
6455.51,0.51686
6432.37,0.52256
6409.22,0.52219
6386.08,0.52228
6362.93,0.52331
6339.79,0.52697
6316.64,0.52819
6293.5,0.53055
6270.35,0.53597
6247.21,0.54488
6224.06,0.54774
6200.92,0.55581
6177.77,0.56095
6154.63,0.56703
6131.48,0.57244
6108.34,0.57489
6085.19,0.57716
6062.05,0.57628
6038.9,0.57157
6015.76,0.56223
5992.61,0.55762
5969.47,0.55352
5946.32,0.55504
5923.18,0.55455
5900.03,0.54929
5876.89,0.54581
5853.74,0.54313
5830.6,0.53990
5807.45,0.53799
5784.31,0.53797
5761.16,0.54241
5738.02,0.54328
5714.87,0.54258
5691.73,0.54196
5668.58,0.54106
5645.44,0.54132
5622.29,0.54017
5599.15,0.54138
5576,0.54261
5552.86,0.54625
5529.71,0.54901
5506.57,0.55011
5483.42,0.55077
5460.28,0.55278
5437.13,0.55738
5413.99,0.56426
5390.84,0.56371
5367.7,0.56383
5344.55,0.56100
5321.41,0.54875
5298.26,0.52956
5275.12,0.49149
5251.97,0.44757
5228.83,0.41549
5205.68,0.39778
5182.54,0.39351
5159.39,0.39203
5136.25,0.39816
5113.1,0.40181
5089.96,0.39584
5066.81,0.39534
5043.67,0.40120
5020.52,0.40994
4997.38,0.41605
4974.23,0.41649
4951.09,0.40741
4927.94,0.39451
4904.8,0.38236
4881.65,0.36999
4858.51,0.36152
4835.36,0.35153
4812.22,0.34549
4789.07,0.34067
4765.93,0.33901
4742.78,0.33851
4719.64,0.33858
4696.49,0.34047
4673.35,0.34367
4650.2,0.34695
4627.06,0.35108
4603.92,0.35624
4580.77,0.36090
4557.63,0.36303
4534.48,0.36477
4511.34,0.36752
4488.19,0.36417
4465.05,0.35056
4441.9,0.32879
4418.76,0.31045
4395.61,0.30136
4372.47,0.30814
4349.32,0.31240
4326.18,0.30717
4303.03,0.30181
4279.89,0.29822
4256.74,0.30223
4233.6,0.30665
4210.45,0.30554
4187.31,0.30623
4164.16,0.30856
4141.02,0.30341
4117.87,0.29227
4094.73,0.27666
4071.58,0.25909
4048.44,0.24452
4025.29,0.23307
4002.15,0.23072
3979,0.23444
3955.86,0.23945
3932.71,0.24757
3909.57,0.25555
3886.42,0.26124
3863.28,0.26962
3840.13,0.27820
3816.99,0.28075
3793.84,0.28147
3770.7,0.27901
3747.55,0.27297
3724.41,0.25893
3701.26,0.23542
3678.12,0.19184
3654.97,0.13734
3631.83,0.10153
3608.68,0.07974
3585.54,0.06451
3562.39,0.05483
3539.25,0.04780
3516.1,0.04398
3492.96,0.03987
3469.81,0.03851
3446.67,0.03733
3423.52,0.03681
3400.38,0.03747
3377.23,0.03754
3354.09,0.03865
3330.94,0.04033
3307.8,0.04235
3284.65,0.04398
3261.51,0.04564
3238.36,0.04829
3215.22,0.05131
3192.07,0.05370
3168.93,0.05783
3145.78,0.06062
3122.64,0.06448
3099.49,0.06869
3076.35,0.07137
3053.2,0.07468
3030.06,0.07713
3006.91,0.07609
2983.77,0.07024
2960.62,0.05879
2937.48,0.05402
2914.33,0.05477
2891.19,0.05784
2868.04,0.05992
2844.9,0.06712
2821.75,0.08196
2798.61,0.09145
2775.46,0.09640
2752.32,0.09960
2729.17,0.10187
2706.03,0.10649
2682.88,0.11137
2659.74,0.11598
2636.59,0.12038
2613.45,0.12482
2590.3,0.12890
2567.16,0.13154
2544.02,0.13309
2520.87,0.13641
2497.73,0.14200
2474.58,0.14798
2451.44,0.15331
2428.29,0.16044
2405.15,0.16881
2382,0.17653
2358.86,0.18213
2335.71,0.18564
2312.57,0.18624
2289.42,0.18448
2266.28,0.18109
2243.13,0.17751
2219.99,0.17466
2196.84,0.17095
2173.7,0.16366
2150.55,0.15945
2127.41,0.15886
2104.26,0.16113
2081.12,0.16141
2057.97,0.15836
2034.83,0.16093
2011.68,0.16800
1988.54,0.17179
1965.39,0.17504
1942.25,0.18025
1919.1,0.18192
1895.96,0.17904
1872.81,0.17636
1849.67,0.17099
1826.52,0.16081
1803.38,0.14235
1780.23,0.11330
1757.09,0.07040
1733.94,0.05179
1710.8,0.05247
1687.65,0.04400
1664.51,0.03902
1641.36,0.04434
1618.22,0.04488
1595.07,0.04572
1571.93,0.05134
1548.78,0.05148
1525.64,0.04985
1502.49,0.04750
1479.35,0.04900
1456.2,0.04373
1433.06,0.04269
1409.91,0.04533
1386.77,0.04191
1363.62,0.04205
1340.48,0.04200
1317.33,0.04137
1294.19,0.04113
1271.04,0.03807
1247.9,0.04107
1224.75,0.04204
1201.61,0.04192
1178.46,0.03618
1155.32,0.03776
1132.17,0.03493
1109.03,0.03697
1085.88,0.03737
1062.74,0.04739
1039.59,0.05263
1016.45,0.05989
993.304,0.06284
970.159,0.07019
947.014,0.07553
923.869,0.07810
900.724,0.06772
877.579,0.07156
854.434,0.07189
831.289,0.06903
808.144,0.06213
784.999,0.05980
761.854,0.05756
738.709,0.05410
715.565,0.04902
692.42,0.04717
669.275,0.04511
646.13,0.04496
622.985,0.04513
599.84,0.04621

File: Particleboard_IS_S_220927_R3.dpt
7497.03,0.73488
7473.89,0.71314
7450.74,0.69847
7427.6,0.69478
7404.45,0.69503
7381.31,0.68874
7358.16,0.67022
7335.02,0.67084
7311.87,0.66186
7288.73,0.66595
7265.58,0.65476
7242.44,0.65690
7219.29,0.65785
7196.15,0.64302
7173,0.63993
7149.86,0.63347
7126.71,0.61788
7103.57,0.61089
7080.42,0.58363
7057.28,0.56701
7034.13,0.54634
7010.99,0.54189
6987.84,0.52285
6964.7,0.52011
6941.55,0.50651
6918.41,0.50202
6895.26,0.50629
6872.12,0.49914
6848.97,0.50073
6825.83,0.49252
6802.68,0.48703
6779.54,0.48396
6756.39,0.48036
6733.25,0.47729
6710.1,0.47637
6686.96,0.48174
6663.82,0.48142
6640.67,0.48816
6617.53,0.48996
6594.38,0.49867
6571.24,0.50133
6548.09,0.50567
6524.95,0.50631
6501.8,0.51297
6478.66,0.51535
6455.51,0.51360
6432.37,0.51725
6409.22,0.51923
6386.08,0.52380
6362.93,0.52293
6339.79,0.53007
6316.64,0.53154
6293.5,0.53134
6270.35,0.53840
6247.21,0.54339
6224.06,0.55135
6200.92,0.55655
6177.77,0.55860
6154.63,0.56683
6131.48,0.57211
6108.34,0.57691
6085.19,0.57549
6062.05,0.57411
6038.9,0.57327
6015.76,0.56475
5992.61,0.55691
5969.47,0.55491
5946.32,0.55346
5923.18,0.55520
5900.03,0.54754
5876.89,0.54304
5853.74,0.54358
5830.6,0.53806
5807.45,0.53561
5784.31,0.53744
5761.16,0.54245
5738.02,0.54224
5714.87,0.54169
5691.73,0.54172
5668.58,0.53898
5645.44,0.54035
5622.29,0.53890
5599.15,0.53991
5576,0.54194
5552.86,0.54433
5529.71,0.54557
5506.57,0.55030
5483.42,0.55013
5460.28,0.55378
5437.13,0.55776
5413.99,0.56064
5390.84,0.56330
5367.7,0.56330
5344.55,0.56115
5321.41,0.55236
5298.26,0.52932
5275.12,0.49312
5251.97,0.45006
5228.83,0.41918
5205.68,0.40151
5182.54,0.39474
5159.39,0.39745
5136.25,0.40133
5113.1,0.40386
5089.96,0.39912
5066.81,0.39586
5043.67,0.40357
5020.52,0.41202
4997.38,0.41800
4974.23,0.41782
4951.09,0.40787
4927.94,0.39498
4904.8,0.38128
4881.65,0.37083
4858.51,0.36051
4835.36,0.35202
4812.22,0.34422
4789.07,0.33990
4765.93,0.33898
4742.78,0.33841
4719.64,0.33861
4696.49,0.34034
4673.35,0.34273
4650.2,0.34629
4627.06,0.35029
4603.92,0.35645
4580.77,0.36041
4557.63,0.36174
4534.48,0.36446
4511.34,0.36694
4488.19,0.36356
4465.05,0.35009
4441.9,0.32930
4418.76,0.31004
4395.61,0.30135
4372.47,0.30795
4349.32,0.31125
4326.18,0.30698
4303.03,0.30246
4279.89,0.29813
4256.74,0.30180
4233.6,0.30608
4210.45,0.30596
4187.31,0.30587
4164.16,0.30882
4141.02,0.30266
4117.87,0.29161
4094.73,0.27649
4071.58,0.25978
4048.44,0.24388
4025.29,0.23297
4002.15,0.23099
3979,0.23395
3955.86,0.24010
3932.71,0.24811
3909.57,0.25445
3886.42,0.26261
3863.28,0.26966
3840.13,0.27892
3816.99,0.28223
3793.84,0.28223
3770.7,0.27955
3747.55,0.27305
3724.41,0.26022
3701.26,0.23741
3678.12,0.19352
3654.97,0.13913
3631.83,0.10367
3608.68,0.08058
3585.54,0.06524
3562.39,0.05521
3539.25,0.04936
3516.1,0.04380
3492.96,0.04021
3469.81,0.03767
3446.67,0.03692
3423.52,0.03766
3400.38,0.03754
3377.23,0.03780
3354.09,0.03805
3330.94,0.04115
3307.8,0.04281
3284.65,0.04362
3261.51,0.04579
3238.36,0.04823
3215.22,0.05086
3192.07,0.05394
3168.93,0.05721
3145.78,0.06168
3122.64,0.06473
3099.49,0.06792
3076.35,0.07131
3053.2,0.07521
3030.06,0.07727
3006.91,0.07691
2983.77,0.07016
2960.62,0.05891
2937.48,0.05431
2914.33,0.05422
2891.19,0.05722
2868.04,0.06019
2844.9,0.06678
2821.75,0.08176
2798.61,0.09133
2775.46,0.09615
2752.32,0.09896
2729.17,0.10140
2706.03,0.10664
2682.88,0.11174
2659.74,0.11612
2636.59,0.12069
2613.45,0.12443
2590.3,0.12893
2567.16,0.13145
2544.02,0.13252
2520.87,0.13622
2497.73,0.14167
2474.58,0.14820
2451.44,0.15366
2428.29,0.16062
2405.15,0.16912
2382,0.17725
2358.86,0.18221
2335.71,0.18591
2312.57,0.18720
2289.42,0.18523
2266.28,0.18165
2243.13,0.17783
2219.99,0.17507
2196.84,0.17128
2173.7,0.16440
2150.55,0.15982
2127.41,0.15932
2104.26,0.16187
2081.12,0.16170
2057.97,0.15943
2034.83,0.16179
2011.68,0.16826
1988.54,0.17249
1965.39,0.17604
1942.25,0.18099
1919.1,0.18249
1895.96,0.17987
1872.81,0.17716
1849.67,0.17176
1826.52,0.16131
1803.38,0.14291
1780.23,0.11340
1757.09,0.06978
1733.94,0.05207
1710.8,0.05273
1687.65,0.04369
1664.51,0.03911
1641.36,0.04473
1618.22,0.04502
1595.07,0.04567
1571.93,0.05127
1548.78,0.05189
1525.64,0.04966
1502.49,0.04755
1479.35,0.04921
1456.2,0.04345
1433.06,0.04235
1409.91,0.04511
1386.77,0.04184
1363.62,0.04186
1340.48,0.04219
1317.33,0.04117
1294.19,0.04110
1271.04,0.03804
1247.9,0.04086
1224.75,0.04176
1201.61,0.04240
1178.46,0.03702
1155.32,0.03793
1132.17,0.03479
1109.03,0.03724
1085.88,0.03800
1062.74,0.04829
1039.59,0.05212
1016.45,0.05984
993.304,0.06264
970.159,0.07037
947.014,0.07589
923.869,0.07805
900.724,0.06825
877.579,0.07164
854.434,0.07251
831.289,0.06983
808.144,0.06326
784.999,0.06089
761.854,0.05812
738.709,0.05371
715.565,0.04967
692.42,0.04878
669.275,0.04541
646.13,0.04499
622.985,0.04400
599.84,0.04744

File: Particleboard_IS_S_220927_R4.dpt
7497.03,0.72184
7473.89,0.70922
7450.74,0.70563
7427.6,0.69461
7404.45,0.68619
7381.31,0.68906
7358.16,0.67718
7335.02,0.67286
7311.87,0.66627
7288.73,0.66160
7265.58,0.66236
7242.44,0.66319
7219.29,0.65925
7196.15,0.63930
7173,0.64641
7149.86,0.63879
7126.71,0.62183
7103.57,0.60409
7080.42,0.59043
7057.28,0.56412
7034.13,0.55025
7010.99,0.52844
6987.84,0.52598
6964.7,0.51443
6941.55,0.50494
6918.41,0.49994
6895.26,0.50424
6872.12,0.49430
6848.97,0.49487
6825.83,0.49699
6802.68,0.48960
6779.54,0.48894
6756.39,0.48150
6733.25,0.48162
6710.1,0.48062
6686.96,0.48045
6663.82,0.48282
6640.67,0.48772
6617.53,0.49315
6594.38,0.49629
6571.24,0.50089
6548.09,0.50532
6524.95,0.51317
6501.8,0.50767
6478.66,0.51516
6455.51,0.51570
6432.37,0.52136
6409.22,0.52191
6386.08,0.52351
6362.93,0.52340
6339.79,0.52511
6316.64,0.53045
6293.5,0.53027
6270.35,0.53951
6247.21,0.54558
6224.06,0.55166
6200.92,0.55695
6177.77,0.56529
6154.63,0.57125
6131.48,0.57439
6108.34,0.57406
6085.19,0.57854
6062.05,0.57534
6038.9,0.57370
6015.76,0.56509
5992.61,0.55375
5969.47,0.55278
5946.32,0.55413
5923.18,0.55122
5900.03,0.55024
5876.89,0.54585
5853.74,0.54056
5830.6,0.54112
5807.45,0.53754
5784.31,0.53826
5761.16,0.54046
5738.02,0.54035
5714.87,0.54259
5691.73,0.54242
5668.58,0.54005
5645.44,0.54263
5622.29,0.54204
5599.15,0.54187
5576,0.54147
5552.86,0.54681
5529.71,0.54679
5506.57,0.54812
5483.42,0.55170
5460.28,0.55256
5437.13,0.55848
5413.99,0.56239
5390.84,0.56411
5367.7,0.56441
5344.55,0.55989
5321.41,0.55346
5298.26,0.53101
5275.12,0.49647
5251.97,0.45245
5228.83,0.42087
5205.68,0.40472
5182.54,0.39970
5159.39,0.40044
5136.25,0.40499
5113.1,0.40745
5089.96,0.40158
5066.81,0.39834
5043.67,0.40458
5020.52,0.41285
4997.38,0.42042
4974.23,0.41865
4951.09,0.40841
4927.94,0.39643
4904.8,0.38383
4881.65,0.37092
4858.51,0.36165
4835.36,0.35234
4812.22,0.34521
4789.07,0.34302
4765.93,0.33958
4742.78,0.33914
4719.64,0.33996
4696.49,0.34042
4673.35,0.34322
4650.2,0.34646
4627.06,0.35077
4603.92,0.35643
4580.77,0.36107
4557.63,0.36291
4534.48,0.36534
4511.34,0.36702
4488.19,0.36404
4465.05,0.35050
4441.9,0.32976
4418.76,0.30990
4395.61,0.30259
4372.47,0.30757
4349.32,0.31142
4326.18,0.30680
4303.03,0.30202
4279.89,0.29927
4256.74,0.30261
4233.6,0.30634
4210.45,0.30639
4187.31,0.30609
4164.16,0.31037
4141.02,0.30408
4117.87,0.29263
4094.73,0.27741
4071.58,0.26021
4048.44,0.24409
4025.29,0.23349
4002.15,0.23193
3979,0.23477
3955.86,0.24139
3932.71,0.24847
3909.57,0.25595
3886.42,0.26319
3863.28,0.27079
3840.13,0.27957
3816.99,0.28239
3793.84,0.28334
3770.7,0.28098
3747.55,0.27462
3724.41,0.26187
3701.26,0.23887
3678.12,0.19613
3654.97,0.14137
3631.83,0.10525
3608.68,0.08174
3585.54,0.06590
3562.39,0.05488
3539.25,0.04816
3516.1,0.04391
3492.96,0.03999
3469.81,0.03858
3446.67,0.03761
3423.52,0.03751
3400.38,0.03730
3377.23,0.03760
3354.09,0.03867
3330.94,0.04068
3307.8,0.04224
3284.65,0.04404
3261.51,0.04616
3238.36,0.04887
3215.22,0.05091
3192.07,0.05414
3168.93,0.05788
3145.78,0.06145
3122.64,0.06533
3099.49,0.06899
3076.35,0.07167
3053.2,0.07572
3030.06,0.07811
3006.91,0.07657
2983.77,0.07052
2960.62,0.05905
2937.48,0.05441
2914.33,0.05415
2891.19,0.05695
2868.04,0.06034
2844.9,0.06702
2821.75,0.08201
2798.61,0.09147
2775.46,0.09666
2752.32,0.09928
2729.17,0.10176
2706.03,0.10691
2682.88,0.11181
2659.74,0.11628
2636.59,0.12064
2613.45,0.12488
2590.3,0.12929
2567.16,0.13155
2544.02,0.13292
2520.87,0.13659
2497.73,0.14177
2474.58,0.14857
2451.44,0.15390
2428.29,0.16107
2405.15,0.16945
2382,0.17712
2358.86,0.18289
2335.71,0.18623
2312.57,0.18739
2289.42,0.18599
2266.28,0.18289
2243.13,0.17849
2219.99,0.17626
2196.84,0.17229
2173.7,0.16509
2150.55,0.16106
2127.41,0.16008
2104.26,0.16278
2081.12,0.16292
2057.97,0.15983
2034.83,0.16274
2011.68,0.16914
1988.54,0.17329
1965.39,0.17653
1942.25,0.18138
1919.1,0.18307
1895.96,0.18046
1872.81,0.17759
1849.67,0.17233
1826.52,0.16201
1803.38,0.14328
1780.23,0.11327
1757.09,0.06973
1733.94,0.05159
1710.8,0.05238
1687.65,0.04411
1664.51,0.03884
1641.36,0.04471
1618.22,0.04483
1595.07,0.04561
1571.93,0.05147
1548.78,0.05182
1525.64,0.04977
1502.49,0.04768
1479.35,0.04913
1456.2,0.04371
1433.06,0.04256
1409.91,0.04536
1386.77,0.04192
1363.62,0.04194
1340.48,0.04163
1317.33,0.04103
1294.19,0.04118
1271.04,0.03809
1247.9,0.04038
1224.75,0.04179
1201.61,0.04223
1178.46,0.03624
1155.32,0.03779
1132.17,0.03495
1109.03,0.03703
1085.88,0.03775
1062.74,0.04759
1039.59,0.05225
1016.45,0.05890
993.304,0.06222
970.159,0.07006
947.014,0.07535
923.869,0.07792
900.724,0.06802
877.579,0.07157
854.434,0.07315
831.289,0.07042
808.144,0.06250
784.999,0.06093
761.854,0.05806
738.709,0.05356
715.565,0.05025
692.42,0.04832
669.275,0.04512
646.13,0.04537
622.985,0.04325
599.84,0.04409