Folder: fsri_materials_database/01_Data/Particleboard/FTIR/IS (part 2)

File: Particleboard_IS_S_220927_R5.dpt
7497.03,0.71413
7473.89,0.71734
7450.74,0.70210
7427.6,0.69189
7404.45,0.68454
7381.31,0.68414
7358.16,0.67949
7335.02,0.67186
7311.87,0.66259
7288.73,0.66182
7265.58,0.66200
7242.44,0.65937
7219.29,0.65205
7196.15,0.65068
7173,0.64289
7149.86,0.63437
7126.71,0.62038
7103.57,0.60227
7080.42,0.59404
7057.28,0.57538
7034.13,0.55513
7010.99,0.53920
6987.84,0.52381
6964.7,0.51020
6941.55,0.51290
6918.41,0.50897
6895.26,0.50049
6872.12,0.50102
6848.97,0.49856
6825.83,0.49416
6802.68,0.48803
6779.54,0.49153
6756.39,0.48224
6733.25,0.47880
6710.1,0.47587
6686.96,0.48163
6663.82,0.48621
6640.67,0.48511
6617.53,0.49222
6594.38,0.49482
6571.24,0.50167
6548.09,0.50468
6524.95,0.51200
6501.8,0.51399
6478.66,0.51482
6455.51,0.52044
6432.37,0.51980
6409.22,0.51696
6386.08,0.52686
6362.93,0.52747
6339.79,0.52331
6316.64,0.52668
6293.5,0.53228
6270.35,0.53661
6247.21,0.54210
6224.06,0.54939
6200.92,0.55614
6177.77,0.56269
6154.63,0.57085
6131.48,0.57141
6108.34,0.57789
6085.19,0.57788
6062.05,0.57437
6038.9,0.57177
6015.76,0.56558
5992.61,0.55829
5969.47,0.55228
5946.32,0.55383
5923.18,0.55436
5900.03,0.54895
5876.89,0.54351
5853.74,0.54304
5830.6,0.53947
5807.45,0.53858
5784.31,0.53609
5761.16,0.53991
5738.02,0.54082
5714.87,0.54178
5691.73,0.54203
5668.58,0.54043
5645.44,0.54236
5622.29,0.54060
5599.15,0.54243
5576,0.54169
5552.86,0.54565
5529.71,0.54676
5506.57,0.55063
5483.42,0.55267
5460.28,0.55400
5437.13,0.55952
5413.99,0.56442
5390.84,0.56438
5367.7,0.56468
5344.55,0.56142
5321.41,0.55275
5298.26,0.53329
5275.12,0.49705
5251.97,0.45647
5228.83,0.42387
5205.68,0.40801
5182.54,0.40358
5159.39,0.40301
5136.25,0.40578
5113.1,0.40820
5089.96,0.40356
5066.81,0.40059
5043.67,0.40584
5020.52,0.41418
4997.38,0.42044
4974.23,0.41884
4951.09,0.40995
4927.94,0.39681
4904.8,0.38468
4881.65,0.37176
4858.51,0.36051
4835.36,0.35208
4812.22,0.34498
4789.07,0.34150
4765.93,0.33936
4742.78,0.33797
4719.64,0.33928
4696.49,0.34055
4673.35,0.34253
4650.2,0.34631
4627.06,0.35090
4603.92,0.35744
4580.77,0.36029
4557.63,0.36246
4534.48,0.36442
4511.34,0.36708
4488.19,0.36422
4465.05,0.34988
4441.9,0.32973
4418.76,0.31007
4395.61,0.30158
4372.47,0.30832
4349.32,0.31185
4326.18,0.30747
4303.03,0.30210
4279.89,0.29907
4256.74,0.30261
4233.6,0.30588
4210.45,0.30594
4187.31,0.30669
4164.16,0.30925
4141.02,0.30363
4117.87,0.29278
4094.73,0.27735
4071.58,0.26044
4048.44,0.24447
4025.29,0.23328
4002.15,0.23211
3979,0.23467
3955.86,0.24134
3932.71,0.24907
3909.57,0.25630
3886.42,0.26396
3863.28,0.27138
3840.13,0.28055
3816.99,0.28373
3793.84,0.28329
3770.7,0.28260
3747.55,0.27614
3724.41,0.26341
3701.26,0.24023
3678.12,0.19880
3654.97,0.14317
3631.83,0.10722
3608.68,0.08328
3585.54,0.06578
3562.39,0.05558
3539.25,0.04869
3516.1,0.04462
3492.96,0.04044
3469.81,0.03842
3446.67,0.03765
3423.52,0.03743
3400.38,0.03772
3377.23,0.03765
3354.09,0.03914
3330.94,0.04071
3307.8,0.04262
3284.65,0.04368
3261.51,0.04621
3238.36,0.04889
3215.22,0.05068
3192.07,0.05420
3168.93,0.05752
3145.78,0.06190
3122.64,0.06561
3099.49,0.06862
3076.35,0.07232
3053.2,0.07570
3030.06,0.07816
3006.91,0.07654
2983.77,0.07021
2960.62,0.05921
2937.48,0.05440
2914.33,0.05412
2891.19,0.05780
2868.04,0.06010
2844.9,0.06732
2821.75,0.08203
2798.61,0.09167
2775.46,0.09679
2752.32,0.09909
2729.17,0.10161
2706.03,0.10661
2682.88,0.11228
2659.74,0.11624
2636.59,0.12062
2613.45,0.12476
2590.3,0.12875
2567.16,0.13189
2544.02,0.13312
2520.87,0.13662
2497.73,0.14224
2474.58,0.14818
2451.44,0.15363
2428.29,0.16089
2405.15,0.16932
2382,0.17737
2358.86,0.18284
2335.71,0.18669
2312.57,0.18760
2289.42,0.18578
2266.28,0.18261
2243.13,0.17886
2219.99,0.17666
2196.84,0.17251
2173.7,0.16603
2150.55,0.16125
2127.41,0.16063
2104.26,0.16316
2081.12,0.16335
2057.97,0.16047
2034.83,0.16335
2011.68,0.16957
1988.54,0.17356
1965.39,0.17715
1942.25,0.18170
1919.1,0.18376
1895.96,0.18058
1872.81,0.17795
1849.67,0.17237
1826.52,0.16182
1803.38,0.14312
1780.23,0.11309
1757.09,0.06968
1733.94,0.05207
1710.8,0.05243
1687.65,0.04377
1664.51,0.03896
1641.36,0.04470
1618.22,0.04493
1595.07,0.04558
1571.93,0.05135
1548.78,0.05173
1525.64,0.04969
1502.49,0.04744
1479.35,0.04909
1456.2,0.04352
1433.06,0.04259
1409.91,0.04517
1386.77,0.04171
1363.62,0.04183
1340.48,0.04195
1317.33,0.04109
1294.19,0.04114
1271.04,0.03778
1247.9,0.04103
1224.75,0.04146
1201.61,0.04209
1178.46,0.03641
1155.32,0.03701
1132.17,0.03477
1109.03,0.03761
1085.88,0.03759
1062.74,0.04803
1039.59,0.05238
1016.45,0.06002
993.304,0.06259
970.159,0.07020
947.014,0.07558
923.869,0.07870
900.724,0.06886
877.579,0.07118
854.434,0.07348
831.289,0.07007
808.144,0.06365
784.999,0.05992
761.854,0.05886
738.709,0.05429
715.565,0.05043
692.42,0.04756
669.275,0.04557
646.13,0.04479
622.985,0.04433
599.84,0.04667

File: Particleboard_IS_S_220927_R6.dpt
7497.03,0.71987
7473.89,0.70949
7450.74,0.70502
7427.6,0.70095
7404.45,0.68595
7381.31,0.68758
7358.16,0.68292
7335.02,0.66593
7311.87,0.66704
7288.73,0.65319
7265.58,0.66710
7242.44,0.65947
7219.29,0.65758
7196.15,0.64772
7173,0.63983
7149.86,0.63888
7126.71,0.62855
7103.57,0.60621
7080.42,0.59757
7057.28,0.57745
7034.13,0.55179
7010.99,0.53750
6987.84,0.52831
6964.7,0.51697
6941.55,0.51024
6918.41,0.50920
6895.26,0.50705
6872.12,0.50067
6848.97,0.49469
6825.83,0.50210
6802.68,0.49278
6779.54,0.48911
6756.39,0.48327
6733.25,0.47528
6710.1,0.47453
6686.96,0.48309
6663.82,0.48768
6640.67,0.48841
6617.53,0.49444
6594.38,0.49705
6571.24,0.49914
6548.09,0.50376
6524.95,0.50563
6501.8,0.51158
6478.66,0.51548
6455.51,0.51569
6432.37,0.52041
6409.22,0.52495
6386.08,0.52247
6362.93,0.52788
6339.79,0.52871
6316.64,0.52789
6293.5,0.53488
6270.35,0.54050
6247.21,0.54545
6224.06,0.54743
6200.92,0.55799
6177.77,0.56531
6154.63,0.57206
6131.48,0.57277
6108.34,0.57542
6085.19,0.57915
6062.05,0.57655
6038.9,0.57430
6015.76,0.56527
5992.61,0.55949
5969.47,0.55456
5946.32,0.55525
5923.18,0.55312
5900.03,0.54928
5876.89,0.54600
5853.74,0.54425
5830.6,0.54025
5807.45,0.53686
5784.31,0.53923
5761.16,0.54134
5738.02,0.54266
5714.87,0.54203
5691.73,0.54386
5668.58,0.54404
5645.44,0.54136
5622.29,0.54347
5599.15,0.54338
5576,0.54478
5552.86,0.54601
5529.71,0.54844
5506.57,0.55006
5483.42,0.55250
5460.28,0.55283
5437.13,0.55822
5413.99,0.56108
5390.84,0.56566
5367.7,0.56630
5344.55,0.56331
5321.41,0.55326
5298.26,0.53271
5275.12,0.50015
5251.97,0.45769
5228.83,0.42653
5205.68,0.41095
5182.54,0.40424
5159.39,0.40570
5136.25,0.40887
5113.1,0.41252
5089.96,0.40548
5066.81,0.40222
5043.67,0.40803
5020.52,0.41652
4997.38,0.42163
4974.23,0.42144
4951.09,0.41031
4927.94,0.39639
4904.8,0.38360
4881.65,0.37252
4858.51,0.36220
4835.36,0.35318
4812.22,0.34609
4789.07,0.34206
4765.93,0.34036
4742.78,0.34011
4719.64,0.33987
4696.49,0.34204
4673.35,0.34431
4650.2,0.34748
4627.06,0.35074
4603.92,0.35738
4580.77,0.36107
4557.63,0.36327
4534.48,0.36607
4511.34,0.36729
4488.19,0.36489
4465.05,0.35090
4441.9,0.33023
4418.76,0.31036
4395.61,0.30203
4372.47,0.30787
4349.32,0.31180
4326.18,0.30790
4303.03,0.30325
4279.89,0.29914
4256.74,0.30356
4233.6,0.30679
4210.45,0.30670
4187.31,0.30751
4164.16,0.30968
4141.02,0.30461
4117.87,0.29338
4094.73,0.27820
4071.58,0.26101
4048.44,0.24473
4025.29,0.23419
4002.15,0.23206
3979,0.23518
3955.86,0.24204
3932.71,0.24949
3909.57,0.25669
3886.42,0.26435
3863.28,0.27172
3840.13,0.28145
3816.99,0.28477
3793.84,0.28461
3770.7,0.28297
3747.55,0.27707
3724.41,0.26483
3701.26,0.24178
3678.12,0.19990
3654.97,0.14459
3631.83,0.10853
3608.68,0.08400
3585.54,0.06655
3562.39,0.05633
3539.25,0.04939
3516.1,0.04382
3492.96,0.04024
3469.81,0.03810
3446.67,0.03765
3423.52,0.03656
3400.38,0.03754
3377.23,0.03798
3354.09,0.03855
3330.94,0.04123
3307.8,0.04295
3284.65,0.04415
3261.51,0.04615
3238.36,0.04870
3215.22,0.05165
3192.07,0.05427
3168.93,0.05773
3145.78,0.06153
3122.64,0.06529
3099.49,0.06881
3076.35,0.07219
3053.2,0.07556
3030.06,0.07819
3006.91,0.07680
2983.77,0.07005
2960.62,0.05871
2937.48,0.05429
2914.33,0.05418
2891.19,0.05734
2868.04,0.06006
2844.9,0.06743
2821.75,0.08261
2798.61,0.09229
2775.46,0.09682
2752.32,0.09938
2729.17,0.10176
2706.03,0.10648
2682.88,0.11217
2659.74,0.11636
2636.59,0.12084
2613.45,0.12543
2590.3,0.12910
2567.16,0.13197
2544.02,0.13337
2520.87,0.13682
2497.73,0.14249
2474.58,0.14829
2451.44,0.15375
2428.29,0.16122
2405.15,0.16957
2382,0.17723
2358.86,0.18320
2335.71,0.18713
2312.57,0.18811
2289.42,0.18630
2266.28,0.18330
2243.13,0.17924
2219.99,0.17700
2196.84,0.17301
2173.7,0.16621
2150.55,0.16225
2127.41,0.16130
2104.26,0.16348
2081.12,0.16417
2057.97,0.16098
2034.83,0.16353
2011.68,0.17028
1988.54,0.17402
1965.39,0.17749
1942.25,0.18241
1919.1,0.18386
1895.96,0.18103
1872.81,0.17849
1849.67,0.17320
1826.52,0.16246
1803.38,0.14375
1780.23,0.11349
1757.09,0.06982
1733.94,0.05181
1710.8,0.05238
1687.65,0.04360
1664.51,0.03888
1641.36,0.04483
1618.22,0.04504
1595.07,0.04582
1571.93,0.05127
1548.78,0.05159
1525.64,0.04970
1502.49,0.04750
1479.35,0.04927
1456.2,0.04365
1433.06,0.04256
1409.91,0.04483
1386.77,0.04175
1363.62,0.04192
1340.48,0.04203
1317.33,0.04131
1294.19,0.04105
1271.04,0.03830
1247.9,0.04091
1224.75,0.04193
1201.61,0.04196
1178.46,0.03656
1155.32,0.03760
1132.17,0.03474
1109.03,0.03677
1085.88,0.03710
1062.74,0.04738
1039.59,0.05219
1016.45,0.05922
993.304,0.06227
970.159,0.07051
947.014,0.07554
923.869,0.07839
900.724,0.06831
877.579,0.07220
854.434,0.07329
831.289,0.07055
808.144,0.06310
784.999,0.06099
761.854,0.05890
738.709,0.05432
715.565,0.04981
692.42,0.04819
669.275,0.04560
646.13,0.04481
622.985,0.04473
599.84,0.04714

File: Particleboard_IS_S_220927_R7.dpt
7497.03,0.72208
7473.89,0.71601
7450.74,0.70770
7427.6,0.69550
7404.45,0.68329
7381.31,0.69004
7358.16,0.68886
7335.02,0.67105
7311.87,0.66878
7288.73,0.66522
7265.58,0.66230
7242.44,0.66039
7219.29,0.65779
7196.15,0.65465
7173,0.64171
7149.86,0.63422
7126.71,0.62046
7103.57,0.60894
7080.42,0.59504
7057.28,0.57279
7034.13,0.55264
7010.99,0.53572
6987.84,0.52642
6964.7,0.51786
6941.55,0.50372
6918.41,0.50602
6895.26,0.50283
6872.12,0.49926
6848.97,0.50126
6825.83,0.49703
6802.68,0.49562
6779.54,0.48954
6756.39,0.48279
6733.25,0.47961
6710.1,0.47689
6686.96,0.48455
6663.82,0.48566
6640.67,0.48768
6617.53,0.49573
6594.38,0.49876
6571.24,0.50134
6548.09,0.50832
6524.95,0.50942
6501.8,0.51318
6478.66,0.51613
6455.51,0.51935
6432.37,0.52012
6409.22,0.52345
6386.08,0.52377
6362.93,0.52962
6339.79,0.52966
6316.64,0.53004
6293.5,0.53290
6270.35,0.54079
6247.21,0.54461
6224.06,0.55138
6200.92,0.56002
6177.77,0.56522
6154.63,0.57118
6131.48,0.57560
6108.34,0.57747
6085.19,0.57991
6062.05,0.57858
6038.9,0.57415
6015.76,0.56481
5992.61,0.55898
5969.47,0.55670
5946.32,0.55706
5923.18,0.55590
5900.03,0.55009
5876.89,0.54636
5853.74,0.54495
5830.6,0.54385
5807.45,0.54098
5784.31,0.53991
5761.16,0.54375
5738.02,0.54296
5714.87,0.54331
5691.73,0.54313
5668.58,0.54380
5645.44,0.54294
5622.29,0.54285
5599.15,0.54523
5576,0.54561
5552.86,0.54632
5529.71,0.55130
5506.57,0.55140
5483.42,0.55280
5460.28,0.55603
5437.13,0.56038
5413.99,0.56425
5390.84,0.56605
5367.7,0.56752
5344.55,0.56568
5321.41,0.55666
5298.26,0.53645
5275.12,0.50150
5251.97,0.46126
5228.83,0.42825
5205.68,0.41317
5182.54,0.40862
5159.39,0.40797
5136.25,0.41150
5113.1,0.41280
5089.96,0.40739
5066.81,0.40329
5043.67,0.41077
5020.52,0.41785
4997.38,0.42481
4974.23,0.42346
4951.09,0.41211
4927.94,0.39882
4904.8,0.38548
4881.65,0.37274
4858.51,0.36265
4835.36,0.35420
4812.22,0.34655
4789.07,0.34374
4765.93,0.34083
4742.78,0.34027
4719.64,0.34091
4696.49,0.34260
4673.35,0.34367
4650.2,0.34783
4627.06,0.35285
4603.92,0.35811
4580.77,0.36165
4557.63,0.36546
4534.48,0.36700
4511.34,0.36916
4488.19,0.36539
4465.05,0.35148
4441.9,0.33102
4418.76,0.31114
4395.61,0.30262
4372.47,0.30961
4349.32,0.31236
4326.18,0.30893
4303.03,0.30424
4279.89,0.30072
4256.74,0.30380
4233.6,0.30825
4210.45,0.30717
4187.31,0.30890
4164.16,0.31074
4141.02,0.30626
4117.87,0.29436
4094.73,0.27822
4071.58,0.26224
4048.44,0.24592
4025.29,0.23467
4002.15,0.23297
3979,0.23663
3955.86,0.24267
3932.71,0.24974
3909.57,0.25812
3886.42,0.26496
3863.28,0.27268
3840.13,0.28175
3816.99,0.28556
3793.84,0.28550
3770.7,0.28396
3747.55,0.27819
3724.41,0.26592
3701.26,0.24379
3678.12,0.20189
3654.97,0.14628
3631.83,0.10900
3608.68,0.08473
3585.54,0.06649
3562.39,0.05636
3539.25,0.04932
3516.1,0.04468
3492.96,0.04109
3469.81,0.03893
3446.67,0.03803
3423.52,0.03697
3400.38,0.03725
3377.23,0.03814
3354.09,0.03826
3330.94,0.04077
3307.8,0.04309
3284.65,0.04419
3261.51,0.04644
3238.36,0.04794
3215.22,0.05042
3192.07,0.05421
3168.93,0.05845
3145.78,0.06191
3122.64,0.06576
3099.49,0.06899
3076.35,0.07257
3053.2,0.07639
3030.06,0.07860
3006.91,0.07718
2983.77,0.07086
2960.62,0.05897
2937.48,0.05443
2914.33,0.05490
2891.19,0.05748
2868.04,0.06000
2844.9,0.06759
2821.75,0.08250
2798.61,0.09187
2775.46,0.09699
2752.32,0.09971
2729.17,0.10226
2706.03,0.10658
2682.88,0.11193
2659.74,0.11671
2636.59,0.12105
2613.45,0.12564
2590.3,0.12949
2567.16,0.13229
2544.02,0.13362
2520.87,0.13715
2497.73,0.14284
2474.58,0.14897
2451.44,0.15461
2428.29,0.16127
2405.15,0.17011
2382,0.17827
2358.86,0.18441
2335.71,0.18766
2312.57,0.18871
2289.42,0.18714
2266.28,0.18391
2243.13,0.18000
2219.99,0.17815
2196.84,0.17409
2173.7,0.16686
2150.55,0.16263
2127.41,0.16208
2104.26,0.16441
2081.12,0.16462
2057.97,0.16167
2034.83,0.16474
2011.68,0.17094
1988.54,0.17498
1965.39,0.17821
1942.25,0.18326
1919.1,0.18490
1895.96,0.18211
1872.81,0.17899
1849.67,0.17343
1826.52,0.16310
1803.38,0.14414
1780.23,0.11379
1757.09,0.07000
1733.94,0.05255
1710.8,0.05241
1687.65,0.04404
1664.51,0.03908
1641.36,0.04463
1618.22,0.04486
1595.07,0.04560
1571.93,0.05169
1548.78,0.05188
1525.64,0.04921
1502.49,0.04751
1479.35,0.04930
1456.2,0.04322
1433.06,0.04248
1409.91,0.04577
1386.77,0.04133
1363.62,0.04149
1340.48,0.04170
1317.33,0.04112
1294.19,0.04089
1271.04,0.03801
1247.9,0.04099
1224.75,0.04180
1201.61,0.04232
1178.46,0.03646
1155.32,0.03804
1132.17,0.03518
1109.03,0.03701
1085.88,0.03715
1062.74,0.04796
1039.59,0.05276
1016.45,0.05971
993.304,0.06230
970.159,0.07057
947.014,0.07533
923.869,0.07859
900.724,0.06906
877.579,0.07166
854.434,0.07318
831.289,0.07089
808.144,0.06417
784.999,0.06118
761.854,0.05857
738.709,0.05375
715.565,0.05049
692.42,0.04773
669.275,0.04480
646.13,0.04518
622.985,0.04654
599.84,0.04715

File: Particleboard_IS_S_220927_R8.dpt
7497.03,0.72785
7473.89,0.71544
7450.74,0.71640
7427.6,0.69769
7404.45,0.68610
7381.31,0.69125
7358.16,0.66719
7335.02,0.66932
7311.87,0.67303
7288.73,0.66756
7265.58,0.65384
7242.44,0.66529
7219.29,0.66254
7196.15,0.65535
7173,0.64726
7149.86,0.63810
7126.71,0.62396
7103.57,0.61035
7080.42,0.59462
7057.28,0.58020
7034.13,0.55580
7010.99,0.54419
6987.84,0.53283
6964.7,0.52281
6941.55,0.51304
6918.41,0.50782
6895.26,0.50255
6872.12,0.50284
6848.97,0.49430
6825.83,0.49709
6802.68,0.49450
6779.54,0.48869
6756.39,0.48769
6733.25,0.48368
6710.1,0.48269
6686.96,0.48321
6663.82,0.48498
6640.67,0.49294
6617.53,0.49197
6594.38,0.49652
6571.24,0.50939
6548.09,0.51016
6524.95,0.51397
6501.8,0.51093
6478.66,0.51665
6455.51,0.52123
6432.37,0.52454
6409.22,0.52518
6386.08,0.52531
6362.93,0.52829
6339.79,0.53209
6316.64,0.53071
6293.5,0.53324
6270.35,0.54376
6247.21,0.54772
6224.06,0.55156
6200.92,0.56088
6177.77,0.56821
6154.63,0.57194
6131.48,0.57459
6108.34,0.57829
6085.19,0.57931
6062.05,0.58365
6038.9,0.57308
6015.76,0.56794
5992.61,0.56075
5969.47,0.55609
5946.32,0.55721
5923.18,0.55663
5900.03,0.55379
5876.89,0.54790
5853.74,0.54515
5830.6,0.54174
5807.45,0.53923
5784.31,0.54142
5761.16,0.54431
5738.02,0.54584
5714.87,0.54630
5691.73,0.54572
5668.58,0.54609
5645.44,0.54486
5622.29,0.54619
5599.15,0.54639
5576,0.54711
5552.86,0.54975
5529.71,0.55118
5506.57,0.55337
5483.42,0.55583
5460.28,0.55751
5437.13,0.55966
5413.99,0.56642
5390.84,0.56708
5367.7,0.56790
5344.55,0.56699
5321.41,0.55651
5298.26,0.53832
5275.12,0.50577
5251.97,0.46482
5228.83,0.43409
5205.68,0.41629
5182.54,0.41029
5159.39,0.41078
5136.25,0.41607
5113.1,0.41725
5089.96,0.40904
5066.81,0.40534
5043.67,0.41155
5020.52,0.41991
4997.38,0.42706
4974.23,0.42445
4951.09,0.41407
4927.94,0.39886
4904.8,0.38609
4881.65,0.37460
4858.51,0.36396
4835.36,0.35370
4812.22,0.34718
4789.07,0.34447
4765.93,0.34163
4742.78,0.34061
4719.64,0.34169
4696.49,0.34378
4673.35,0.34459
4650.2,0.34886
4627.06,0.35286
4603.92,0.35904
4580.77,0.36274
4557.63,0.36571
4534.48,0.36652
4511.34,0.37033
4488.19,0.36684
4465.05,0.35242
4441.9,0.33242
4418.76,0.31234
4395.61,0.30286
4372.47,0.30963
4349.32,0.31389
4326.18,0.30912
4303.03,0.30445
4279.89,0.30097
4256.74,0.30538
4233.6,0.30818
4210.45,0.30843
4187.31,0.30923
4164.16,0.31222
4141.02,0.30692
4117.87,0.29496
4094.73,0.27928
4071.58,0.26281
4048.44,0.24643
4025.29,0.23553
4002.15,0.23311
3979,0.23724
3955.86,0.24286
3932.71,0.25127
3909.57,0.25830
3886.42,0.26620
3863.28,0.27411
3840.13,0.28293
3816.99,0.28655
3793.84,0.28701
3770.7,0.28565
3747.55,0.27952
3724.41,0.26754
3701.26,0.24557
3678.12,0.20384
3654.97,0.14768
3631.83,0.11003
3608.68,0.08543
3585.54,0.06741
3562.39,0.05633
3539.25,0.04961
3516.1,0.04419
3492.96,0.04076
3469.81,0.03864
3446.67,0.03713
3423.52,0.03732
3400.38,0.03733
3377.23,0.03774
3354.09,0.03844
3330.94,0.04101
3307.8,0.04275
3284.65,0.04424
3261.51,0.04642
3238.36,0.04890
3215.22,0.05098
3192.07,0.05425
3168.93,0.05846
3145.78,0.06217
3122.64,0.06608
3099.49,0.06978
3076.35,0.07275
3053.2,0.07675
3030.06,0.07880
3006.91,0.07722
2983.77,0.07106
2960.62,0.05917
2937.48,0.05414
2914.33,0.05461
2891.19,0.05713
2868.04,0.06023
2844.9,0.06745
2821.75,0.08235
2798.61,0.09225
2775.46,0.09743
2752.32,0.10038
2729.17,0.10182
2706.03,0.10671
2682.88,0.11279
2659.74,0.11704
2636.59,0.12104
2613.45,0.12560
2590.3,0.13004
2567.16,0.13277
2544.02,0.13359
2520.87,0.13738
2497.73,0.14357
2474.58,0.14894
2451.44,0.15520
2428.29,0.16194
2405.15,0.17072
2382,0.17878
2358.86,0.18447
2335.71,0.18846
2312.57,0.18972
2289.42,0.18788
2266.28,0.18448
2243.13,0.18107
2219.99,0.17870
2196.84,0.17512
2173.7,0.16806
2150.55,0.16335
2127.41,0.16268
2104.26,0.16548
2081.12,0.16535
2057.97,0.16262
2034.83,0.16535
2011.68,0.17191
1988.54,0.17555
1965.39,0.17870
1942.25,0.18424
1919.1,0.18584
1895.96,0.18295
1872.81,0.17960
1849.67,0.17433
1826.52,0.16363
1803.38,0.14464
1780.23,0.11426
1757.09,0.06981
1733.94,0.05263
1710.8,0.05230
1687.65,0.04394
1664.51,0.03919
1641.36,0.04504
1618.22,0.04475
1595.07,0.04561
1571.93,0.05138
1548.78,0.05186
1525.64,0.05002
1502.49,0.04738
1479.35,0.04952
1456.2,0.04303
1433.06,0.04239
1409.91,0.04551
1386.77,0.04151
1363.62,0.04156
1340.48,0.04196
1317.33,0.04109
1294.19,0.04096
1271.04,0.03795
1247.9,0.04110
1224.75,0.04167
1201.61,0.04206
1178.46,0.03655
1155.32,0.03712
1132.17,0.03493
1109.03,0.03720
1085.88,0.03744
1062.74,0.04779
1039.59,0.05227
1016.45,0.05898
993.304,0.06235
970.159,0.07069
947.014,0.07583
923.869,0.07867
900.724,0.06928
877.579,0.07230
854.434,0.07413
831.289,0.07031
808.144,0.06347
784.999,0.06093
761.854,0.05826
738.709,0.05478
715.565,0.04977
692.42,0.04784
669.275,0.04595
646.13,0.04563
622.985,0.04293
599.84,0.04652