Folder: fsri_materials_database/01_Data/Cotton_Batting/FTIR/IS

Note: README.md
# Materials and Products Database
### Repository of materials and products properties and fire test data to improve fire modeling and fire investigation.

This project was supported in part by Award No. 2019-DU-BX-0018, awarded by the National Institute of Justice, Office of Justice Programs, U.S. Department of Justice. The opinions, findings, and conclusions or recommendations expressed in this publication / program / exhibition are those of the author(s) and do not necessarily reflect those of the Department of Justice.

***
***

__Cite this database:__ "McKinnon, M., Weinschenk, C., Dow, N., DiDomizio, M., and Madrzykowski, D. Materials and Products Database (Version 1.0.0), Fire Safety Research Institute, UL Research Institutes. Columbia, MD 21045, 2023."

__Cite the Technical Reference Guide:__ "McKinnon, M., Weinschenk, C., and Madrzykowski, D. Materials and Products Database - Technical Reference Guide, Fire Safety Research Institute, UL Research Institutes. Columbia, MD 21045, 2023."

__Cite the User Guide:__ "McKinnon, M., and Weinschenk, C. Materials and Products Database - User Guide, Fire Safety Research Institute, UL Research Institutes. Columbia, MD 21045, 2023."

***
***

## Database Structure

## 01_Data/
Raw data generated from each apparatus are included here in plain-text format. The data is organized first by material, next by the short name of test apparatus used, and where applicable additional filtering by test settings.

### Test Apparatus and Data File Structure
- __Cone Calorimeter__ (Cone)
    + Data file structure includes the material, the short name for the apparatus, heat flux setting and scan/scalar, date of test, and replicate number. Scan is for the raw output data and scalar is for the initial conditions and high-level test parameters. 
        * Example: __MDF_Cone_HF25scalar_210323_R1__ stands for the first replicate of scalar data generated from a medium density fiber board test in cone calorimeter exposed to 25 kW/m<sup>2</sup> on March 23, 2021.
    + A _Cone_Notes.csv_ is generated for each material from the __plot_Cone_data.py__ script. For materials whose experiments deviated from typical behavior relevant pictures are included in the respective material directory.
- __Fourier Transform Infrared Spectrometer__ (FTIR)
    + The FTIR directory contains subdirectories for the Attenuated Total Reflectance method (ATR) and the Integrating Sphere (IS)
    + Data file structure for the ATR experiment files includes the material, the abbreviated name for the apparatus, date of test, and replicate number. 
        * Example: __MDF_ATR_210323_R5__ stands for the fifth replicate of data collected with the ATR accessory conducted on June 8, 2021.
    + Data file structure for the IS experiment files includes the material, the abbreviated name for the apparatus, the measurand, whether the test is a sample measurement or standard reference, date of test, and replicate number.
        * Example: __OSB_IS_REFLECT_MEAS_2

File: Cotton_Batting_IS_S_220912_R1.dpt
7497.03,0.57226
7473.89,0.57419
7450.74,0.57288
7427.6,0.57252
7404.45,0.56948
7381.31,0.56593
7358.16,0.56119
7335.02,0.55527
7311.87,0.57029
7288.73,0.56464
7265.58,0.55906
7242.44,0.56142
7219.29,0.55367
7196.15,0.56069
7173,0.55508
7149.86,0.55417
7126.71,0.54856
7103.57,0.54769
7080.42,0.55460
7057.28,0.54774
7034.13,0.55372
7010.99,0.55387
6987.84,0.54860
6964.7,0.55585
6941.55,0.55520
6918.41,0.55300
6895.26,0.56097
6872.12,0.55826
6848.97,0.55714
6825.83,0.55960
6802.68,0.56118
6779.54,0.55869
6756.39,0.55557
6733.25,0.55995
6710.1,0.56277
6686.96,0.55819
6663.82,0.55219
6640.67,0.55555
6617.53,0.55605
6594.38,0.55813
6571.24,0.54933
6548.09,0.54943
6524.95,0.55180
6501.8,0.55137
6478.66,0.55000
6455.51,0.55877
6432.37,0.56132
6409.22,0.55621
6386.08,0.55776
6362.93,0.55779
6339.79,0.55438
6316.64,0.55544
6293.5,0.56131
6270.35,0.55713
6247.21,0.55564
6224.06,0.55802
6200.92,0.55315
6177.77,0.55270
6154.63,0.55138
6131.48,0.54988
6108.34,0.53907
6085.19,0.51081
6062.05,0.48735
6038.9,0.45913
6015.76,0.44385
5992.61,0.47132
5969.47,0.49066
5946.32,0.49148
5923.18,0.50309
5900.03,0.50905
5876.89,0.49242
5853.74,0.47894
5830.6,0.47637
5807.45,0.47470
5784.31,0.47529
5761.16,0.48544
5738.02,0.49101
5714.87,0.49599
5691.73,0.49877
5668.58,0.50231
5645.44,0.50982
5622.29,0.52024
5599.15,0.52252
5576,0.52140
5552.86,0.52117
5529.71,0.52203
5506.57,0.52349
5483.42,0.52232
5460.28,0.52570
5437.13,0.53106
5413.99,0.53432
5390.84,0.53592
5367.7,0.53642
5344.55,0.53581
5321.41,0.53651
5298.26,0.53305
5275.12,0.52344
5251.97,0.51276
5228.83,0.50911
5205.68,0.50959
5182.54,0.50984
5159.39,0.50471
5136.25,0.50011
5113.1,0.49919
5089.96,0.51066
5066.81,0.51641
5043.67,0.52044
5020.52,0.51963
4997.38,0.51557
4974.23,0.50837
4951.09,0.50422
4927.94,0.50015
4904.8,0.48517
4881.65,0.46355
4858.51,0.46944
4835.36,0.48522
4812.22,0.48336
4789.07,0.47873
4765.93,0.48249
4742.78,0.46460
4719.64,0.42927
4696.49,0.39955
4673.35,0.41827
4650.2,0.42855
4627.06,0.41035
4603.92,0.43651
4580.77,0.41422
4557.63,0.44195
4534.48,0.44343
4511.34,0.43617
4488.19,0.40078
4465.05,0.36283
4441.9,0.32362
4418.76,0.31484
4395.61,0.31319
4372.47,0.30827
4349.32,0.29975
4326.18,0.30178
4303.03,0.30262
4279.89,0.29213
4256.74,0.29004
4233.6,0.29599
4210.45,0.30410
4187.31,0.30563
4164.16,0.31243
4141.02,0.32311
4117.87,0.31119
4094.73,0.26501
4071.58,0.29517
4048.44,0.31618
4025.29,0.32505
4002.15,0.32547
3979,0.33845
3955.86,0.35680
3932.71,0.36712
3909.57,0.37469
3886.42,0.38937
3863.28,0.39607
3840.13,0.39794
3816.99,0.39693
3793.84,0.39881
3770.7,0.39710
3747.55,0.40075
3724.41,0.40097
3701.26,0.38018
3678.12,0.31427
3654.97,0.26755
3631.83,0.22918
3608.68,0.21271
3585.54,0.19118
3562.39,0.16038
3539.25,0.14922
3516.1,0.14943
3492.96,0.15115
3469.81,0.14384
3446.67,0.11846
3423.52,0.11026
3400.38,0.13913
3377.23,0.13776
3354.09,0.12591
3330.94,0.11640
3307.8,0.11982
3284.65,0.12246
3261.51,0.12514
3238.36,0.12886
3215.22,0.13533
3192.07,0.13757
3168.93,0.14490
3145.78,0.14560
3122.64,0.13149
3099.49,0.10983
3076.35,0.09937
3053.2,0.09802
3030.06,0.12844
3006.91,0.09268
2983.77,0.06381
2960.62,0.04403
2937.48,0.06535
2914.33,0.06231
2891.19,0.07054
2868.04,0.07854
2844.9,0.10313
2821.75,0.14603
2798.61,0.16445
2775.46,0.19018
2752.32,0.19972
2729.17,0.21617
2706.03,0.23775
2682.88,0.24726
2659.74,0.25392
2636.59,0.24557
2613.45,0.24522
2590.3,0.23642
2567.16,0.23746
2544.02,0.23815
2520.87,0.24728
2497.73,0.26064
2474.58,0.28254
2451.44,0.29610
2428.29,0.27695
2405.15,0.24999
2382,0.24236
2358.86,0.27274
2335.71,0.29428
2312.57,0.30200
2289.42,0.26609
2266.28,0.26341
2243.13,0.20839
2219.99,0.28643
2196.84,0.29904
2173.7,0.28756
2150.55,0.24949
2127.41,0.23105
2104.26,0.22185
2081.12,0.24133
2057.97,0.28301
2034.83,0.29814
2011.68,0.27264
1988.54,0.23034
1965.39,0.18056
1942.25,0.19025
1919.1,0.24188
1895.96,0.26453
1872.81,0.26267
1849.67,0.20735
1826.52,0.14925
1803.38,0.13708
1780.23,0.10918
1757.09,0.05817
1733.94,0.03417
1710.8,0.04330
1687.65,0.05134
1664.51,0.06734
1641.36,0.08942
1618.22,0.08667
1595.07,0.10527
1571.93,0.07316
1548.78,0.09654
1525.64,0.08608
1502.49,0.05120
1479.35,0.06036
1456.2,0.03397
1433.06,0.04816
1409.91,0.02984
1386.77,0.03923
1363.62,0.03663
1340.48,0.03316
1317.33,0.02980
1294.19,0.02681
1271.04,0.04153
1247.9,0.04598
1224.75,0.04744
1201.61,0.06299
1178.46,0.05080
1155.32,0.04424
1132.17,0.03687
1109.03,0.04111
1085.88,0.04522
1062.74,0.07645
1039.59,0.05748
1016.45,0.05147
993.304,0.12228
970.159,0.08153
947.014,0.14682
923.869,0.15144
900.724,0.08814
877.579,0.06185
854.434,0.08101
831.289,0.11081
808.144,0.11375
784.999,0.11584
761.854,0.13378
738.709,0.03940
715.565,0.08220
692.42,0.14281
669.275,0.15580
646.13,0.17182
622.985,0.16844
599.84,0.17367

File: Cotton_Batting_IS_S_220912_R2.dpt
7497.03,0.57747
7473.89,0.58323
7450.74,0.57065
7427.6,0.57306
7404.45,0.57007
7381.31,0.56509
7358.16,0.56176
7335.02,0.56774
7311.87,0.56321
7288.73,0.56554
7265.58,0.55760
7242.44,0.56046
7219.29,0.55995
7196.15,0.55024
7173,0.55778
7149.86,0.55771
7126.71,0.55652
7103.57,0.55608
7080.42,0.55071
7057.28,0.54900
7034.13,0.55438
7010.99,0.55342
6987.84,0.54930
6964.7,0.55593
6941.55,0.56084
6918.41,0.55696
6895.26,0.55874
6872.12,0.56316
6848.97,0.56057
6825.83,0.55950
6802.68,0.56268
6779.54,0.56218
6756.39,0.56073
6733.25,0.55804
6710.1,0.55923
6686.96,0.55435
6663.82,0.55881
6640.67,0.56176
6617.53,0.55837
6594.38,0.55729
6571.24,0.55793
6548.09,0.55441
6524.95,0.55227
6501.8,0.55035
6478.66,0.55590
6455.51,0.55585
6432.37,0.55933
6409.22,0.56343
6386.08,0.56302
6362.93,0.56086
6339.79,0.55971
6316.64,0.56217
6293.5,0.56053
6270.35,0.55889
6247.21,0.56153
6224.06,0.55730
6200.92,0.55169
6177.77,0.55516
6154.63,0.55137
6131.48,0.54838
6108.34,0.54000
6085.19,0.51897
6062.05,0.48811
6038.9,0.46105
6015.76,0.44221
5992.61,0.47600
5969.47,0.49010
5946.32,0.49396
5923.18,0.50780
5900.03,0.50940
5876.89,0.49364
5853.74,0.48146
5830.6,0.47884
5807.45,0.47518
5784.31,0.47462
5761.16,0.48667
5738.02,0.49198
5714.87,0.49410
5691.73,0.49840
5668.58,0.50564
5645.44,0.51486
5622.29,0.51997
5599.15,0.52740
5576,0.52263
5552.86,0.52293
5529.71,0.52456
5506.57,0.52566
5483.42,0.52516
5460.28,0.52689
5437.13,0.53229
5413.99,0.53660
5390.84,0.53820
5367.7,0.53921
5344.55,0.53928
5321.41,0.54045
5298.26,0.53666
5275.12,0.53008
5251.97,0.52317
5228.83,0.52232
5205.68,0.52069
5182.54,0.51896
5159.39,0.51529
5136.25,0.51009
5113.1,0.50795
5089.96,0.51844
5066.81,0.52480
5043.67,0.52813
5020.52,0.52578
4997.38,0.52078
4974.23,0.51270
4951.09,0.50924
4927.94,0.50400
4904.8,0.48932
4881.65,0.46658
4858.51,0.47117
4835.36,0.48797
4812.22,0.48607
4789.07,0.48200
4765.93,0.48537
4742.78,0.46720
4719.64,0.43117
4696.49,0.40213
4673.35,0.42027
4650.2,0.43128
4627.06,0.41186
4603.92,0.43867
4580.77,0.41646
4557.63,0.44348
4534.48,0.44565
4511.34,0.43905
4488.19,0.40245
4465.05,0.36470
4441.9,0.32506
4418.76,0.31688
4395.61,0.31505
4372.47,0.30911
4349.32,0.29944
4326.18,0.30239
4303.03,0.30391
4279.89,0.29395
4256.74,0.29064
4233.6,0.29683
4210.45,0.30608
4187.31,0.30709
4164.16,0.31364
4141.02,0.32494
4117.87,0.31203
4094.73,0.26654
4071.58,0.29738
4048.44,0.31864
4025.29,0.32684
4002.15,0.32873
3979,0.34154
3955.86,0.36035
3932.71,0.37051
3909.57,0.37841
3886.42,0.39307
3863.28,0.40037
3840.13,0.40137
3816.99,0.40075
3793.84,0.40402
3770.7,0.40307
3747.55,0.40751
3724.41,0.40956
3701.26,0.39125
3678.12,0.33785
3654.97,0.30746
3631.83,0.26912
3608.68,0.24638
3585.54,0.21779
3562.39,0.18261
3539.25,0.16799
3516.1,0.16730
3492.96,0.16695
3469.81,0.15871
3446.67,0.12717
3423.52,0.11832
3400.38,0.14716
3377.23,0.14238
3354.09,0.12825
3330.94,0.11750
3307.8,0.12130
3284.65,0.12372
3261.51,0.12672
3238.36,0.13139
3215.22,0.13752
3192.07,0.14106
3168.93,0.14889
3145.78,0.14889
3122.64,0.13453
3099.49,0.11099
3076.35,0.10043
3053.2,0.09909
3030.06,0.13060
3006.91,0.09376
2983.77,0.06344
2960.62,0.04423
2937.48,0.06589
2914.33,0.06278
2891.19,0.07055
2868.04,0.07952
2844.9,0.10348
2821.75,0.14679
2798.61,0.16591
2775.46,0.19164
2752.32,0.20094
2729.17,0.21749
2706.03,0.23958
2682.88,0.25016
2659.74,0.25681
2636.59,0.24741
2613.45,0.24741
2590.3,0.23830
2567.16,0.23955
2544.02,0.24059
2520.87,0.24933
2497.73,0.26344
2474.58,0.28490
2451.44,0.29870
2428.29,0.27919
2405.15,0.25227
2382,0.24403
2358.86,0.27132
2335.71,0.29395
2312.57,0.30398
2289.42,0.26879
2266.28,0.26649
2243.13,0.21061
2219.99,0.29076
2196.84,0.30437
2173.7,0.29284
2150.55,0.25413
2127.41,0.23453
2104.26,0.22520
2081.12,0.24496
2057.97,0.28720
2034.83,0.30237
2011.68,0.27593
1988.54,0.23276
1965.39,0.18201
1942.25,0.19167
1919.1,0.24371
1895.96,0.26694
1872.81,0.26498
1849.67,0.20910
1826.52,0.14992
1803.38,0.13772
1780.23,0.11002
1757.09,0.05825
1733.94,0.03428
1710.8,0.04359
1687.65,0.05129
1664.51,0.06806
1641.36,0.09146
1618.22,0.08873
1595.07,0.10693
1571.93,0.07351
1548.78,0.09715
1525.64,0.08639
1502.49,0.05154
1479.35,0.06011
1456.2,0.03392
1433.06,0.04766
1409.91,0.02932
1386.77,0.03912
1363.62,0.03643
1340.48,0.03344
1317.33,0.02963
1294.19,0.02712
1271.04,0.04147
1247.9,0.04580
1224.75,0.04736
1201.61,0.06307
1178.46,0.05171
1155.32,0.04425
1132.17,0.03693
1109.03,0.04107
1085.88,0.04614
1062.74,0.07686
1039.59,0.05754
1016.45,0.05149
993.304,0.12303
970.159,0.08226
947.014,0.14825
923.869,0.15283
900.724,0.08932
877.579,0.06218
854.434,0.08257
831.289,0.11174
808.144,0.11598
784.999,0.11777
761.854,0.13551
738.709,0.03978
715.565,0.08375
692.42,0.14388
669.275,0.15653
646.13,0.17561
622.985,0.17301
599.84,0.17857

File: Cotton_Batting_IS_S_220912_R3.dpt
7497.03,0.56497
7473.89,0.57689
7450.74,0.56822
7427.6,0.56488
7404.45,0.57562
7381.31,0.57885
7358.16,0.57069
7335.02,0.56262
7311.87,0.56652
7288.73,0.55236
7265.58,0.56203
7242.44,0.55519
7219.29,0.55238
7196.15,0.56692
7173,0.55752
7149.86,0.55304
7126.71,0.55106
7103.57,0.55301
7080.42,0.55503
7057.28,0.55285
7034.13,0.55357
7010.99,0.55154
6987.84,0.55539
6964.7,0.55355
6941.55,0.55085
6918.41,0.55482
6895.26,0.56494
6872.12,0.56680
6848.97,0.56067
6825.83,0.56103
6802.68,0.55648
6779.54,0.56283
6756.39,0.56128
6733.25,0.56045
6710.1,0.55872
6686.96,0.55758
6663.82,0.55879
6640.67,0.55554
6617.53,0.56056
6594.38,0.56000
6571.24,0.55299
6548.09,0.55473
6524.95,0.55086
6501.8,0.55002
6478.66,0.55525
6455.51,0.56076
6432.37,0.55902
6409.22,0.56197
6386.08,0.55676
6362.93,0.55939
6339.79,0.55754
6316.64,0.56074
6293.5,0.56431
6270.35,0.55719
6247.21,0.56084
6224.06,0.55541
6200.92,0.55338
6177.77,0.55245
6154.63,0.55270
6131.48,0.54877
6108.34,0.53793
6085.19,0.51450
6062.05,0.48843
6038.9,0.46235
6015.76,0.44447
5992.61,0.47357
5969.47,0.48746
5946.32,0.49440
5923.18,0.50562
5900.03,0.50683
5876.89,0.49510
5853.74,0.48012
5830.6,0.47646
5807.45,0.47533
5784.31,0.47712
5761.16,0.48536
5738.02,0.49250
5714.87,0.49642
5691.73,0.49955
5668.58,0.50455
5645.44,0.51107
5622.29,0.52136
5599.15,0.52407
5576,0.52079
5552.86,0.52305
5529.71,0.52334
5506.57,0.52675
5483.42,0.52528
5460.28,0.52511
5437.13,0.53068
5413.99,0.53580
5390.84,0.53560
5367.7,0.54005
5344.55,0.53733
5321.41,0.53964
5298.26,0.53773
5275.12,0.53145
5251.97,0.52458
5228.83,0.52263
5205.68,0.52233
5182.54,0.51995
5159.39,0.51618
5136.25,0.51121
5113.1,0.50866
5089.96,0.51995
5066.81,0.52582
5043.67,0.52609
5020.52,0.52580
4997.38,0.52048
4974.23,0.51174
4951.09,0.50877
4927.94,0.50222
4904.8,0.48887
4881.65,0.46592
4858.51,0.47010
4835.36,0.48792
4812.22,0.48523
4789.07,0.48241
4765.93,0.48472
4742.78,0.46679
4719.64,0.43152
4696.49,0.40139
4673.35,0.41936
4650.2,0.43009
4627.06,0.41180
4603.92,0.43876
4580.77,0.41583
4557.63,0.44328
4534.48,0.44491
4511.34,0.43777
4488.19,0.40190
4465.05,0.36446
4441.9,0.32495
4418.76,0.31549
4395.61,0.31397
4372.47,0.30921
4349.32,0.30005
4326.18,0.30260
4303.03,0.30334
4279.89,0.29327
4256.74,0.29063
4233.6,0.29629
4210.45,0.30489
4187.31,0.30730
4164.16,0.31367
4141.02,0.32441
4117.87,0.31241
4094.73,0.26572
4071.58,0.29671
4048.44,0.31880
4025.29,0.32673
4002.15,0.32827
3979,0.34094
3955.86,0.35999
3932.71,0.36944
3909.57,0.37767
3886.42,0.39209
3863.28,0.39963
3840.13,0.40134
3816.99,0.39969
3793.84,0.40381
3770.7,0.40377
3747.55,0.40757
3724.41,0.41032
3701.26,0.39426
3678.12,0.34483
3654.97,0.31857
3631.83,0.28089
3608.68,0.25593
3585.54,0.22637
3562.39,0.19078
3539.25,0.17493
3516.1,0.17453
3492.96,0.17423
3469.81,0.16375
3446.67,0.13027
3423.52,0.11941
3400.38,0.15135
3377.23,0.14395
3354.09,0.12758
3330.94,0.11754
3307.8,0.12034
3284.65,0.12374
3261.51,0.12644
3238.36,0.13166
3215.22,0.13887
3192.07,0.14140
3168.93,0.14897
3145.78,0.14984
3122.64,0.13500
3099.49,0.11220
3076.35,0.10113
3053.2,0.09958
3030.06,0.13074
3006.91,0.09354
2983.77,0.06433
2960.62,0.04445
2937.48,0.06545
2914.33,0.06240
2891.19,0.07079
2868.04,0.07965
2844.9,0.10348
2821.75,0.14662
2798.61,0.16483
2775.46,0.19189
2752.32,0.20071
2729.17,0.21765
2706.03,0.23994
2682.88,0.24943
2659.74,0.25643
2636.59,0.24796
2613.45,0.24767
2590.3,0.23844
2567.16,0.23923
2544.02,0.24049
2520.87,0.24942
2497.73,0.26286
2474.58,0.28455
2451.44,0.29794
2428.29,0.27925
2405.15,0.25195
2382,0.24356
2358.86,0.27097
2335.71,0.29343
2312.57,0.30443
2289.42,0.26874
2266.28,0.26621
2243.13,0.21103
2219.99,0.29136
2196.84,0.30534
2173.7,0.29357
2150.55,0.25445
2127.41,0.23496
2104.26,0.22555
2081.12,0.24480
2057.97,0.28727
2034.83,0.30247
2011.68,0.27590
1988.54,0.23258
1965.39,0.18226
1942.25,0.19155
1919.1,0.24396
1895.96,0.26680
1872.81,0.26512
1849.67,0.20899
1826.52,0.14986
1803.38,0.13779
1780.23,0.10993
1757.09,0.05828
1733.94,0.03424
1710.8,0.04354
1687.65,0.05149
1664.51,0.06824
1641.36,0.09176
1618.22,0.08923
1595.07,0.10712
1571.93,0.07326
1548.78,0.09692
1525.64,0.08613
1502.49,0.05144
1479.35,0.06051
1456.2,0.03373
1433.06,0.04796
1409.91,0.02983
1386.77,0.03911
1363.62,0.03678
1340.48,0.03346
1317.33,0.02949
1294.19,0.02698
1271.04,0.04141
1247.9,0.04663
1224.75,0.04749
1201.61,0.06271
1178.46,0.05133
1155.32,0.04461
1132.17,0.03764
1109.03,0.04182
1085.88,0.04631
1062.74,0.07720
1039.59,0.05746
1016.45,0.05168
993.304,0.12345
970.159,0.08227
947.014,0.14871
923.869,0.15296
900.724,0.08901
877.579,0.06332
854.434,0.08297
831.289,0.11185
808.144,0.11786
784.999,0.11946
761.854,0.13596
738.709,0.04047
715.565,0.08254
692.42,0.14395
669.275,0.15675
646.13,0.17696
622.985,0.17435
599.84,0.17918

File: Cotton_Batting_IS_S_220912_R4.dpt
7497.03,0.58395
7473.89,0.57849
7450.74,0.58023
7427.6,0.57754
7404.45,0.56938
7381.31,0.56776
7358.16,0.55978
7335.02,0.56789
7311.87,0.56050
7288.73,0.56431
7265.58,0.55865
7242.44,0.55706
7219.29,0.56396
7196.15,0.55636
7173,0.55628
7149.86,0.55437
7126.71,0.55968
7103.57,0.55083
7080.42,0.55644
7057.28,0.55708
7034.13,0.55434
7010.99,0.56277
6987.84,0.55566
6964.7,0.55785
6941.55,0.55463
6918.41,0.55406
6895.26,0.56144
6872.12,0.55860
6848.97,0.55916
6825.83,0.55891
6802.68,0.56053
6779.54,0.56031
6756.39,0.55728
6733.25,0.55784
6710.1,0.56324
6686.96,0.55404
6663.82,0.55833
6640.67,0.55697
6617.53,0.55703
6594.38,0.55639
6571.24,0.55628
6548.09,0.55288
6524.95,0.55343
6501.8,0.55515
6478.66,0.55468
6455.51,0.56246
6432.37,0.56204
6409.22,0.56421
6386.08,0.56258
6362.93,0.55941
6339.79,0.55728
6316.64,0.55811
6293.5,0.56194
6270.35,0.55572
6247.21,0.55595
6224.06,0.56320
6200.92,0.54871
6177.77,0.55201
6154.63,0.55148
6131.48,0.55116
6108.34,0.54204
6085.19,0.51322
6062.05,0.48859
6038.9,0.46153
6015.76,0.44222
5992.61,0.47598
5969.47,0.48876
5946.32,0.49682
5923.18,0.50335
5900.03,0.50799
5876.89,0.49358
5853.74,0.48224
5830.6,0.47740
5807.45,0.47202
5784.31,0.47592
5761.16,0.48610
5738.02,0.49455
5714.87,0.49487
5691.73,0.49788
5668.58,0.50796
5645.44,0.51227
5622.29,0.52149
5599.15,0.52317
5576,0.52262
5552.86,0.52281
5529.71,0.52156
5506.57,0.52597
5483.42,0.52413
5460.28,0.52521
5437.13,0.53178
5413.99,0.53440
5390.84,0.53668
5367.7,0.53905
5344.55,0.53914
5321.41,0.54029
5298.26,0.53720
5275.12,0.53146
5251.97,0.52581
5228.83,0.52347
5205.68,0.52370
5182.54,0.52188
5159.39,0.51866
5136.25,0.51316
5113.1,0.50957
5089.96,0.52141
5066.81,0.52622
5043.67,0.52719
5020.52,0.52488
4997.38,0.52227
4974.23,0.51244
4951.09,0.50832
4927.94,0.50373
4904.8,0.48833
4881.65,0.46667
4858.51,0.47123
4835.36,0.48765
4812.22,0.48587
4789.07,0.48120
4765.93,0.48500
4742.78,0.46708
4719.64,0.43035
4696.49,0.39972
4673.35,0.42011
4650.2,0.43042
4627.06,0.41102
4603.92,0.43767
4580.77,0.41507
4557.63,0.44264
4534.48,0.44502
4511.34,0.43854
4488.19,0.40205
4465.05,0.36407
4441.9,0.32444
4418.76,0.31502
4395.61,0.31405
4372.47,0.30998
4349.32,0.29933
4326.18,0.30244
4303.03,0.30360
4279.89,0.29357
4256.74,0.29044
4233.6,0.29681
4210.45,0.30429
4187.31,0.30694
4164.16,0.31360
4141.02,0.32448
4117.87,0.31154
4094.73,0.26655
4071.58,0.29677
4048.44,0.31885
4025.29,0.32727
4002.15,0.32861
3979,0.34135
3955.86,0.35988
3932.71,0.37063
3909.57,0.37823
3886.42,0.39257
3863.28,0.40005
3840.13,0.40094
3816.99,0.40066
3793.84,0.40471
3770.7,0.40380
3747.55,0.40837
3724.41,0.41164
3701.26,0.39644
3678.12,0.34881
3654.97,0.32664
3631.83,0.28867
3608.68,0.26317
3585.54,0.23180
3562.39,0.19518
3539.25,0.17967
3516.1,0.17835
3492.96,0.17826
3469.81,0.16752
3446.67,0.13204
3423.52,0.12101
3400.38,0.15243
3377.23,0.14483
3354.09,0.12775
3330.94,0.11816
3307.8,0.12116
3284.65,0.12365
3261.51,0.12752
3238.36,0.13207
3215.22,0.13955
3192.07,0.14181
3168.93,0.15074
3145.78,0.15076
3122.64,0.13546
3099.49,0.11214
3076.35,0.10063
3053.2,0.09978
3030.06,0.13167
3006.91,0.09421
2983.77,0.06401
2960.62,0.04435
2937.48,0.06517
2914.33,0.06216
2891.19,0.07096
2868.04,0.07930
2844.9,0.10393
2821.75,0.14645
2798.61,0.16539
2775.46,0.19216
2752.32,0.20115
2729.17,0.21797
2706.03,0.23974
2682.88,0.24978
2659.74,0.25694
2636.59,0.24825
2613.45,0.24780
2590.3,0.23842
2567.16,0.23996
2544.02,0.24078
2520.87,0.24981
2497.73,0.26332
2474.58,0.28497
2451.44,0.29858
2428.29,0.27927
2405.15,0.25229
2382,0.24376
2358.86,0.27118
2335.71,0.29415
2312.57,0.30469
2289.42,0.26931
2266.28,0.26701
2243.13,0.21131
2219.99,0.29207
2196.84,0.30592
2173.7,0.29410
2150.55,0.25498
2127.41,0.23553
2104.26,0.22567
2081.12,0.24545
2057.97,0.28787
2034.83,0.30335
2011.68,0.27691
1988.54,0.23312
1965.39,0.18251
1942.25,0.19170
1919.1,0.24373
1895.96,0.26713
1872.81,0.26521
1849.67,0.20906
1826.52,0.15016
1803.38,0.13762
1780.23,0.10913
1757.09,0.05797
1733.94,0.03432
1710.8,0.04376
1687.65,0.05146
1664.51,0.06847
1641.36,0.09222
1618.22,0.08948
1595.07,0.10784
1571.93,0.07349
1548.78,0.09695
1525.64,0.08638
1502.49,0.05135
1479.35,0.06052
1456.2,0.03353
1433.06,0.04808
1409.91,0.02949
1386.77,0.03922
1363.62,0.03660
1340.48,0.03331
1317.33,0.02989
1294.19,0.02732
1271.04,0.04184
1247.9,0.04596
1224.75,0.04774
1201.61,0.06320
1178.46,0.05169
1155.32,0.04485
1132.17,0.03701
1109.03,0.04131
1085.88,0.04620
1062.74,0.07748
1039.59,0.05750
1016.45,0.05228
993.304,0.12314
970.159,0.08246
947.014,0.14867
923.869,0.15294
900.724,0.08975
877.579,0.06346
854.434,0.08244
831.289,0.11238
808.144,0.11760
784.999,0.11951
761.854,0.13626
738.709,0.03957
715.565,0.08288
692.42,0.14493
669.275,0.15745
646.13,0.17720
622.985,0.17420
599.84,0.17763