Folder: fsri_materials_database/01_Data/Cotton_Batting/FTIR/IS (part 2)

File: Cotton_Batting_IS_S_220912_R5.dpt
7497.03,0.57269
7473.89,0.56901
7450.74,0.57558
7427.6,0.56387
7404.45,0.57383
7381.31,0.57588
7358.16,0.57363
7335.02,0.56663
7311.87,0.56728
7288.73,0.56223
7265.58,0.56055
7242.44,0.55775
7219.29,0.55700
7196.15,0.55767
7173,0.55751
7149.86,0.55607
7126.71,0.54529
7103.57,0.55945
7080.42,0.55111
7057.28,0.54786
7034.13,0.55486
7010.99,0.55000
6987.84,0.55778
6964.7,0.55642
6941.55,0.55683
6918.41,0.56221
6895.26,0.55228
6872.12,0.55816
6848.97,0.55672
6825.83,0.56456
6802.68,0.56168
6779.54,0.56103
6756.39,0.55858
6733.25,0.56341
6710.1,0.56279
6686.96,0.56313
6663.82,0.56034
6640.67,0.55878
6617.53,0.55446
6594.38,0.55927
6571.24,0.55618
6548.09,0.55409
6524.95,0.55375
6501.8,0.55243
6478.66,0.55348
6455.51,0.56016
6432.37,0.56622
6409.22,0.56248
6386.08,0.56070
6362.93,0.56148
6339.79,0.56067
6316.64,0.55933
6293.5,0.56005
6270.35,0.55859
6247.21,0.55640
6224.06,0.55530
6200.92,0.55174
6177.77,0.55219
6154.63,0.55625
6131.48,0.55309
6108.34,0.54194
6085.19,0.51459
6062.05,0.48635
6038.9,0.46245
6015.76,0.44372
5992.61,0.47446
5969.47,0.48923
5946.32,0.49553
5923.18,0.50630
5900.03,0.51026
5876.89,0.49212
5853.74,0.48253
5830.6,0.47713
5807.45,0.47250
5784.31,0.47391
5761.16,0.48553
5738.02,0.49468
5714.87,0.49411
5691.73,0.50056
5668.58,0.50378
5645.44,0.51080
5622.29,0.52056
5599.15,0.52522
5576,0.52072
5552.86,0.52333
5529.71,0.52310
5506.57,0.52586
5483.42,0.52590
5460.28,0.52681
5437.13,0.53285
5413.99,0.53492
5390.84,0.53764
5367.7,0.53876
5344.55,0.53897
5321.41,0.54154
5298.26,0.53870
5275.12,0.53330
5251.97,0.52705
5228.83,0.52474
5205.68,0.52400
5182.54,0.52344
5159.39,0.51910
5136.25,0.51357
5113.1,0.51284
5089.96,0.52270
5066.81,0.52739
5043.67,0.52715
5020.52,0.52557
4997.38,0.52361
4974.23,0.51333
4951.09,0.50764
4927.94,0.50325
4904.8,0.48826
4881.65,0.46625
4858.51,0.47203
4835.36,0.48886
4812.22,0.48595
4789.07,0.48162
4765.93,0.48617
4742.78,0.46631
4719.64,0.43065
4696.49,0.40114
4673.35,0.42018
4650.2,0.43106
4627.06,0.41170
4603.92,0.43788
4580.77,0.41610
4557.63,0.44314
4534.48,0.44555
4511.34,0.43879
4488.19,0.40234
4465.05,0.36492
4441.9,0.32523
4418.76,0.31544
4395.61,0.31467
4372.47,0.30917
4349.32,0.30062
4326.18,0.30218
4303.03,0.30388
4279.89,0.29314
4256.74,0.29055
4233.6,0.29628
4210.45,0.30501
4187.31,0.30764
4164.16,0.31419
4141.02,0.32529
4117.87,0.31257
4094.73,0.26684
4071.58,0.29743
4048.44,0.31942
4025.29,0.32741
4002.15,0.32897
3979,0.34178
3955.86,0.36083
3932.71,0.37116
3909.57,0.37943
3886.42,0.39357
3863.28,0.40003
3840.13,0.40117
3816.99,0.40203
3793.84,0.40513
3770.7,0.40431
3747.55,0.40937
3724.41,0.41281
3701.26,0.39743
3678.12,0.35310
3654.97,0.33224
3631.83,0.29448
3608.68,0.26787
3585.54,0.23617
3562.39,0.19943
3539.25,0.18273
3516.1,0.18132
3492.96,0.18135
3469.81,0.17042
3446.67,0.13438
3423.52,0.12365
3400.38,0.15340
3377.23,0.14474
3354.09,0.12836
3330.94,0.11859
3307.8,0.12149
3284.65,0.12343
3261.51,0.12805
3238.36,0.13230
3215.22,0.14008
3192.07,0.14230
3168.93,0.15093
3145.78,0.15072
3122.64,0.13566
3099.49,0.11221
3076.35,0.10052
3053.2,0.09931
3030.06,0.13151
3006.91,0.09391
2983.77,0.06391
2960.62,0.04413
2937.48,0.06526
2914.33,0.06251
2891.19,0.07108
2868.04,0.07942
2844.9,0.10336
2821.75,0.14686
2798.61,0.16585
2775.46,0.19256
2752.32,0.20150
2729.17,0.21793
2706.03,0.24004
2682.88,0.25021
2659.74,0.25734
2636.59,0.24883
2613.45,0.24840
2590.3,0.23866
2567.16,0.23986
2544.02,0.24073
2520.87,0.24993
2497.73,0.26357
2474.58,0.28534
2451.44,0.29906
2428.29,0.27968
2405.15,0.25235
2382,0.24428
2358.86,0.27161
2335.71,0.29453
2312.57,0.30472
2289.42,0.26959
2266.28,0.26763
2243.13,0.21190
2219.99,0.29261
2196.84,0.30669
2173.7,0.29473
2150.55,0.25546
2127.41,0.23599
2104.26,0.22610
2081.12,0.24596
2057.97,0.28835
2034.83,0.30367
2011.68,0.27725
1988.54,0.23352
1965.39,0.18251
1942.25,0.19209
1919.1,0.24448
1895.96,0.26739
1872.81,0.26543
1849.67,0.20940
1826.52,0.14997
1803.38,0.13821
1780.23,0.10987
1757.09,0.05806
1733.94,0.03442
1710.8,0.04354
1687.65,0.05084
1664.51,0.06837
1641.36,0.09213
1618.22,0.08928
1595.07,0.10721
1571.93,0.07383
1548.78,0.09712
1525.64,0.08611
1502.49,0.05146
1479.35,0.06003
1456.2,0.03412
1433.06,0.04776
1409.91,0.02911
1386.77,0.03926
1363.62,0.03687
1340.48,0.03317
1317.33,0.02957
1294.19,0.02702
1271.04,0.04189
1247.9,0.04576
1224.75,0.04722
1201.61,0.06276
1178.46,0.05121
1155.32,0.04465
1132.17,0.03755
1109.03,0.04111
1085.88,0.04655
1062.74,0.07736
1039.59,0.05762
1016.45,0.05121
993.304,0.12318
970.159,0.08227
947.014,0.14891
923.869,0.15365
900.724,0.09017
877.579,0.06277
854.434,0.08279
831.289,0.11305
808.144,0.11703
784.999,0.11939
761.854,0.13681
738.709,0.03957
715.565,0.08287
692.42,0.14619
669.275,0.15947
646.13,0.17836
622.985,0.17245
599.84,0.18033

File: Cotton_Batting_IS_S_220912_R6.dpt
7497.03,0.57378
7473.89,0.57069
7450.74,0.56624
7427.6,0.57094
7404.45,0.57139
7381.31,0.57712
7358.16,0.56420
7335.02,0.55924
7311.87,0.56456
7288.73,0.56711
7265.58,0.56529
7242.44,0.55639
7219.29,0.56774
7196.15,0.55452
7173,0.55800
7149.86,0.55657
7126.71,0.55830
7103.57,0.55150
7080.42,0.55698
7057.28,0.54978
7034.13,0.55211
7010.99,0.55237
6987.84,0.55815
6964.7,0.55601
6941.55,0.55644
6918.41,0.55728
6895.26,0.56474
6872.12,0.55967
6848.97,0.55981
6825.83,0.56068
6802.68,0.55919
6779.54,0.55771
6756.39,0.55468
6733.25,0.55916
6710.1,0.56255
6686.96,0.56173
6663.82,0.56087
6640.67,0.55757
6617.53,0.55749
6594.38,0.55912
6571.24,0.55195
6548.09,0.55208
6524.95,0.55049
6501.8,0.55540
6478.66,0.55803
6455.51,0.55989
6432.37,0.56507
6409.22,0.55945
6386.08,0.55773
6362.93,0.55897
6339.79,0.56197
6316.64,0.56000
6293.5,0.56179
6270.35,0.55469
6247.21,0.55492
6224.06,0.55795
6200.92,0.55329
6177.77,0.55253
6154.63,0.55390
6131.48,0.54976
6108.34,0.54162
6085.19,0.51548
6062.05,0.48821
6038.9,0.46361
6015.76,0.44383
5992.61,0.47568
5969.47,0.48962
5946.32,0.49539
5923.18,0.50459
5900.03,0.50898
5876.89,0.49279
5853.74,0.48379
5830.6,0.47991
5807.45,0.47800
5784.31,0.47558
5761.16,0.48493
5738.02,0.49407
5714.87,0.49548
5691.73,0.49968
5668.58,0.50563
5645.44,0.51186
5622.29,0.52221
5599.15,0.52637
5576,0.52140
5552.86,0.52284
5529.71,0.52243
5506.57,0.52838
5483.42,0.52374
5460.28,0.52790
5437.13,0.53189
5413.99,0.53597
5390.84,0.53725
5367.7,0.53868
5344.55,0.53832
5321.41,0.54242
5298.26,0.53757
5275.12,0.53468
5251.97,0.52589
5228.83,0.52514
5205.68,0.52675
5182.54,0.52484
5159.39,0.51965
5136.25,0.51515
5113.1,0.51265
5089.96,0.52288
5066.81,0.52842
5043.67,0.52786
5020.52,0.52747
4997.38,0.52233
4974.23,0.51298
4951.09,0.50923
4927.94,0.50337
4904.8,0.48819
4881.65,0.46601
4858.51,0.46994
4835.36,0.48967
4812.22,0.48578
4789.07,0.48316
4765.93,0.48613
4742.78,0.46669
4719.64,0.43096
4696.49,0.39984
4673.35,0.42107
4650.2,0.43110
4627.06,0.41199
4603.92,0.43827
4580.77,0.41674
4557.63,0.44285
4534.48,0.44463
4511.34,0.43842
4488.19,0.40209
4465.05,0.36470
4441.9,0.32589
4418.76,0.31539
4395.61,0.31349
4372.47,0.30908
4349.32,0.30019
4326.18,0.30236
4303.03,0.30386
4279.89,0.29368
4256.74,0.29044
4233.6,0.29674
4210.45,0.30502
4187.31,0.30751
4164.16,0.31371
4141.02,0.32536
4117.87,0.31202
4094.73,0.26680
4071.58,0.29726
4048.44,0.31917
4025.29,0.32744
4002.15,0.32895
3979,0.34136
3955.86,0.36008
3932.71,0.37111
3909.57,0.37955
3886.42,0.39333
3863.28,0.40093
3840.13,0.40185
3816.99,0.40131
3793.84,0.40512
3770.7,0.40443
3747.55,0.41057
3724.41,0.41303
3701.26,0.39776
3678.12,0.35516
3654.97,0.33570
3631.83,0.29857
3608.68,0.27205
3585.54,0.23915
3562.39,0.20103
3539.25,0.18537
3516.1,0.18435
3492.96,0.18387
3469.81,0.17331
3446.67,0.13518
3423.52,0.12341
3400.38,0.15454
3377.23,0.14644
3354.09,0.12859
3330.94,0.11842
3307.8,0.12146
3284.65,0.12361
3261.51,0.12748
3238.36,0.13217
3215.22,0.14012
3192.07,0.14270
3168.93,0.15092
3145.78,0.15165
3122.64,0.13640
3099.49,0.11209
3076.35,0.10107
3053.2,0.09967
3030.06,0.13173
3006.91,0.09391
2983.77,0.06419
2960.62,0.04409
2937.48,0.06550
2914.33,0.06280
2891.19,0.07082
2868.04,0.07907
2844.9,0.10349
2821.75,0.14693
2798.61,0.16575
2775.46,0.19219
2752.32,0.20175
2729.17,0.21807
2706.03,0.23987
2682.88,0.24981
2659.74,0.25747
2636.59,0.24906
2613.45,0.24810
2590.3,0.23908
2567.16,0.24024
2544.02,0.24107
2520.87,0.24963
2497.73,0.26382
2474.58,0.28587
2451.44,0.29890
2428.29,0.27974
2405.15,0.25280
2382,0.24413
2358.86,0.27193
2335.71,0.29434
2312.57,0.30464
2289.42,0.26968
2266.28,0.26741
2243.13,0.21189
2219.99,0.29301
2196.84,0.30719
2173.7,0.29535
2150.55,0.25626
2127.41,0.23601
2104.26,0.22651
2081.12,0.24601
2057.97,0.28862
2034.83,0.30447
2011.68,0.27759
1988.54,0.23366
1965.39,0.18319
1942.25,0.19188
1919.1,0.24467
1895.96,0.26771
1872.81,0.26560
1849.67,0.20933
1826.52,0.15028
1803.38,0.13791
1780.23,0.10955
1757.09,0.05822
1733.94,0.03457
1710.8,0.04394
1687.65,0.05121
1664.51,0.06855
1641.36,0.09298
1618.22,0.09002
1595.07,0.10779
1571.93,0.07350
1548.78,0.09723
1525.64,0.08603
1502.49,0.05119
1479.35,0.06010
1456.2,0.03380
1433.06,0.04761
1409.91,0.02952
1386.77,0.03924
1363.62,0.03623
1340.48,0.03335
1317.33,0.02938
1294.19,0.02674
1271.04,0.04199
1247.9,0.04606
1224.75,0.04779
1201.61,0.06320
1178.46,0.05111
1155.32,0.04441
1132.17,0.03695
1109.03,0.04104
1085.88,0.04697
1062.74,0.07751
1039.59,0.05732
1016.45,0.05220
993.304,0.12338
970.159,0.08235
947.014,0.14903
923.869,0.15305
900.724,0.09006
877.579,0.06365
854.434,0.08216
831.289,0.11264
808.144,0.11796
784.999,0.11923
761.854,0.13613
738.709,0.04009
715.565,0.08277
692.42,0.14453
669.275,0.15939
646.13,0.17790
622.985,0.17340
599.84,0.18063

File: Cotton_Batting_IS_S_220912_R7.dpt
7497.03,0.57707
7473.89,0.57711
7450.74,0.57355
7427.6,0.56664
7404.45,0.57422
7381.31,0.57307
7358.16,0.56082
7335.02,0.55547
7311.87,0.56285
7288.73,0.55301
7265.58,0.55735
7242.44,0.55870
7219.29,0.55780
7196.15,0.56466
7173,0.55293
7149.86,0.55275
7126.71,0.54714
7103.57,0.55783
7080.42,0.55081
7057.28,0.55834
7034.13,0.55817
7010.99,0.55592
6987.84,0.55478
6964.7,0.55378
6941.55,0.55722
6918.41,0.55524
6895.26,0.56013
6872.12,0.55680
6848.97,0.55644
6825.83,0.55832
6802.68,0.56202
6779.54,0.55764
6756.39,0.55592
6733.25,0.56193
6710.1,0.56358
6686.96,0.55608
6663.82,0.55811
6640.67,0.55735
6617.53,0.55706
6594.38,0.54940
6571.24,0.55708
6548.09,0.55164
6524.95,0.55462
6501.8,0.55432
6478.66,0.55481
6455.51,0.56202
6432.37,0.56325
6409.22,0.55966
6386.08,0.56448
6362.93,0.55843
6339.79,0.55893
6316.64,0.56254
6293.5,0.55981
6270.35,0.55862
6247.21,0.55990
6224.06,0.55716
6200.92,0.55641
6177.77,0.55443
6154.63,0.55274
6131.48,0.55357
6108.34,0.53847
6085.19,0.51528
6062.05,0.48484
6038.9,0.46199
6015.76,0.44300
5992.61,0.47333
5969.47,0.49071
5946.32,0.49564
5923.18,0.50244
5900.03,0.50987
5876.89,0.49296
5853.74,0.47984
5830.6,0.47449
5807.45,0.47425
5784.31,0.47697
5761.16,0.48766
5738.02,0.49374
5714.87,0.49326
5691.73,0.49754
5668.58,0.50362
5645.44,0.51240
5622.29,0.51961
5599.15,0.52443
5576,0.52259
5552.86,0.52261
5529.71,0.52139
5506.57,0.52528
5483.42,0.52431
5460.28,0.52617
5437.13,0.53111
5413.99,0.53398
5390.84,0.53716
5367.7,0.53674
5344.55,0.53868
5321.41,0.53892
5298.26,0.53879
5275.12,0.53236
5251.97,0.52694
5228.83,0.52471
5205.68,0.52479
5182.54,0.52437
5159.39,0.51868
5136.25,0.51337
5113.1,0.51308
5089.96,0.52269
5066.81,0.52816
5043.67,0.52865
5020.52,0.52836
4997.38,0.52293
4974.23,0.51357
4951.09,0.50844
4927.94,0.50284
4904.8,0.48836
4881.65,0.46588
4858.51,0.47150
4835.36,0.48790
4812.22,0.48644
4789.07,0.48106
4765.93,0.48386
4742.78,0.46602
4719.64,0.43202
4696.49,0.40051
4673.35,0.41970
4650.2,0.43013
4627.06,0.41108
4603.92,0.43763
4580.77,0.41617
4557.63,0.44305
4534.48,0.44499
4511.34,0.43815
4488.19,0.40120
4465.05,0.36440
4441.9,0.32468
4418.76,0.31545
4395.61,0.31419
4372.47,0.30902
4349.32,0.29979
4326.18,0.30119
4303.03,0.30301
4279.89,0.29319
4256.74,0.29007
4233.6,0.29596
4210.45,0.30439
4187.31,0.30696
4164.16,0.31378
4141.02,0.32485
4117.87,0.31170
4094.73,0.26670
4071.58,0.29725
4048.44,0.31901
4025.29,0.32648
4002.15,0.32868
3979,0.34110
3955.86,0.35981
3932.71,0.37009
3909.57,0.37855
3886.42,0.39248
3863.28,0.40019
3840.13,0.40177
3816.99,0.40128
3793.84,0.40488
3770.7,0.40493
3747.55,0.40954
3724.41,0.41286
3701.26,0.39833
3678.12,0.35513
3654.97,0.33744
3631.83,0.30163
3608.68,0.27328
3585.54,0.24137
3562.39,0.20328
3539.25,0.18710
3516.1,0.18552
3492.96,0.18537
3469.81,0.17402
3446.67,0.13625
3423.52,0.12452
3400.38,0.15554
3377.23,0.14627
3354.09,0.12897
3330.94,0.11820
3307.8,0.12082
3284.65,0.12399
3261.51,0.12737
3238.36,0.13249
3215.22,0.13995
3192.07,0.14320
3168.93,0.15143
3145.78,0.15115
3122.64,0.13682
3099.49,0.11283
3076.35,0.10162
3053.2,0.09965
3030.06,0.13136
3006.91,0.09392
2983.77,0.06397
2960.62,0.04394
2937.48,0.06540
2914.33,0.06260
2891.19,0.07060
2868.04,0.07936
2844.9,0.10348
2821.75,0.14668
2798.61,0.16478
2775.46,0.19225
2752.32,0.20110
2729.17,0.21720
2706.03,0.23988
2682.88,0.24969
2659.74,0.25649
2636.59,0.24861
2613.45,0.24795
2590.3,0.23889
2567.16,0.23990
2544.02,0.24051
2520.87,0.24931
2497.73,0.26315
2474.58,0.28468
2451.44,0.29872
2428.29,0.27987
2405.15,0.25225
2382,0.24397
2358.86,0.27086
2335.71,0.29399
2312.57,0.30412
2289.42,0.26952
2266.28,0.26679
2243.13,0.21183
2219.99,0.29220
2196.84,0.30669
2173.7,0.29501
2150.55,0.25554
2127.41,0.23600
2104.26,0.22634
2081.12,0.24591
2057.97,0.28838
2034.83,0.30346
2011.68,0.27707
1988.54,0.23326
1965.39,0.18244
1942.25,0.19163
1919.1,0.24400
1895.96,0.26703
1872.81,0.26514
1849.67,0.20928
1826.52,0.15012
1803.38,0.13755
1780.23,0.10957
1757.09,0.05776
1733.94,0.03404
1710.8,0.04340
1687.65,0.05114
1664.51,0.06842
1641.36,0.09238
1618.22,0.09000
1595.07,0.10759
1571.93,0.07350
1548.78,0.09708
1525.64,0.08616
1502.49,0.05105
1479.35,0.05988
1456.2,0.03347
1433.06,0.04770
1409.91,0.02946
1386.77,0.03941
1363.62,0.03675
1340.48,0.03336
1317.33,0.02932
1294.19,0.02700
1271.04,0.04167
1247.9,0.04585
1224.75,0.04746
1201.61,0.06324
1178.46,0.05123
1155.32,0.04485
1132.17,0.03745
1109.03,0.04177
1085.88,0.04691
1062.74,0.07703
1039.59,0.05755
1016.45,0.05193
993.304,0.12360
970.159,0.08311
947.014,0.14847
923.869,0.15321
900.724,0.08978
877.579,0.06311
854.434,0.08255
831.289,0.11244
808.144,0.11863
784.999,0.11936
761.854,0.13670
738.709,0.03981
715.565,0.08248
692.42,0.14530
669.275,0.15784
646.13,0.17952
622.985,0.17406
599.84,0.18196

File: Cotton_Batting_IS_S_220912_R8.dpt
7497.03,0.57986
7473.89,0.57237
7450.74,0.57266
7427.6,0.57504
7404.45,0.57326
7381.31,0.57208
7358.16,0.56498
7335.02,0.55870
7311.87,0.56688
7288.73,0.55875
7265.58,0.56447
7242.44,0.55958
7219.29,0.55926
7196.15,0.55558
7173,0.56368
7149.86,0.56297
7126.71,0.55967
7103.57,0.55416
7080.42,0.55058
7057.28,0.55787
7034.13,0.55159
7010.99,0.55294
6987.84,0.55176
6964.7,0.56261
6941.55,0.55805
6918.41,0.56600
6895.26,0.55676
6872.12,0.56554
6848.97,0.55974
6825.83,0.56681
6802.68,0.56251
6779.54,0.56317
6756.39,0.56520
6733.25,0.56111
6710.1,0.55881
6686.96,0.55954
6663.82,0.55700
6640.67,0.55424
6617.53,0.56055
6594.38,0.55890
6571.24,0.55687
6548.09,0.55488
6524.95,0.55231
6501.8,0.55482
6478.66,0.55504
6455.51,0.55726
6432.37,0.56248
6409.22,0.56355
6386.08,0.56115
6362.93,0.56177
6339.79,0.55844
6316.64,0.55866
6293.5,0.55992
6270.35,0.56262
6247.21,0.56219
6224.06,0.56135
6200.92,0.55385
6177.77,0.55415
6154.63,0.55401
6131.48,0.54930
6108.34,0.54055
6085.19,0.51669
6062.05,0.48956
6038.9,0.46406
6015.76,0.44457
5992.61,0.47396
5969.47,0.48814
5946.32,0.49617
5923.18,0.50393
5900.03,0.50880
5876.89,0.49414
5853.74,0.48348
5830.6,0.47817
5807.45,0.47421
5784.31,0.47508
5761.16,0.48369
5738.02,0.49411
5714.87,0.49545
5691.73,0.49934
5668.58,0.50403
5645.44,0.51404
5622.29,0.52150
5599.15,0.52523
5576,0.52182
5552.86,0.52100
5529.71,0.52365
5506.57,0.52606
5483.42,0.52558
5460.28,0.52672
5437.13,0.53330
5413.99,0.53487
5390.84,0.53929
5367.7,0.53963
5344.55,0.53793
5321.41,0.54158
5298.26,0.53917
5275.12,0.53408
5251.97,0.52866
5228.83,0.52590
5205.68,0.52700
5182.54,0.52488
5159.39,0.52210
5136.25,0.51700
5113.1,0.51483
5089.96,0.52537
5066.81,0.52978
5043.67,0.53064
5020.52,0.52757
4997.38,0.52307
4974.23,0.51438
4951.09,0.50980
4927.94,0.50397
4904.8,0.48962
4881.65,0.46683
4858.51,0.47091
4835.36,0.48868
4812.22,0.48607
4789.07,0.48275
4765.93,0.48565
4742.78,0.46799
4719.64,0.43081
4696.49,0.40116
4673.35,0.42106
4650.2,0.43124
4627.06,0.41242
4603.92,0.43978
4580.77,0.41697
4557.63,0.44483
4534.48,0.44660
4511.34,0.43855
4488.19,0.40194
4465.05,0.36450
4441.9,0.32558
4418.76,0.31518
4395.61,0.31461
4372.47,0.30943
4349.32,0.30013
4326.18,0.30269
4303.03,0.30421
4279.89,0.29332
4256.74,0.29034
4233.6,0.29681
4210.45,0.30524
4187.31,0.30690
4164.16,0.31366
4141.02,0.32445
4117.87,0.31291
4094.73,0.26736
4071.58,0.29811
4048.44,0.31945
4025.29,0.32838
4002.15,0.32893
3979,0.34200
3955.86,0.36155
3932.71,0.37148
3909.57,0.37914
3886.42,0.39234
3863.28,0.40118
3840.13,0.40302
3816.99,0.40221
3793.84,0.40588
3770.7,0.40555
3747.55,0.41104
3724.41,0.41351
3701.26,0.39911
3678.12,0.35773
3654.97,0.34094
3631.83,0.30380
3608.68,0.27658
3585.54,0.24369
3562.39,0.20525
3539.25,0.18840
3516.1,0.18741
3492.96,0.18741
3469.81,0.17595
3446.67,0.13713
3423.52,0.12469
3400.38,0.15520
3377.23,0.14649
3354.09,0.12906
3330.94,0.11813
3307.8,0.12114
3284.65,0.12413
3261.51,0.12802
3238.36,0.13295
3215.22,0.13884
3192.07,0.14312
3168.93,0.15131
3145.78,0.15275
3122.64,0.13680
3099.49,0.11214
3076.35,0.10184
3053.2,0.09997
3030.06,0.13174
3006.91,0.09393
2983.77,0.06378
2960.62,0.04390
2937.48,0.06555
2914.33,0.06233
2891.19,0.07083
2868.04,0.07933
2844.9,0.10312
2821.75,0.14673
2798.61,0.16569
2775.46,0.19238
2752.32,0.20158
2729.17,0.21791
2706.03,0.24013
2682.88,0.25026
2659.74,0.25765
2636.59,0.24894
2613.45,0.24817
2590.3,0.23911
2567.16,0.24035
2544.02,0.24129
2520.87,0.25044
2497.73,0.26387
2474.58,0.28602
2451.44,0.29942
2428.29,0.28003
2405.15,0.25290
2382,0.24390
2358.86,0.27178
2335.71,0.29519
2312.57,0.30501
2289.42,0.26935
2266.28,0.26777
2243.13,0.21237
2219.99,0.29326
2196.84,0.30783
2173.7,0.29549
2150.55,0.25642
2127.41,0.23628
2104.26,0.22685
2081.12,0.24642
2057.97,0.28891
2034.83,0.30438
2011.68,0.27787
1988.54,0.23374
1965.39,0.18275
1942.25,0.19215
1919.1,0.24441
1895.96,0.26803
1872.81,0.26578
1849.67,0.20942
1826.52,0.15055
1803.38,0.13813
1780.23,0.10979
1757.09,0.05787
1733.94,0.03408
1710.8,0.04373
1687.65,0.05059
1664.51,0.06834
1641.36,0.09268
1618.22,0.09048
1595.07,0.10782
1571.93,0.07369
1548.78,0.09716
1525.64,0.08604
1502.49,0.05107
1479.35,0.05996
1456.2,0.03390
1433.06,0.04776
1409.91,0.02962
1386.77,0.03922
1363.62,0.03604
1340.48,0.03351
1317.33,0.02952
1294.19,0.02709
1271.04,0.04145
1247.9,0.04549
1224.75,0.04721
1201.61,0.06263
1178.46,0.05166
1155.32,0.04465
1132.17,0.03740
1109.03,0.04120
1085.88,0.04634
1062.74,0.07719
1039.59,0.05692
1016.45,0.05165
993.304,0.12354
970.159,0.08246
947.014,0.14880
923.869,0.15319
900.724,0.08967
877.579,0.06291
854.434,0.08336
831.289,0.11295
808.144,0.11772
784.999,0.11964
761.854,0.13642
738.709,0.03961
715.565,0.08281
692.42,0.14495
669.275,0.15928
646.13,0.17934
622.985,0.17418
599.84,0.18176

File: Cotton_Batting_IS_T_220912_R3.dpt
7497.03,0.03144
7473.89,0.01587
7450.74,0.02927
7427.6,0.02089
7404.45,0.01826
7381.31,0.02030
7358.16,0.01713
7335.02,0.02014
7311.87,0.02942
7288.73,0.01973
7265.58,0.03386
7242.44,0.03517
7219.29,0.02656
7196.15,0.02307
7173,0.02315
7149.86,0.02632
7126.71,0.02886
7103.57,0.02783
7080.42,0.02768
7057.28,0.01310
7034.13,0.02526
7010.99,0.01993
6987.84,0.01990
6964.7,0.02704
6941.55,0.02013
6918.41,0.02158
6895.26,0.02952
6872.12,0.02423
6848.97,0.02163
6825.83,0.01904
6802.68,0.02311
6779.54,0.02041
6756.39,0.02434
6733.25,0.02101
6710.1,0.02197
6686.96,0.02242
6663.82,0.02515
6640.67,0.01896
6617.53,0.02450
6594.38,0.02081
6571.24,0.02126
6548.09,0.02322
6524.95,0.02502
6501.8,0.01900
6478.66,0.02247
6455.51,0.02622
6432.37,0.02141
6409.22,0.02184
6386.08,0.02659
6362.93,0.02465
6339.79,0.02154
6316.64,0.02210
6293.5,0.02438
6270.35,0.02243
6247.21,0.02195
6224.06,0.02453
6200.92,0.02051
6177.77,0.02281
6154.63,0.01992
6131.48,0.01894
6108.34,0.02235
6085.19,0.01984
6062.05,0.01943
6038.9,0.02372
6015.76,0.02518
5992.61,0.02023
5969.47,0.02042
5946.32,0.01890
5923.18,0.02506
5900.03,0.02410
5876.89,0.02047
5853.74,0.02220
5830.6,0.02139
5807.45,0.02118
5784.31,0.02087
5761.16,0.02188
5738.02,0.02204
5714.87,0.02208
5691.73,0.02310
5668.58,0.02440
5645.44,0.02334
5622.29,0.02180
5599.15,0.02357
5576,0.02275
5552.86,0.02273
5529.71,0.02121
5506.57,0.02127
5483.42,0.02256
5460.28,0.02040
5437.13,0.02291
5413.99,0.02275
5390.84,0.02437
5367.7,0.02129
5344.55,0.02118
5321.41,0.02327
5298.26,0.02234
5275.12,0.02096
5251.97,0.02276
5228.83,0.02149
5205.68,0.02288
5182.54,0.02290
5159.39,0.02265
5136.25,0.02212
5113.1,0.02287
5089.96,0.02149
5066.81,0.02323
5043.67,0.02185
5020.52,0.02296
4997.38,0.02163
4974.23,0.02298
4951.09,0.02311
4927.94,0.02177
4904.8,0.02171
4881.65,0.02192
4858.51,0.02290
4835.36,0.02184
4812.22,0.02236
4789.07,0.02299
4765.93,0.02256
4742.78,0.02179
4719.64,0.02378
4696.49,0.02237
4673.35,0.02376
4650.2,0.02259
4627.06,0.02252
4603.92,0.02169
4580.77,0.02240
4557.63,0.02307
4534.48,0.02260
4511.34,0.02231
4488.19,0.02294
4465.05,0.02233
4441.9,0.02200
4418.76,0.02291
4395.61,0.02284
4372.47,0.02260
4349.32,0.02290
4326.18,0.02218
4303.03,0.02226
4279.89,0.02243
4256.74,0.02215
4233.6,0.02292
4210.45,0.02267
4187.31,0.02300
4164.16,0.02308
4141.02,0.02232
4117.87,0.02325
4094.73,0.02268
4071.58,0.02223
4048.44,0.02246
4025.29,0.02262
4002.15,0.02236
3979,0.02236
3955.86,0.02287
3932.71,0.02249
3909.57,0.02271
3886.42,0.02279
3863.28,0.02251
3840.13,0.02285
3816.99,0.02300
3793.84,0.02275
3770.7,0.02247
3747.55,0.02285
3724.41,0.02299
3701.26,0.02243
3678.12,0.02267
3654.97,0.02163
3631.83,0.02192
3608.68,0.02167
3585.54,0.02166
3562.39,0.02148
3539.25,0.02146
3516.1,0.02167
3492.96,0.02108
3469.81,0.02095
3446.67,0.02098
3423.52,0.02094
3400.38,0.02091
3377.23,0.02063
3354.09,0.02027
3330.94,0.02037
3307.8,0.02052
3284.65,0.01988
3261.51,0.01994
3238.36,0.02142
3215.22,0.02102
3192.07,0.02070
3168.93,0.02147
3145.78,0.02077
3122.64,0.02122
3099.49,0.02122
3076.35,0.02086
3053.2,0.02048
3030.06,0.02057
3006.91,0.02024
2983.77,0.02025
2960.62,0.01978
2937.48,0.01968
2914.33,0.02050
2891.19,0.02061
2868.04,0.02060
2844.9,0.02164
2821.75,0.02152
2798.61,0.02171
2775.46,0.02101
2752.32,0.02144
2729.17,0.02135
2706.03,0.02143
2682.88,0.02119
2659.74,0.02159
2636.59,0.02174
2613.45,0.02115
2590.3,0.02104
2567.16,0.02123
2544.02,0.02118
2520.87,0.02139
2497.73,0.02131
2474.58,0.02153
2451.44,0.02128
2428.29,0.02122
2405.15,0.02126
2382,0.02108
2358.86,0.02123
2335.71,0.02115
2312.57,0.02129
2289.42,0.02144
2266.28,0.02130
2243.13,0.02096
2219.99,0.02132
2196.84,0.02139
2173.7,0.02114
2150.55,0.02117
2127.41,0.02086
2104.26,0.02116
2081.12,0.02093
2057.97,0.02140
2034.83,0.02087
2011.68,0.02081
1988.54,0.02057
1965.39,0.02086
1942.25,0.02051
1919.1,0.02095
1895.96,0.02046
1872.81,0.02061
1849.67,0.02032
1826.52,0.02000
1803.38,0.02018
1780.23,0.01869
1757.09,0.01751
1733.94,0.02012
1710.8,0.02092
1687.65,0.01979
1664.51,0.01865
1641.36,0.01865
1618.22,0.01907
1595.07,0.01861
1571.93,0.01855
1548.78,0.01827
1525.64,0.01921
1502.49,0.01919
1479.35,0.01893
1456.2,0.01866
1433.06,0.01842
1409.91,0.01816
1386.77,0.01832
1363.62,0.01855
1340.48,0.01761
1317.33,0.01734
1294.19,0.01771
1271.04,0.01963
1247.9,0.01983
1224.75,0.01931
1201.61,0.01886
1178.46,0.01790
1155.32,0.01796
1132.17,0.01845
1109.03,0.01903
1085.88,0.01857
1062.74,0.02006
1039.59,0.02007
1016.45,0.01985
993.304,0.02134
970.159,0.02021
947.014,0.01928
923.869,0.01988
900.724,0.01948
877.579,0.01976
854.434,0.01854
831.289,0.01921
808.144,0.01853
784.999,0.01896
761.854,0.01901
738.709,0.01770
715.565,0.01796
692.42,0.01839
669.275,0.01843
646.13,0.01718
622.985,0.01667
599.84,0.01396