Folder: fsri_materials_database/01_Data/Window_Screen/FTIR/IS (part 2)

File: Window_Screen_IS_S_220829_R6.dpt
7497.03,0.04064
7473.89,0.04321
7450.74,0.03865
7427.6,0.03757
7404.45,0.03876
7381.31,0.04015
7358.16,0.03967
7335.02,0.04131
7311.87,0.04549
7288.73,0.03604
7265.58,0.04065
7242.44,0.03877
7219.29,0.03829
7196.15,0.03606
7173,0.03664
7149.86,0.04289
7126.71,0.03821
7103.57,0.03609
7080.42,0.04070
7057.28,0.03513
7034.13,0.03578
7010.99,0.04051
6987.84,0.03930
6964.7,0.04170
6941.55,0.03666
6918.41,0.04181
6895.26,0.03863
6872.12,0.03389
6848.97,0.04143
6825.83,0.03402
6802.68,0.03829
6779.54,0.03412
6756.39,0.03851
6733.25,0.03850
6710.1,0.03952
6686.96,0.03904
6663.82,0.03636
6640.67,0.03554
6617.53,0.03609
6594.38,0.03887
6571.24,0.03433
6548.09,0.03468
6524.95,0.03738
6501.8,0.03671
6478.66,0.03802
6455.51,0.04031
6432.37,0.03635
6409.22,0.03614
6386.08,0.03636
6362.93,0.03524
6339.79,0.03430
6316.64,0.03486
6293.5,0.03872
6270.35,0.04023
6247.21,0.03665
6224.06,0.03909
6200.92,0.03317
6177.77,0.03499
6154.63,0.03433
6131.48,0.03471
6108.34,0.03892
6085.19,0.03576
6062.05,0.03740
6038.9,0.03784
6015.76,0.03482
5992.61,0.03711
5969.47,0.03535
5946.32,0.03544
5923.18,0.03869
5900.03,0.03679
5876.89,0.03600
5853.74,0.03691
5830.6,0.03801
5807.45,0.03880
5784.31,0.03479
5761.16,0.03765
5738.02,0.03686
5714.87,0.03996
5691.73,0.03707
5668.58,0.03801
5645.44,0.03949
5622.29,0.03596
5599.15,0.03705
5576,0.03876
5552.86,0.03756
5529.71,0.03730
5506.57,0.03824
5483.42,0.03776
5460.28,0.03832
5437.13,0.03884
5413.99,0.03941
5390.84,0.03773
5367.7,0.03922
5344.55,0.03894
5321.41,0.03998
5298.26,0.03842
5275.12,0.03782
5251.97,0.03723
5228.83,0.03864
5205.68,0.03789
5182.54,0.03972
5159.39,0.03899
5136.25,0.03814
5113.1,0.03819
5089.96,0.04060
5066.81,0.03891
5043.67,0.03910
5020.52,0.03897
4997.38,0.04017
4974.23,0.03977
4951.09,0.03880
4927.94,0.04028
4904.8,0.03973
4881.65,0.03970
4858.51,0.03950
4835.36,0.04052
4812.22,0.03946
4789.07,0.04034
4765.93,0.04072
4742.78,0.04108
4719.64,0.04094
4696.49,0.04063
4673.35,0.03974
4650.2,0.03985
4627.06,0.03974
4603.92,0.04047
4580.77,0.04014
4557.63,0.04168
4534.48,0.04028
4511.34,0.04088
4488.19,0.04041
4465.05,0.04080
4441.9,0.04101
4418.76,0.04046
4395.61,0.04008
4372.47,0.03871
4349.32,0.03883
4326.18,0.03844
4303.03,0.03921
4279.89,0.03953
4256.74,0.04060
4233.6,0.03927
4210.45,0.03992
4187.31,0.04043
4164.16,0.03919
4141.02,0.04032
4117.87,0.04042
4094.73,0.04059
4071.58,0.04044
4048.44,0.04072
4025.29,0.04150
4002.15,0.04070
3979,0.04219
3955.86,0.04136
3932.71,0.04181
3909.57,0.04207
3886.42,0.04194
3863.28,0.04164
3840.13,0.04261
3816.99,0.04237
3793.84,0.04229
3770.7,0.04267
3747.55,0.04315
3724.41,0.04262
3701.26,0.04229
3678.12,0.04235
3654.97,0.04289
3631.83,0.04228
3608.68,0.04120
3585.54,0.04065
3562.39,0.04133
3539.25,0.04081
3516.1,0.04006
3492.96,0.03986
3469.81,0.03974
3446.67,0.03915
3423.52,0.03881
3400.38,0.03840
3377.23,0.03884
3354.09,0.03883
3330.94,0.03920
3307.8,0.03853
3284.65,0.03869
3261.51,0.03933
3238.36,0.03936
3215.22,0.03942
3192.07,0.03943
3168.93,0.03967
3145.78,0.03964
3122.64,0.03980
3099.49,0.03888
3076.35,0.03811
3053.2,0.03787
3030.06,0.03702
3006.91,0.03461
2983.77,0.02941
2960.62,0.02700
2937.48,0.02771
2914.33,0.02918
2891.19,0.03041
2868.04,0.02936
2844.9,0.03123
2821.75,0.03537
2798.61,0.03803
2775.46,0.03977
2752.32,0.03985
2729.17,0.04007
2706.03,0.04052
2682.88,0.04082
2659.74,0.04170
2636.59,0.04188
2613.45,0.04190
2590.3,0.04215
2567.16,0.04221
2544.02,0.04241
2520.87,0.04279
2497.73,0.04351
2474.58,0.04402
2451.44,0.04422
2428.29,0.04348
2405.15,0.04307
2382,0.04309
2358.86,0.04372
2335.71,0.04450
2312.57,0.04454
2289.42,0.04461
2266.28,0.04495
2243.13,0.04491
2219.99,0.04503
2196.84,0.04492
2173.7,0.04526
2150.55,0.04535
2127.41,0.04500
2104.26,0.04450
2081.12,0.04471
2057.97,0.04479
2034.83,0.04487
2011.68,0.04479
1988.54,0.04456
1965.39,0.04370
1942.25,0.04226
1919.1,0.04343
1895.96,0.04371
1872.81,0.04358
1849.67,0.04258
1826.52,0.04046
1803.38,0.04049
1780.23,0.03826
1757.09,0.03414
1733.94,0.02655
1710.8,0.02955
1687.65,0.03333
1664.51,0.03472
1641.36,0.03688
1618.22,0.03674
1595.07,0.03620
1571.93,0.03394
1548.78,0.03490
1525.64,0.03473
1502.49,0.03208
1479.35,0.03157
1456.2,0.02838
1433.06,0.02788
1409.91,0.02844
1386.77,0.02785
1363.62,0.02911
1340.48,0.02717
1317.33,0.02626
1294.19,0.02533
1271.04,0.02837
1247.9,0.03075
1224.75,0.03147
1201.61,0.03023
1178.46,0.03081
1155.32,0.02988
1132.17,0.02704
1109.03,0.02752
1085.88,0.02905
1062.74,0.03156
1039.59,0.03132
1016.45,0.03032
993.304,0.03120
970.159,0.02976
947.014,0.03054
923.869,0.03096
900.724,0.03295
877.579,0.03031
854.434,0.03235
831.289,0.03281
808.144,0.03488
784.999,0.03292
761.854,0.03194
738.709,0.02741
715.565,0.03186
692.42,0.03002
669.275,0.03078
646.13,0.02644
622.985,0.02647
599.84,0.03082

File: Window_Screen_IS_S_220829_R8.dpt
7497.03,0.03665
7473.89,0.03600
7450.74,0.03841
7427.6,0.03874
7404.45,0.03976
7381.31,0.04520
7358.16,0.03723
7335.02,0.03744
7311.87,0.03799
7288.73,0.03388
7265.58,0.04216
7242.44,0.04398
7219.29,0.03559
7196.15,0.03691
7173,0.03883
7149.86,0.04452
7126.71,0.04062
7103.57,0.03877
7080.42,0.04439
7057.28,0.03801
7034.13,0.04081
7010.99,0.03349
6987.84,0.03871
6964.7,0.04235
6941.55,0.03873
6918.41,0.03736
6895.26,0.03827
6872.12,0.04113
6848.97,0.03773
6825.83,0.03782
6802.68,0.04021
6779.54,0.03281
6756.39,0.03842
6733.25,0.03277
6710.1,0.04376
6686.96,0.03634
6663.82,0.04255
6640.67,0.03672
6617.53,0.03751
6594.38,0.03753
6571.24,0.03478
6548.09,0.04102
6524.95,0.03654
6501.8,0.03692
6478.66,0.03498
6455.51,0.03710
6432.37,0.03396
6409.22,0.03502
6386.08,0.03781
6362.93,0.03323
6339.79,0.03700
6316.64,0.03585
6293.5,0.04262
6270.35,0.03473
6247.21,0.04034
6224.06,0.03638
6200.92,0.03767
6177.77,0.03863
6154.63,0.03595
6131.48,0.03775
6108.34,0.03765
6085.19,0.03688
6062.05,0.03788
6038.9,0.03555
6015.76,0.03661
5992.61,0.03657
5969.47,0.03686
5946.32,0.03651
5923.18,0.03796
5900.03,0.03573
5876.89,0.03572
5853.74,0.03791
5830.6,0.03658
5807.45,0.03622
5784.31,0.03599
5761.16,0.03835
5738.02,0.03582
5714.87,0.03868
5691.73,0.03581
5668.58,0.03825
5645.44,0.03818
5622.29,0.03964
5599.15,0.03733
5576,0.03767
5552.86,0.03754
5529.71,0.03806
5506.57,0.03900
5483.42,0.03797
5460.28,0.03799
5437.13,0.03875
5413.99,0.03824
5390.84,0.03727
5367.7,0.03934
5344.55,0.03710
5321.41,0.03683
5298.26,0.03882
5275.12,0.03837
5251.97,0.03938
5228.83,0.03910
5205.68,0.03876
5182.54,0.03827
5159.39,0.03986
5136.25,0.03853
5113.1,0.03927
5089.96,0.04065
5066.81,0.03874
5043.67,0.03968
5020.52,0.03796
4997.38,0.04005
4974.23,0.04020
4951.09,0.03947
4927.94,0.03967
4904.8,0.03965
4881.65,0.03992
4858.51,0.03996
4835.36,0.03999
4812.22,0.04018
4789.07,0.03987
4765.93,0.04012
4742.78,0.03962
4719.64,0.03949
4696.49,0.04028
4673.35,0.03970
4650.2,0.04042
4627.06,0.03991
4603.92,0.04018
4580.77,0.03987
4557.63,0.04021
4534.48,0.04071
4511.34,0.04058
4488.19,0.04087
4465.05,0.04017
4441.9,0.04048
4418.76,0.03937
4395.61,0.03932
4372.47,0.03858
4349.32,0.03841
4326.18,0.03837
4303.03,0.03824
4279.89,0.03876
4256.74,0.03846
4233.6,0.03953
4210.45,0.03931
4187.31,0.03896
4164.16,0.03910
4141.02,0.03965
4117.87,0.04034
4094.73,0.03993
4071.58,0.03982
4048.44,0.04058
4025.29,0.04016
4002.15,0.04053
3979,0.04080
3955.86,0.04123
3932.71,0.04148
3909.57,0.04108
3886.42,0.04115
3863.28,0.04153
3840.13,0.04201
3816.99,0.04164
3793.84,0.04204
3770.7,0.04176
3747.55,0.04156
3724.41,0.04239
3701.26,0.04185
3678.12,0.04180
3654.97,0.04159
3631.83,0.04129
3608.68,0.04140
3585.54,0.04106
3562.39,0.04017
3539.25,0.04007
3516.1,0.04002
3492.96,0.03993
3469.81,0.03946
3446.67,0.03814
3423.52,0.03735
3400.38,0.03802
3377.23,0.03828
3354.09,0.03809
3330.94,0.03870
3307.8,0.03854
3284.65,0.03882
3261.51,0.03816
3238.36,0.03805
3215.22,0.03877
3192.07,0.03814
3168.93,0.03945
3145.78,0.03894
3122.64,0.03925
3099.49,0.03875
3076.35,0.03754
3053.2,0.03650
3030.06,0.03713
3006.91,0.03380
2983.77,0.02887
2960.62,0.02648
2937.48,0.02693
2914.33,0.02853
2891.19,0.02981
2868.04,0.02902
2844.9,0.03109
2821.75,0.03437
2798.61,0.03746
2775.46,0.03927
2752.32,0.03904
2729.17,0.03899
2706.03,0.03984
2682.88,0.04023
2659.74,0.04088
2636.59,0.04074
2613.45,0.04141
2590.3,0.04095
2567.16,0.04147
2544.02,0.04209
2520.87,0.04247
2497.73,0.04267
2474.58,0.04314
2451.44,0.04324
2428.29,0.04284
2405.15,0.04255
2382,0.04202
2358.86,0.04289
2335.71,0.04402
2312.57,0.04405
2289.42,0.04383
2266.28,0.04396
2243.13,0.04409
2219.99,0.04406
2196.84,0.04422
2173.7,0.04453
2150.55,0.04463
2127.41,0.04450
2104.26,0.04412
2081.12,0.04388
2057.97,0.04410
2034.83,0.04391
2011.68,0.04385
1988.54,0.04356
1965.39,0.04299
1942.25,0.04189
1919.1,0.04287
1895.96,0.04300
1872.81,0.04259
1849.67,0.04206
1826.52,0.04009
1803.38,0.03992
1780.23,0.03787
1757.09,0.03345
1733.94,0.02654
1710.8,0.02902
1687.65,0.03259
1664.51,0.03429
1641.36,0.03673
1618.22,0.03605
1595.07,0.03563
1571.93,0.03354
1548.78,0.03448
1525.64,0.03475
1502.49,0.03196
1479.35,0.03082
1456.2,0.02778
1433.06,0.02712
1409.91,0.02769
1386.77,0.02790
1363.62,0.02817
1340.48,0.02673
1317.33,0.02587
1294.19,0.02495
1271.04,0.02806
1247.9,0.03028
1224.75,0.03122
1201.61,0.02985
1178.46,0.03045
1155.32,0.02902
1132.17,0.02624
1109.03,0.02769
1085.88,0.02940
1062.74,0.03178
1039.59,0.03195
1016.45,0.03011
993.304,0.03072
970.159,0.02944
947.014,0.03012
923.869,0.03023
900.724,0.03199
877.579,0.03006
854.434,0.03237
831.289,0.03144
808.144,0.03441
784.999,0.03295
761.854,0.03231
738.709,0.02802
715.565,0.03155
692.42,0.03017
669.275,0.03076
646.13,0.02601
622.985,0.02656
599.84,0.02954

File: Window_Screen_IS_T_220829_R3.dpt
7497.03,0.02641
7473.89,0.02208
7450.74,0.02337
7427.6,0.01540
7404.45,0.02200
7381.31,0.02448
7358.16,0.02522
7335.02,0.02426
7311.87,0.03162
7288.73,0.02558
7265.58,0.02004
7242.44,0.02547
7219.29,0.03247
7196.15,0.02705
7173,0.02063
7149.86,0.02364
7126.71,0.02277
7103.57,0.02334
7080.42,0.02350
7057.28,0.02418
7034.13,0.02401
7010.99,0.02526
6987.84,0.02385
6964.7,0.01821
6941.55,0.02529
6918.41,0.02131
6895.26,0.02619
6872.12,0.02380
6848.97,0.02129
6825.83,0.02332
6802.68,0.02040
6779.54,0.02301
6756.39,0.02349
6733.25,0.02237
6710.1,0.01973
6686.96,0.02202
6663.82,0.02149
6640.67,0.02531
6617.53,0.02257
6594.38,0.02485
6571.24,0.02171
6548.09,0.02267
6524.95,0.02179
6501.8,0.02634
6478.66,0.02087
6455.51,0.02393
6432.37,0.02203
6409.22,0.02241
6386.08,0.02344
6362.93,0.02244
6339.79,0.02410
6316.64,0.02653
6293.5,0.02112
6270.35,0.01813
6247.21,0.02193
6224.06,0.01999
6200.92,0.02240
6177.77,0.02057
6154.63,0.02235
6131.48,0.02053
6108.34,0.02319
6085.19,0.02289
6062.05,0.02183
6038.9,0.02132
6015.76,0.02353
5992.61,0.02242
5969.47,0.01923
5946.32,0.02081
5923.18,0.01790
5900.03,0.02564
5876.89,0.02357
5853.74,0.02040
5830.6,0.02158
5807.45,0.02180
5784.31,0.02294
5761.16,0.02212
5738.02,0.02167
5714.87,0.02037
5691.73,0.02294
5668.58,0.02177
5645.44,0.02365
5622.29,0.02226
5599.15,0.02250
5576,0.02040
5552.86,0.02040
5529.71,0.02210
5506.57,0.02304
5483.42,0.02207
5460.28,0.02037
5437.13,0.02105
5413.99,0.02356
5390.84,0.02153
5367.7,0.02276
5344.55,0.02273
5321.41,0.02289
5298.26,0.02248
5275.12,0.02333
5251.97,0.02187
5228.83,0.02227
5205.68,0.02247
5182.54,0.02263
5159.39,0.02144
5136.25,0.02231
5113.1,0.02251
5089.96,0.02273
5066.81,0.02270
5043.67,0.02184
5020.52,0.02293
4997.38,0.02137
4974.23,0.02179
4951.09,0.02147
4927.94,0.02239
4904.8,0.02148
4881.65,0.02334
4858.51,0.02200
4835.36,0.02265
4812.22,0.02212
4789.07,0.02221
4765.93,0.02238
4742.78,0.02243
4719.64,0.02246
4696.49,0.02350
4673.35,0.02329
4650.2,0.02189
4627.06,0.02257
4603.92,0.02273
4580.77,0.02247
4557.63,0.02237
4534.48,0.02227
4511.34,0.02218
4488.19,0.02165
4465.05,0.02276
4441.9,0.02181
4418.76,0.02261
4395.61,0.02173
4372.47,0.02239
4349.32,0.02128
4326.18,0.02269
4303.03,0.02285
4279.89,0.02233
4256.74,0.02209
4233.6,0.02315
4210.45,0.02298
4187.31,0.02194
4164.16,0.02311
4141.02,0.02296
4117.87,0.02297
4094.73,0.02223
4071.58,0.02214
4048.44,0.02255
4025.29,0.02211
4002.15,0.02261
3979,0.02310
3955.86,0.02251
3932.71,0.02303
3909.57,0.02236
3886.42,0.02272
3863.28,0.02259
3840.13,0.02287
3816.99,0.02261
3793.84,0.02233
3770.7,0.02263
3747.55,0.02256
3724.41,0.02217
3701.26,0.02236
3678.12,0.02198
3654.97,0.02185
3631.83,0.02277
3608.68,0.02162
3585.54,0.02184
3562.39,0.02139
3539.25,0.02059
3516.1,0.02147
3492.96,0.02099
3469.81,0.02059
3446.67,0.02111
3423.52,0.02088
3400.38,0.02108
3377.23,0.02022
3354.09,0.02047
3330.94,0.01963
3307.8,0.02058
3284.65,0.02146
3261.51,0.02094
3238.36,0.02098
3215.22,0.02043
3192.07,0.02068
3168.93,0.02044
3145.78,0.02092
3122.64,0.02149
3099.49,0.02087
3076.35,0.02059
3053.2,0.02069
3030.06,0.02066
3006.91,0.02079
2983.77,0.01975
2960.62,0.01951
2937.48,0.01966
2914.33,0.02035
2891.19,0.02092
2868.04,0.02045
2844.9,0.02081
2821.75,0.02103
2798.61,0.02124
2775.46,0.02125
2752.32,0.02089
2729.17,0.02141
2706.03,0.02153
2682.88,0.02096
2659.74,0.02148
2636.59,0.02110
2613.45,0.02095
2590.3,0.02135
2567.16,0.02113
2544.02,0.02099
2520.87,0.02166
2497.73,0.02106
2474.58,0.02131
2451.44,0.02137
2428.29,0.02093
2405.15,0.02098
2382,0.02089
2358.86,0.02105
2335.71,0.02094
2312.57,0.02126
2289.42,0.02096
2266.28,0.02081
2243.13,0.02077
2219.99,0.02080
2196.84,0.02088
2173.7,0.02077
2150.55,0.02104
2127.41,0.02068
2104.26,0.02079
2081.12,0.02085
2057.97,0.02088
2034.83,0.02065
2011.68,0.02091
1988.54,0.02087
1965.39,0.02053
1942.25,0.02111
1919.1,0.02026
1895.96,0.02067
1872.81,0.02042
1849.67,0.02009
1826.52,0.01985
1803.38,0.01949
1780.23,0.01908
1757.09,0.01778
1733.94,0.01964
1710.8,0.02076
1687.65,0.01938
1664.51,0.01851
1641.36,0.01851
1618.22,0.01911
1595.07,0.01906
1571.93,0.01856
1548.78,0.01793
1525.64,0.01873
1502.49,0.01861
1479.35,0.01826
1456.2,0.01911
1433.06,0.01885
1409.91,0.01846
1386.77,0.01823
1363.62,0.01842
1340.48,0.01743
1317.33,0.01713
1294.19,0.01785
1271.04,0.01965
1247.9,0.02023
1224.75,0.01955
1201.61,0.01853
1178.46,0.01813
1155.32,0.01765
1132.17,0.01847
1109.03,0.01899
1085.88,0.01919
1062.74,0.02028
1039.59,0.02007
1016.45,0.01972
993.304,0.02087
970.159,0.01988
947.014,0.02059
923.869,0.01894
900.724,0.01924
877.579,0.01892
854.434,0.01901
831.289,0.01917
808.144,0.01939
784.999,0.01800
761.854,0.01829
738.709,0.01880
715.565,0.01776
692.42,0.01754
669.275,0.01583
646.13,0.01675
622.985,0.01500
599.84,0.01470

File: Window_Screen_IS_T_220829_R6.dpt
7497.03,0.02342
7473.89,0.02202
7450.74,0.03454
7427.6,0.02476
7404.45,0.02165
7381.31,0.02736
7358.16,0.02121
7335.02,0.02662
7311.87,0.03248
7288.73,0.02736
7265.58,0.03158
7242.44,0.02850
7219.29,0.02464
7196.15,0.01978
7173,0.02728
7149.86,0.02275
7126.71,0.02330
7103.57,0.02875
7080.42,0.02843
7057.28,0.02920
7034.13,0.02740
7010.99,0.02842
6987.84,0.02723
6964.7,0.02359
6941.55,0.02451
6918.41,0.02441
6895.26,0.02005
6872.12,0.02119
6848.97,0.02417
6825.83,0.02093
6802.68,0.02293
6779.54,0.02675
6756.39,0.02663
6733.25,0.01786
6710.1,0.01821
6686.96,0.02695
6663.82,0.02447
6640.67,0.02483
6617.53,0.02303
6594.38,0.01791
6571.24,0.02459
6548.09,0.02017
6524.95,0.02518
6501.8,0.01962
6478.66,0.01845
6455.51,0.02206
6432.37,0.02028
6409.22,0.02633
6386.08,0.02240
6362.93,0.02240
6339.79,0.02075
6316.64,0.02354
6293.5,0.02268
6270.35,0.02121
6247.21,0.01958
6224.06,0.02063
6200.92,0.02369
6177.77,0.02106
6154.63,0.02125
6131.48,0.01881
6108.34,0.02212
6085.19,0.02054
6062.05,0.02250
6038.9,0.02288
6015.76,0.02053
5992.61,0.02206
5969.47,0.02182
5946.32,0.02096
5923.18,0.02170
5900.03,0.02153
5876.89,0.02117
5853.74,0.01991
5830.6,0.02451
5807.45,0.02239
5784.31,0.02039
5761.16,0.02101
5738.02,0.02369
5714.87,0.02139
5691.73,0.02268
5668.58,0.02212
5645.44,0.02336
5622.29,0.02190
5599.15,0.02219
5576,0.02168
5552.86,0.02210
5529.71,0.02171
5506.57,0.02271
5483.42,0.02276
5460.28,0.02199
5437.13,0.02242
5413.99,0.02191
5390.84,0.02217
5367.7,0.02161
5344.55,0.02232
5321.41,0.02112
5298.26,0.02261
5275.12,0.02123
5251.97,0.02259
5228.83,0.02191
5205.68,0.02223
5182.54,0.02303
5159.39,0.02181
5136.25,0.02268
5113.1,0.02196
5089.96,0.02262
5066.81,0.02225
5043.67,0.02134
5020.52,0.02159
4997.38,0.02244
4974.23,0.02185
4951.09,0.02290
4927.94,0.02227
4904.8,0.02135
4881.65,0.02201
4858.51,0.02286
4835.36,0.02195
4812.22,0.02155
4789.07,0.02230
4765.93,0.02269
4742.78,0.02187
4719.64,0.02301
4696.49,0.02302
4673.35,0.02138
4650.2,0.02178
4627.06,0.02135
4603.92,0.02169
4580.77,0.02183
4557.63,0.02218
4534.48,0.02218
4511.34,0.02220
4488.19,0.02183
4465.05,0.02210
4441.9,0.02308
4418.76,0.02213
4395.61,0.02299
4372.47,0.02207
4349.32,0.02174
4326.18,0.02216
4303.03,0.02288
4279.89,0.02246
4256.74,0.02306
4233.6,0.02211
4210.45,0.02289
4187.31,0.02214
4164.16,0.02237
4141.02,0.02223
4117.87,0.02200
4094.73,0.02264
4071.58,0.02254
4048.44,0.02167
4025.29,0.02234
4002.15,0.02158
3979,0.02182
3955.86,0.02289
3932.71,0.02273
3909.57,0.02220
3886.42,0.02240
3863.28,0.02280
3840.13,0.02300
3816.99,0.02241
3793.84,0.02225
3770.7,0.02216
3747.55,0.02282
3724.41,0.02254
3701.26,0.02169
3678.12,0.02185
3654.97,0.02160
3631.83,0.02137
3608.68,0.02201
3585.54,0.02154
3562.39,0.02119
3539.25,0.02143
3516.1,0.02096
3492.96,0.02065
3469.81,0.02092
3446.67,0.02073
3423.52,0.02083
3400.38,0.02019
3377.23,0.02026
3354.09,0.01997
3330.94,0.01972
3307.8,0.02025
3284.65,0.02014
3261.51,0.01996
3238.36,0.02144
3215.22,0.01979
3192.07,0.02067
3168.93,0.02131
3145.78,0.02087
3122.64,0.02104
3099.49,0.02087
3076.35,0.02085
3053.2,0.02047
3030.06,0.02059
3006.91,0.02035
2983.77,0.01970
2960.62,0.01927
2937.48,0.01949
2914.33,0.02034
2891.19,0.02047
2868.04,0.02030
2844.9,0.02119
2821.75,0.02136
2798.61,0.02098
2775.46,0.02098
2752.32,0.02115
2729.17,0.02065
2706.03,0.02113
2682.88,0.02139
2659.74,0.02131
2636.59,0.02111
2613.45,0.02100
2590.3,0.02117
2567.16,0.02105
2544.02,0.02132
2520.87,0.02060
2497.73,0.02084
2474.58,0.02065
2451.44,0.02104
2428.29,0.02070
2405.15,0.02095
2382,0.02142
2358.86,0.02123
2335.71,0.02111
2312.57,0.02072
2289.42,0.02077
2266.28,0.02065
2243.13,0.02054
2219.99,0.02065
2196.84,0.02088
2173.7,0.02087
2150.55,0.02074
2127.41,0.02096
2104.26,0.02074
2081.12,0.02061
2057.97,0.02042
2034.83,0.02067
2011.68,0.02079
1988.54,0.02041
1965.39,0.02078
1942.25,0.02041
1919.1,0.02011
1895.96,0.02039
1872.81,0.02056
1849.67,0.02001
1826.52,0.01999
1803.38,0.01995
1780.23,0.01865
1757.09,0.01756
1733.94,0.01989
1710.8,0.02033
1687.65,0.01960
1664.51,0.01830
1641.36,0.01814
1618.22,0.01897
1595.07,0.01875
1571.93,0.01835
1548.78,0.01837
1525.64,0.01841
1502.49,0.01830
1479.35,0.01829
1456.2,0.01869
1433.06,0.01818
1409.91,0.01805
1386.77,0.01790
1363.62,0.01798
1340.48,0.01771
1317.33,0.01678
1294.19,0.01761
1271.04,0.01928
1247.9,0.02052
1224.75,0.01965
1201.61,0.01886
1178.46,0.01798
1155.32,0.01763
1132.17,0.01816
1109.03,0.01835
1085.88,0.01846
1062.74,0.01955
1039.59,0.01946
1016.45,0.01922
993.304,0.02073
970.159,0.02054
947.014,0.02008
923.869,0.01953
900.724,0.01881
877.579,0.01893
854.434,0.01943
831.289,0.01804
808.144,0.01940
784.999,0.01852
761.854,0.01789
738.709,0.01853
715.565,0.01730
692.42,0.01734
669.275,0.01809
646.13,0.01598
622.985,0.01593
599.84,0.01585