Folder: fsri_materials_database/01_Data/Window_Screen/FTIR/IS

Note: README.md
# Materials and Products Database
### Repository of materials and products properties and fire test data to improve fire modeling and fire investigation.

This project was supported in part by Award No. 2019-DU-BX-0018, awarded by the National Institute of Justice, Office of Justice Programs, U.S. Department of Justice. The opinions, findings, and conclusions or recommendations expressed in this publication / program / exhibition are those of the author(s) and do not necessarily reflect those of the Department of Justice.

***
***

__Cite this database:__ "McKinnon, M., Weinschenk, C., Dow, N., DiDomizio, M., and Madrzykowski, D. Materials and Products Database (Version 1.0.0), Fire Safety Research Institute, UL Research Institutes. Columbia, MD 21045, 2023."

__Cite the Technical Reference Guide:__ "McKinnon, M., Weinschenk, C., and Madrzykowski, D. Materials and Products Database - Technical Reference Guide, Fire Safety Research Institute, UL Research Institutes. Columbia, MD 21045, 2023."

__Cite the User Guide:__ "McKinnon, M., and Weinschenk, C. Materials and Products Database - User Guide, Fire Safety Research Institute, UL Research Institutes. Columbia, MD 21045, 2023."

***
***

## Database Structure

## 01_Data/
Raw data generated from each apparatus are included here in plain-text format. The data is organized first by material, next by the short name of test apparatus used, and where applicable additional filtering by test settings.

### Test Apparatus and Data File Structure
- __Cone Calorimeter__ (Cone)
    + Data file structure includes the material, the short name for the apparatus, heat flux setting and scan/scalar, date of test, and replicate number. Scan is for the raw output data and scalar is for the initial conditions and high-level test parameters. 
        * Example: __MDF_Cone_HF25scalar_210323_R1__ stands for the first replicate of scalar data generated from a medium density fiber board test in cone calorimeter exposed to 25 kW/m<sup>2</sup> on March 23, 2021.
    + A _Cone_Notes.csv_ is generated for each material from the __plot_Cone_data.py__ script. For materials whose experiments deviated from typical behavior relevant pictures are included in the respective material directory.
- __Fourier Transform Infrared Spectrometer__ (FTIR)
    + The FTIR directory contains subdirectories for the Attenuated Total Reflectance method (ATR) and the Integrating Sphere (IS)
    + Data file structure for the ATR experiment files includes the material, the abbreviated name for the apparatus, date of test, and replicate number. 
        * Example: __MDF_ATR_210323_R5__ stands for the fifth replicate of data collected with the ATR accessory conducted on June 8, 2021.
    + Data file structure for the IS experiment files includes the material, the abbreviated name for the apparatus, the measurand, whether the test is a sample measurement or standard reference, date of test, and replicate number.
        * Example: __OSB_IS_REFLECT_MEAS_2

File: Window_Screen_IS_S_220829_R1.dpt
7497.03,0.03987
7473.89,0.03287
7450.74,0.03860
7427.6,0.03418
7404.45,0.04014
7381.31,0.03937
7358.16,0.03376
7335.02,0.03793
7311.87,0.03594
7288.73,0.03944
7265.58,0.03177
7242.44,0.04337
7219.29,0.04372
7196.15,0.03345
7173,0.03438
7149.86,0.04344
7126.71,0.04160
7103.57,0.04081
7080.42,0.04087
7057.28,0.04022
7034.13,0.03535
7010.99,0.03757
6987.84,0.03946
6964.7,0.03494
6941.55,0.03173
6918.41,0.03830
6895.26,0.03905
6872.12,0.03505
6848.97,0.03301
6825.83,0.03165
6802.68,0.03824
6779.54,0.03710
6756.39,0.03464
6733.25,0.03990
6710.1,0.03653
6686.96,0.03538
6663.82,0.03691
6640.67,0.03763
6617.53,0.03898
6594.38,0.03834
6571.24,0.03415
6548.09,0.03912
6524.95,0.03408
6501.8,0.03761
6478.66,0.03800
6455.51,0.03326
6432.37,0.03771
6409.22,0.03820
6386.08,0.03537
6362.93,0.03284
6339.79,0.03812
6316.64,0.03488
6293.5,0.03476
6270.35,0.03702
6247.21,0.03727
6224.06,0.03702
6200.92,0.03859
6177.77,0.03877
6154.63,0.03956
6131.48,0.03554
6108.34,0.03573
6085.19,0.03715
6062.05,0.03584
6038.9,0.03822
6015.76,0.03563
5992.61,0.03539
5969.47,0.03605
5946.32,0.03714
5923.18,0.03624
5900.03,0.03625
5876.89,0.03764
5853.74,0.03682
5830.6,0.03619
5807.45,0.03537
5784.31,0.03677
5761.16,0.03759
5738.02,0.03733
5714.87,0.03741
5691.73,0.03730
5668.58,0.03720
5645.44,0.03822
5622.29,0.03497
5599.15,0.03742
5576,0.03729
5552.86,0.03743
5529.71,0.03764
5506.57,0.03816
5483.42,0.03842
5460.28,0.03804
5437.13,0.03635
5413.99,0.04006
5390.84,0.03736
5367.7,0.03888
5344.55,0.03947
5321.41,0.03789
5298.26,0.03898
5275.12,0.03820
5251.97,0.03947
5228.83,0.03920
5205.68,0.03751
5182.54,0.03818
5159.39,0.03892
5136.25,0.03842
5113.1,0.04016
5089.96,0.03911
5066.81,0.03998
5043.67,0.03947
5020.52,0.03960
4997.38,0.03919
4974.23,0.04069
4951.09,0.03891
4927.94,0.04048
4904.8,0.03916
4881.65,0.04063
4858.51,0.03966
4835.36,0.04092
4812.22,0.03950
4789.07,0.03955
4765.93,0.04060
4742.78,0.03978
4719.64,0.04048
4696.49,0.04023
4673.35,0.03985
4650.2,0.04008
4627.06,0.04006
4603.92,0.03946
4580.77,0.04083
4557.63,0.04109
4534.48,0.04095
4511.34,0.04050
4488.19,0.04132
4465.05,0.04025
4441.9,0.03967
4418.76,0.03920
4395.61,0.03969
4372.47,0.03818
4349.32,0.03849
4326.18,0.03876
4303.03,0.03937
4279.89,0.03848
4256.74,0.03947
4233.6,0.03960
4210.45,0.03890
4187.31,0.04002
4164.16,0.03937
4141.02,0.03971
4117.87,0.04007
4094.73,0.03973
4071.58,0.04051
4048.44,0.04046
4025.29,0.04083
4002.15,0.04083
3979,0.04077
3955.86,0.04134
3932.71,0.04183
3909.57,0.04221
3886.42,0.04114
3863.28,0.04191
3840.13,0.04219
3816.99,0.04265
3793.84,0.04280
3770.7,0.04158
3747.55,0.04257
3724.41,0.04289
3701.26,0.04243
3678.12,0.04217
3654.97,0.04166
3631.83,0.04149
3608.68,0.04088
3585.54,0.04081
3562.39,0.04072
3539.25,0.04036
3516.1,0.03982
3492.96,0.03881
3469.81,0.03911
3446.67,0.03829
3423.52,0.03706
3400.38,0.03795
3377.23,0.03784
3354.09,0.03811
3330.94,0.03765
3307.8,0.03843
3284.65,0.03793
3261.51,0.03809
3238.36,0.03871
3215.22,0.03920
3192.07,0.03925
3168.93,0.03974
3145.78,0.03977
3122.64,0.03864
3099.49,0.03850
3076.35,0.03769
3053.2,0.03722
3030.06,0.03704
3006.91,0.03437
2983.77,0.02925
2960.62,0.02755
2937.48,0.02783
2914.33,0.02828
2891.19,0.02956
2868.04,0.02905
2844.9,0.03183
2821.75,0.03497
2798.61,0.03772
2775.46,0.03914
2752.32,0.03973
2729.17,0.03924
2706.03,0.04058
2682.88,0.04097
2659.74,0.04112
2636.59,0.04166
2613.45,0.04165
2590.3,0.04186
2567.16,0.04179
2544.02,0.04230
2520.87,0.04278
2497.73,0.04335
2474.58,0.04353
2451.44,0.04351
2428.29,0.04327
2405.15,0.04268
2382,0.04288
2358.86,0.04360
2335.71,0.04414
2312.57,0.04455
2289.42,0.04446
2266.28,0.04468
2243.13,0.04452
2219.99,0.04476
2196.84,0.04484
2173.7,0.04484
2150.55,0.04504
2127.41,0.04500
2104.26,0.04501
2081.12,0.04414
2057.97,0.04457
2034.83,0.04430
2011.68,0.04456
1988.54,0.04453
1965.39,0.04319
1942.25,0.04206
1919.1,0.04317
1895.96,0.04348
1872.81,0.04333
1849.67,0.04245
1826.52,0.04053
1803.38,0.04042
1780.23,0.03815
1757.09,0.03413
1733.94,0.02657
1710.8,0.02895
1687.65,0.03274
1664.51,0.03393
1641.36,0.03632
1618.22,0.03673
1595.07,0.03560
1571.93,0.03413
1548.78,0.03438
1525.64,0.03485
1502.49,0.03224
1479.35,0.03120
1456.2,0.02822
1433.06,0.02769
1409.91,0.02777
1386.77,0.02787
1363.62,0.02883
1340.48,0.02681
1317.33,0.02649
1294.19,0.02519
1271.04,0.02808
1247.9,0.03063
1224.75,0.03110
1201.61,0.03033
1178.46,0.03079
1155.32,0.03011
1132.17,0.02730
1109.03,0.02755
1085.88,0.03004
1062.74,0.03198
1039.59,0.03194
1016.45,0.02967
993.304,0.03126
970.159,0.02920
947.014,0.03019
923.869,0.03136
900.724,0.03254
877.579,0.03057
854.434,0.03226
831.289,0.03167
808.144,0.03384
784.999,0.03342
761.854,0.03212
738.709,0.02801
715.565,0.03291
692.42,0.02918
669.275,0.03070
646.13,0.02709
622.985,0.02610
599.84,0.02786

File: Window_Screen_IS_S_220829_R2.dpt
7497.03,0.04429
7473.89,0.03724
7450.74,0.03930
7427.6,0.03538
7404.45,0.04200
7381.31,0.03763
7358.16,0.04237
7335.02,0.04614
7311.87,0.03851
7288.73,0.03314
7265.58,0.03516
7242.44,0.03999
7219.29,0.04207
7196.15,0.03594
7173,0.03911
7149.86,0.03878
7126.71,0.03869
7103.57,0.04022
7080.42,0.03667
7057.28,0.04116
7034.13,0.03785
7010.99,0.03607
6987.84,0.03656
6964.7,0.04123
6941.55,0.04114
6918.41,0.03983
6895.26,0.03833
6872.12,0.03901
6848.97,0.03431
6825.83,0.04126
6802.68,0.04232
6779.54,0.03803
6756.39,0.03245
6733.25,0.03974
6710.1,0.03838
6686.96,0.03848
6663.82,0.03477
6640.67,0.03792
6617.53,0.03717
6594.38,0.03473
6571.24,0.04067
6548.09,0.03810
6524.95,0.03943
6501.8,0.03815
6478.66,0.03560
6455.51,0.03789
6432.37,0.03425
6409.22,0.03748
6386.08,0.03572
6362.93,0.03423
6339.79,0.04102
6316.64,0.03947
6293.5,0.03509
6270.35,0.03874
6247.21,0.03656
6224.06,0.03757
6200.92,0.04041
6177.77,0.04070
6154.63,0.03787
6131.48,0.03591
6108.34,0.03763
6085.19,0.03952
6062.05,0.03905
6038.9,0.03698
6015.76,0.03488
5992.61,0.03592
5969.47,0.03953
5946.32,0.03669
5923.18,0.03669
5900.03,0.03596
5876.89,0.03839
5853.74,0.03644
5830.6,0.03600
5807.45,0.03772
5784.31,0.03829
5761.16,0.03602
5738.02,0.03845
5714.87,0.03944
5691.73,0.03615
5668.58,0.03828
5645.44,0.03606
5622.29,0.03947
5599.15,0.03615
5576,0.03895
5552.86,0.03772
5529.71,0.03856
5506.57,0.03814
5483.42,0.03964
5460.28,0.03749
5437.13,0.03821
5413.99,0.04075
5390.84,0.03831
5367.7,0.03800
5344.55,0.03920
5321.41,0.03934
5298.26,0.03859
5275.12,0.03835
5251.97,0.03910
5228.83,0.03791
5205.68,0.03761
5182.54,0.03895
5159.39,0.03851
5136.25,0.03922
5113.1,0.03922
5089.96,0.03904
5066.81,0.04108
5043.67,0.03866
5020.52,0.04060
4997.38,0.03927
4974.23,0.03998
4951.09,0.03930
4927.94,0.03937
4904.8,0.04079
4881.65,0.04051
4858.51,0.04014
4835.36,0.04019
4812.22,0.03992
4789.07,0.04022
4765.93,0.04067
4742.78,0.03920
4719.64,0.04030
4696.49,0.04030
4673.35,0.04059
4650.2,0.03955
4627.06,0.04028
4603.92,0.03992
4580.77,0.03990
4557.63,0.04061
4534.48,0.04052
4511.34,0.04012
4488.19,0.04140
4465.05,0.04061
4441.9,0.04093
4418.76,0.04035
4395.61,0.03962
4372.47,0.03964
4349.32,0.03899
4326.18,0.03811
4303.03,0.03908
4279.89,0.03943
4256.74,0.03970
4233.6,0.03896
4210.45,0.03847
4187.31,0.03899
4164.16,0.03979
4141.02,0.04018
4117.87,0.04009
4094.73,0.04020
4071.58,0.03974
4048.44,0.03998
4025.29,0.04112
4002.15,0.04004
3979,0.04079
3955.86,0.04167
3932.71,0.04128
3909.57,0.04158
3886.42,0.04174
3863.28,0.04169
3840.13,0.04173
3816.99,0.04229
3793.84,0.04219
3770.7,0.04270
3747.55,0.04261
3724.41,0.04195
3701.26,0.04207
3678.12,0.04189
3654.97,0.04212
3631.83,0.04170
3608.68,0.04108
3585.54,0.04056
3562.39,0.04046
3539.25,0.04035
3516.1,0.03972
3492.96,0.03975
3469.81,0.03952
3446.67,0.03850
3423.52,0.03654
3400.38,0.03797
3377.23,0.03830
3354.09,0.03874
3330.94,0.03823
3307.8,0.03808
3284.65,0.03809
3261.51,0.03858
3238.36,0.03962
3215.22,0.03856
3192.07,0.03857
3168.93,0.03993
3145.78,0.03956
3122.64,0.03886
3099.49,0.03916
3076.35,0.03814
3053.2,0.03728
3030.06,0.03744
3006.91,0.03472
2983.77,0.02893
2960.62,0.02779
2937.48,0.02734
2914.33,0.02865
2891.19,0.02957
2868.04,0.02902
2844.9,0.03128
2821.75,0.03495
2798.61,0.03702
2775.46,0.03929
2752.32,0.03940
2729.17,0.03910
2706.03,0.04092
2682.88,0.04126
2659.74,0.04075
2636.59,0.04164
2613.45,0.04157
2590.3,0.04183
2567.16,0.04184
2544.02,0.04217
2520.87,0.04263
2497.73,0.04307
2474.58,0.04367
2451.44,0.04323
2428.29,0.04300
2405.15,0.04297
2382,0.04266
2358.86,0.04343
2335.71,0.04414
2312.57,0.04473
2289.42,0.04437
2266.28,0.04422
2243.13,0.04472
2219.99,0.04418
2196.84,0.04459
2173.7,0.04486
2150.55,0.04488
2127.41,0.04465
2104.26,0.04469
2081.12,0.04472
2057.97,0.04435
2034.83,0.04456
2011.68,0.04422
1988.54,0.04424
1965.39,0.04332
1942.25,0.04233
1919.1,0.04347
1895.96,0.04291
1872.81,0.04294
1849.67,0.04230
1826.52,0.04014
1803.38,0.04031
1780.23,0.03817
1757.09,0.03415
1733.94,0.02654
1710.8,0.02932
1687.65,0.03343
1664.51,0.03444
1641.36,0.03682
1618.22,0.03635
1595.07,0.03606
1571.93,0.03406
1548.78,0.03515
1525.64,0.03456
1502.49,0.03238
1479.35,0.03088
1456.2,0.02788
1433.06,0.02739
1409.91,0.02796
1386.77,0.02777
1363.62,0.02889
1340.48,0.02722
1317.33,0.02639
1294.19,0.02532
1271.04,0.02787
1247.9,0.03003
1224.75,0.03081
1201.61,0.03066
1178.46,0.03056
1155.32,0.02956
1132.17,0.02720
1109.03,0.02776
1085.88,0.02891
1062.74,0.03150
1039.59,0.03097
1016.45,0.03014
993.304,0.03115
970.159,0.02945
947.014,0.03003
923.869,0.03121
900.724,0.03233
877.579,0.03014
854.434,0.03207
831.289,0.03222
808.144,0.03480
784.999,0.03356
761.854,0.03222
738.709,0.02756
715.565,0.03194
692.42,0.03056
669.275,0.02980
646.13,0.02724
622.985,0.02667
599.84,0.02925

File: Window_Screen_IS_S_220829_R4.dpt
7497.03,0.04682
7473.89,0.04227
7450.74,0.03888
7427.6,0.03571
7404.45,0.03842
7381.31,0.03632
7358.16,0.03451
7335.02,0.04829
7311.87,0.03654
7288.73,0.03384
7265.58,0.03560
7242.44,0.04664
7219.29,0.04022
7196.15,0.03668
7173,0.03568
7149.86,0.03175
7126.71,0.03898
7103.57,0.03948
7080.42,0.04237
7057.28,0.04048
7034.13,0.03700
7010.99,0.03616
6987.84,0.03659
6964.7,0.03713
6941.55,0.03353
6918.41,0.03974
6895.26,0.03674
6872.12,0.03646
6848.97,0.03422
6825.83,0.03755
6802.68,0.03711
6779.54,0.03579
6756.39,0.03777
6733.25,0.03597
6710.1,0.03608
6686.96,0.03800
6663.82,0.03910
6640.67,0.03763
6617.53,0.03289
6594.38,0.03505
6571.24,0.03980
6548.09,0.03861
6524.95,0.03592
6501.8,0.03569
6478.66,0.03596
6455.51,0.03748
6432.37,0.03286
6409.22,0.03567
6386.08,0.03980
6362.93,0.03491
6339.79,0.03454
6316.64,0.04061
6293.5,0.03599
6270.35,0.03490
6247.21,0.03544
6224.06,0.03457
6200.92,0.03957
6177.77,0.03848
6154.63,0.03616
6131.48,0.03656
6108.34,0.03578
6085.19,0.03669
6062.05,0.03732
6038.9,0.03876
6015.76,0.03832
5992.61,0.03829
5969.47,0.03761
5946.32,0.03712
5923.18,0.03704
5900.03,0.03434
5876.89,0.03564
5853.74,0.03780
5830.6,0.03806
5807.45,0.03806
5784.31,0.03721
5761.16,0.03882
5738.02,0.03457
5714.87,0.03728
5691.73,0.03788
5668.58,0.03541
5645.44,0.03771
5622.29,0.03841
5599.15,0.03696
5576,0.03789
5552.86,0.03718
5529.71,0.03863
5506.57,0.03721
5483.42,0.03777
5460.28,0.03763
5437.13,0.03793
5413.99,0.03914
5390.84,0.03904
5367.7,0.03793
5344.55,0.03978
5321.41,0.03736
5298.26,0.03780
5275.12,0.04027
5251.97,0.03884
5228.83,0.03834
5205.68,0.04014
5182.54,0.03904
5159.39,0.03801
5136.25,0.04016
5113.1,0.03889
5089.96,0.04044
5066.81,0.03882
5043.67,0.03917
5020.52,0.03936
4997.38,0.03940
4974.23,0.03968
4951.09,0.03969
4927.94,0.04010
4904.8,0.03907
4881.65,0.03984
4858.51,0.03881
4835.36,0.03864
4812.22,0.03955
4789.07,0.03971
4765.93,0.03998
4742.78,0.03947
4719.64,0.04005
4696.49,0.03943
4673.35,0.04054
4650.2,0.03962
4627.06,0.04030
4603.92,0.03961
4580.77,0.03997
4557.63,0.03956
4534.48,0.04050
4511.34,0.04052
4488.19,0.04055
4465.05,0.04004
4441.9,0.03992
4418.76,0.03970
4395.61,0.03920
4372.47,0.03872
4349.32,0.03857
4326.18,0.03807
4303.03,0.03919
4279.89,0.03832
4256.74,0.03895
4233.6,0.03908
4210.45,0.03886
4187.31,0.03946
4164.16,0.03920
4141.02,0.03971
4117.87,0.03965
4094.73,0.03995
4071.58,0.03978
4048.44,0.04005
4025.29,0.04050
4002.15,0.04130
3979,0.04087
3955.86,0.04158
3932.71,0.04130
3909.57,0.04098
3886.42,0.04122
3863.28,0.04190
3840.13,0.04198
3816.99,0.04238
3793.84,0.04194
3770.7,0.04179
3747.55,0.04190
3724.41,0.04191
3701.26,0.04203
3678.12,0.04116
3654.97,0.04151
3631.83,0.04109
3608.68,0.04062
3585.54,0.04090
3562.39,0.04020
3539.25,0.04067
3516.1,0.04054
3492.96,0.03977
3469.81,0.03932
3446.67,0.03839
3423.52,0.03822
3400.38,0.03834
3377.23,0.03902
3354.09,0.03824
3330.94,0.03819
3307.8,0.03835
3284.65,0.03816
3261.51,0.03932
3238.36,0.03904
3215.22,0.03949
3192.07,0.03944
3168.93,0.03895
3145.78,0.03878
3122.64,0.03945
3099.49,0.03769
3076.35,0.03818
3053.2,0.03690
3030.06,0.03678
3006.91,0.03411
2983.77,0.02882
2960.62,0.02706
2937.48,0.02708
2914.33,0.02830
2891.19,0.02954
2868.04,0.02926
2844.9,0.03102
2821.75,0.03441
2798.61,0.03721
2775.46,0.03849
2752.32,0.03921
2729.17,0.03893
2706.03,0.04032
2682.88,0.04059
2659.74,0.04112
2636.59,0.04142
2613.45,0.04106
2590.3,0.04107
2567.16,0.04198
2544.02,0.04212
2520.87,0.04237
2497.73,0.04312
2474.58,0.04262
2451.44,0.04326
2428.29,0.04335
2405.15,0.04262
2382,0.04192
2358.86,0.04287
2335.71,0.04394
2312.57,0.04440
2289.42,0.04392
2266.28,0.04408
2243.13,0.04392
2219.99,0.04421
2196.84,0.04485
2173.7,0.04470
2150.55,0.04426
2127.41,0.04438
2104.26,0.04453
2081.12,0.04450
2057.97,0.04408
2034.83,0.04414
2011.68,0.04429
1988.54,0.04365
1965.39,0.04309
1942.25,0.04162
1919.1,0.04318
1895.96,0.04280
1872.81,0.04283
1849.67,0.04239
1826.52,0.04004
1803.38,0.03984
1780.23,0.03734
1757.09,0.03350
1733.94,0.02641
1710.8,0.02939
1687.65,0.03284
1664.51,0.03432
1641.36,0.03637
1618.22,0.03654
1595.07,0.03575
1571.93,0.03360
1548.78,0.03443
1525.64,0.03479
1502.49,0.03197
1479.35,0.03091
1456.2,0.02772
1433.06,0.02757
1409.91,0.02803
1386.77,0.02776
1363.62,0.02887
1340.48,0.02722
1317.33,0.02597
1294.19,0.02513
1271.04,0.02752
1247.9,0.03009
1224.75,0.03062
1201.61,0.03027
1178.46,0.03062
1155.32,0.02950
1132.17,0.02684
1109.03,0.02811
1085.88,0.02928
1062.74,0.03060
1039.59,0.03164
1016.45,0.02989
993.304,0.03062
970.159,0.02916
947.014,0.02977
923.869,0.03077
900.724,0.03202
877.579,0.03000
854.434,0.03212
831.289,0.03206
808.144,0.03385
784.999,0.03282
761.854,0.03209
738.709,0.02659
715.565,0.03134
692.42,0.02946
669.275,0.03021
646.13,0.02544
622.985,0.02524
599.84,0.02927

File: Window_Screen_IS_S_220829_R5.dpt
7497.03,0.04332
7473.89,0.03548
7450.74,0.04270
7427.6,0.03715
7404.45,0.02893
7381.31,0.04281
7358.16,0.04498
7335.02,0.04307
7311.87,0.03965
7288.73,0.03495
7265.58,0.04071
7242.44,0.03355
7219.29,0.04139
7196.15,0.03954
7173,0.03457
7149.86,0.03986
7126.71,0.04273
7103.57,0.03958
7080.42,0.03000
7057.28,0.03680
7034.13,0.03826
7010.99,0.03476
6987.84,0.04154
6964.7,0.03832
6941.55,0.03652
6918.41,0.03664
6895.26,0.03694
6872.12,0.03714
6848.97,0.03890
6825.83,0.04013
6802.68,0.03389
6779.54,0.03774
6756.39,0.03410
6733.25,0.04069
6710.1,0.04085
6686.96,0.03624
6663.82,0.03293
6640.67,0.03746
6617.53,0.03994
6594.38,0.03896
6571.24,0.04006
6548.09,0.03770
6524.95,0.03412
6501.8,0.04046
6478.66,0.03620
6455.51,0.03703
6432.37,0.03695
6409.22,0.03534
6386.08,0.03060
6362.93,0.03948
6339.79,0.03711
6316.64,0.03616
6293.5,0.03603
6270.35,0.03616
6247.21,0.03832
6224.06,0.03672
6200.92,0.03403
6177.77,0.03864
6154.63,0.03713
6131.48,0.03657
6108.34,0.03642
6085.19,0.03616
6062.05,0.03924
6038.9,0.03896
6015.76,0.03587
5992.61,0.03638
5969.47,0.03711
5946.32,0.03471
5923.18,0.03859
5900.03,0.03517
5876.89,0.03802
5853.74,0.03624
5830.6,0.03745
5807.45,0.03721
5784.31,0.03790
5761.16,0.03566
5738.02,0.03592
5714.87,0.03545
5691.73,0.03913
5668.58,0.03829
5645.44,0.03728
5622.29,0.03712
5599.15,0.03746
5576,0.03673
5552.86,0.03678
5529.71,0.03554
5506.57,0.03714
5483.42,0.03770
5460.28,0.03992
5437.13,0.03884
5413.99,0.03842
5390.84,0.03832
5367.7,0.03851
5344.55,0.03816
5321.41,0.03824
5298.26,0.03974
5275.12,0.03742
5251.97,0.03772
5228.83,0.03925
5205.68,0.03982
5182.54,0.03838
5159.39,0.03887
5136.25,0.03973
5113.1,0.03969
5089.96,0.03895
5066.81,0.03913
5043.67,0.03949
5020.52,0.03983
4997.38,0.03952
4974.23,0.04018
4951.09,0.03933
4927.94,0.03829
4904.8,0.04042
4881.65,0.03835
4858.51,0.03892
4835.36,0.04023
4812.22,0.04005
4789.07,0.03950
4765.93,0.04035
4742.78,0.04066
4719.64,0.03987
4696.49,0.04045
4673.35,0.04009
4650.2,0.04040
4627.06,0.04045
4603.92,0.04113
4580.77,0.04026
4557.63,0.04057
4534.48,0.04002
4511.34,0.04171
4488.19,0.03995
4465.05,0.04038
4441.9,0.04021
4418.76,0.04000
4395.61,0.04009
4372.47,0.03826
4349.32,0.03886
4326.18,0.03754
4303.03,0.03953
4279.89,0.03931
4256.74,0.03855
4233.6,0.03959
4210.45,0.03826
4187.31,0.03942
4164.16,0.03923
4141.02,0.04001
4117.87,0.03978
4094.73,0.03958
4071.58,0.04000
4048.44,0.04056
4025.29,0.04035
4002.15,0.04039
3979,0.04063
3955.86,0.04126
3932.71,0.04136
3909.57,0.04180
3886.42,0.04093
3863.28,0.04160
3840.13,0.04232
3816.99,0.04148
3793.84,0.04241
3770.7,0.04203
3747.55,0.04236
3724.41,0.04222
3701.26,0.04185
3678.12,0.04254
3654.97,0.04175
3631.83,0.04158
3608.68,0.04211
3585.54,0.04119
3562.39,0.04099
3539.25,0.04089
3516.1,0.03953
3492.96,0.03941
3469.81,0.03968
3446.67,0.03965
3423.52,0.03816
3400.38,0.03832
3377.23,0.03829
3354.09,0.03808
3330.94,0.03827
3307.8,0.03792
3284.65,0.03872
3261.51,0.03841
3238.36,0.03928
3215.22,0.03860
3192.07,0.03860
3168.93,0.03939
3145.78,0.03929
3122.64,0.03891
3099.49,0.03868
3076.35,0.03859
3053.2,0.03707
3030.06,0.03681
3006.91,0.03418
2983.77,0.02892
2960.62,0.02679
2937.48,0.02726
2914.33,0.02859
2891.19,0.02971
2868.04,0.02912
2844.9,0.03112
2821.75,0.03469
2798.61,0.03740
2775.46,0.03906
2752.32,0.03950
2729.17,0.03901
2706.03,0.04036
2682.88,0.04055
2659.74,0.04105
2636.59,0.04168
2613.45,0.04113
2590.3,0.04154
2567.16,0.04137
2544.02,0.04172
2520.87,0.04261
2497.73,0.04294
2474.58,0.04299
2451.44,0.04348
2428.29,0.04318
2405.15,0.04266
2382,0.04267
2358.86,0.04310
2335.71,0.04424
2312.57,0.04397
2289.42,0.04421
2266.28,0.04432
2243.13,0.04419
2219.99,0.04421
2196.84,0.04430
2173.7,0.04469
2150.55,0.04488
2127.41,0.04461
2104.26,0.04428
2081.12,0.04448
2057.97,0.04404
2034.83,0.04455
2011.68,0.04450
1988.54,0.04370
1965.39,0.04331
1942.25,0.04193
1919.1,0.04320
1895.96,0.04330
1872.81,0.04298
1849.67,0.04220
1826.52,0.04024
1803.38,0.04013
1780.23,0.03782
1757.09,0.03369
1733.94,0.02620
1710.8,0.02891
1687.65,0.03278
1664.51,0.03401
1641.36,0.03674
1618.22,0.03638
1595.07,0.03596
1571.93,0.03391
1548.78,0.03519
1525.64,0.03460
1502.49,0.03202
1479.35,0.03091
1456.2,0.02798
1433.06,0.02735
1409.91,0.02816
1386.77,0.02757
1363.62,0.02856
1340.48,0.02641
1317.33,0.02616
1294.19,0.02512
1271.04,0.02755
1247.9,0.03006
1224.75,0.03103
1201.61,0.02990
1178.46,0.03058
1155.32,0.02925
1132.17,0.02717
1109.03,0.02746
1085.88,0.02965
1062.74,0.03153
1039.59,0.03099
1016.45,0.02993
993.304,0.03076
970.159,0.02912
947.014,0.02996
923.869,0.03054
900.724,0.03196
877.579,0.03039
854.434,0.03222
831.289,0.03280
808.144,0.03397
784.999,0.03328
761.854,0.03210
738.709,0.02859
715.565,0.03102
692.42,0.02968
669.275,0.03041
646.13,0.02782
622.985,0.02768
599.84,0.02737