Folder: fsri_materials_database/01_Data/PlasticC/Cone

Note: README.md
# Materials and Products Database
### Repository of materials and products properties and fire test data to improve fire modeling and fire investigation.

This project was supported in part by Award No. 2019-DU-BX-0018, awarded by the National Institute of Justice, Office of Justice Programs, U.S. Department of Justice. The opinions, findings, and conclusions or recommendations expressed in this publication / program / exhibition are those of the author(s) and do not necessarily reflect those of the Department of Justice.

***
***

__Cite this database:__ "McKinnon, M., Weinschenk, C., Dow, N., DiDomizio, M., and Madrzykowski, D. Materials and Products Database (Version 1.0.0), Fire Safety Research Institute, UL Research Institutes. Columbia, MD 21045, 2023."

__Cite the Technical Reference Guide:__ "McKinnon, M., Weinschenk, C., and Madrzykowski, D. Materials and Products Database - Technical Reference Guide, Fire Safety Research Institute, UL Research Institutes. Columbia, MD 21045, 2023."

__Cite the User Guide:__ "McKinnon, M., and Weinschenk, C. Materials and Products Database - User Guide, Fire Safety Research Institute, UL Research Institutes. Columbia, MD 21045, 2023."

***
***

## Database Structure

## 01_Data/
Raw data generated from each apparatus are included here in plain-text format. The data is organized first by material, next by the short name of test apparatus used, and where applicable additional filtering by test settings.

### Test Apparatus and Data File Structure
- __Cone Calorimeter__ (Cone)
    + Data file structure includes the material, the short name for the apparatus, heat flux setting and scan/scalar, date of test, and replicate number. Scan is for the raw output data and scalar is for the initial conditions and high-level test parameters. 
        * Example: __MDF_Cone_HF25scalar_210323_R1__ stands for the first replicate of scalar data generated from a medium density fiber board test in cone calorimeter exposed to 25 kW/m<sup>2</sup> on March 23, 2021.
    + A _Cone_Notes.csv_ is generated for each material from the __plot_Cone_data.py__ script. For materials whose experiments deviated from typical behavior relevant pictures are included in the respective material directory.
- __Fourier Transform Infrared Spectrometer__ (FTIR)
    + The FTIR directory contains subdirectories for the Attenuated Total Reflectance method (ATR) and the Integrating Sphere (IS)
    + Data file structure for the ATR experiment files includes the material, the abbreviated name for the apparatus, date of test, and replicate number. 
        * Example: __MDF_ATR_210323_R5__ stands for the fifth replicate of data collected with the ATR accessory conducted on June 8, 2021.
    + Data file structure for the IS experiment files includes the material, the abbreviated name for the apparatus, the measurand, whether the test is a sample measurement or standard reference, date of test, and replicate number.
        * Example: __OSB_IS_REFLECT_MEAS_2

File: PlasticC_HRRPUA_25.csv
Time after Ignition,PlasticC_R1,PlasticC_R2,PlasticC_R3,Mean,Std. Dev.
0.0,16.5,22.2,17.6,18.8,3.0
0.75,22.1,32.0,24.5,26.2,5.2
1.5,32.5,48.1,35.5,38.7,8.3
2.25,46.1,59.6,46.4,50.7,7.7
3.0,59.0,80.1,64.5,67.9,10.9
3.75,82.1,102.9,79.9,88.3,12.7
4.5,106.3,126.0,112.2,114.8,10.1
5.25,146.7,149.2,131.4,142.4,9.7
6.0,186.3,174.0,177.0,179.1,6.4
6.75,222.6,197.1,218.9,212.9,13.8
7.5,268.3,232.1,256.0,252.1,18.4
8.25,295.5,273.4,296.2,288.4,13.0
9.0,326.3,290.1,345.8,320.7,28.3
9.75,354.5,329.0,380.1,354.5,25.5
10.5,382.3,350.7,419.3,384.1,34.3
11.25,394.4,387.8,430.5,404.2,23.0
12.0,417.5,399.8,466.1,427.8,34.4
12.75,431.2,413.3,468.2,437.6,28.0
13.5,445.1,443.5,489.4,459.3,26.1
14.25,448.0,455.2,493.3,465.5,24.3
15.0,460.3,472.8,510.7,481.3,26.3
15.75,457.7,475.9,519.7,484.5,31.9
16.5,465.2,499.6,538.1,501.0,36.5
17.25,484.0,520.3,531.9,512.1,25.0
18.0,503.8,522.7,560.1,528.8,28.7
18.75,490.8,548.3,563.3,534.1,38.3
19.5,523.2,551.4,558.5,544.4,18.7
20.25,532.1,547.3,575.2,551.5,21.9
21.0,523.2,556.8,578.2,552.7,27.7
21.75,535.6,572.6,568.9,559.0,20.4
22.5,544.5,567.1,608.8,573.5,32.6
23.25,531.4,601.1,591.0,574.5,37.7
24.0,537.4,589.8,595.6,574.2,32.1
24.75,553.9,596.2,596.3,582.2,24.5
25.5,555.6,606.0,611.0,590.9,30.7
26.25,569.4,630.9,623.5,607.9,33.5
27.0,567.6,628.0,604.7,600.1,30.5
27.75,588.1,616.8,602.0,602.3,14.3
28.5,591.7,614.6,628.3,611.6,18.5
29.25,623.6,612.6,593.1,609.8,15.5
30.0,594.8,623.3,637.9,618.7,21.9
30.75,607.8,659.6,646.1,637.8,26.8
31.5,624.9,649.6,726.9,667.2,53.2
32.25,625.3,698.9,672.2,665.5,37.3
33.0,639.2,659.5,692.6,663.8,27.0
33.75,632.9,675.5,706.3,671.6,36.9
34.5,651.6,672.4,723.1,682.4,36.8
35.25,652.9,690.6,749.6,697.7,48.7
36.0,636.9,708.7,739.3,695.0,52.6
36.75,656.3,721.8,745.8,708.0,46.3
37.5,714.0,696.0,724.5,711.5,14.4
38.25,646.8,726.7,745.8,706.4,52.5
39.0,669.0,731.1,752.6,717.6,43.4
39.75,686.9,728.7,808.8,741.4,62.0
40.5,683.4,756.1,792.8,744.1,55.7
41.25,707.8,802.8,757.0,755.8,47.5
42.0,754.3,791.6,794.1,780.0,22.3
42.75,683.9,788.3,756.4,742.8,53.5
43.5,714.4,802.7,759.2,758.7,44.2
44.25,718.0,789.6,800.1,769.3,44.7
45.0,762.5,837.5,810.4,803.5,38.0
45.75,770.3,794.6,816.7,793.9,23.2
46.5,753.6,808.6,808.8,790.3,31.8
47.25,779.1,822.9,828.9,810.3,27.2
48.0,823.3,803.5,801.2,809.3,12.2
48.75,801.7,819.2,819.7,813.6,10.2
49.5,790.9,853.0,806.1,816.7,32.3
50.25,782.6,835.4,807.2,808.4,26.4
51.0,801.8,882.1,778.7,820.9,54.3
51.75,844.7,847.9,800.5,831.0,26.5
52.5,836.1,842.0,828.1,835.4,6.9
53.25,791.9,854.9,842.9,829.9,33.5
54.0,833.8,850.1,831.4,838.4,10.1
54.75,841.3,892.1,851.7,861.7,26.8
55.5,855.3,905.7,819.8,860.3,43.2
56.25,831.4,915.4,859.0,868.6,42.8
57.0,838.7,891.3,856.6,862.2,26.7
57.75,873.8,902.3,870.0,882.0,17.6
58.5,858.3,929.1,873.5,887.0,37.2
59.25,870.1,909.2,890.8,890.0,19.6
60.0,872.5,952.0,876.3,900.3,44.9
60.75,929.8,943.7,883.1,918.9,31.7
61.5,899.6,967.6,896.5,921.3,40.2
62.25,918.1,949.5,906.6,924.7,22.2
63.0,927.3,926.2,907.3,920.2,11.2
63.75,855.2,921.2,900.4,892.3,33.7
64.5,898.4,981.9,881.3,920.5,53.8
65.25,885.3,967.9,918.5,923.9,41.5
66.0,909.6,953.6,924.1,929.1,22.5
66.75,889.1,1010.5,951.9,950.5,60.7
67.5,897.8,942.2,887.0,909.0,29.3
68.25,916.1,939.9,947.9,934.6,16.5
69.0,925.7,985.9,906.3,939.3,41.5
69.75,941.3,991.7,950.7,961.2,26.8
70.5,904.1,957.9,957.3,939.7,30.9
71.25,901.9,977.5,932.8,937.4,38.0
72.0,904.1,987.5,925.6,939.1,43.3
72.75,880.7,1002.3,919.1,934.0,62.2
73.5,877.0,993.2,915.4,928.5,59.2
74.25,884.1,994.0,903.0,927.0,58.8
75.0,888.1,999.1,893.1,926.8,62.7
75.75,898.6,950.6,921.1,923.5,26.1
76.5,911.6,1016.1,959.6,962.5,52.3
77.25,875.5,998.4,971.5,948.5,64.6
78.0,914.7,1000.2,956.5,957.1,42.8
78.75,904.0,1013.7,953.2,957.0,55.0
79.5,930.0,1009.7,964.2,968.0,40.0
80.25,970.7,1011.4,964.1,982.1,25.6
81.0,900.7,1003.8,967.9,957.5,52.4
81.75,922.9,1068.1,964.0,985.0,74.8
82.5,920.7,1014.9,948.0,961.2,48.4
83.25,957.0,1011.4,983.2,983.9,27.2
84.0,943.5,1020.6,938.4,967.5,46.1
84.75,943.6,994.7,907.9,948.7,43.6
85.5,942.3,1010.6,903.2,952.1,54.4
86.25,944.0,997.4,945.8,962.4,30.3
87.0,964.9,988.4,896.7,950.0,47.6
87.75,924.0,1012.9,890.7,942.5,63.2
88.5,956.5,985.3,933.9,958.6,25.8
89.25,941.0,968.1,912.2,940.4,28.0
90.0,958.4,962.3,927.4,949.4,19.1
90.75,1002.4,1006.3,939.6,982.8,37.4
91.5,972.6,968.2,946.7,962.5,13.9
92.25,1015.0,996.5,981.9,997.8,16.6
93.0,950.4,1031.0,961.7,981.1,43.6
93.75,1018.3,979.1,948.6,982.0,34.9
94.5,971.4,1019.4,926.8,972.5,46.3
95.25,949.8,1016.1,956.6,974.1,36.5
96.0,980.9,1019.9,919.4,973.4,50.7
96.75,929.4,982.7,924.8,945.6,32.2
97.5,969.4,978.8,915.0,954.4,34.5
98.25,936.3,986.9,894.5,939.2,46.3
99.0,929.6,955.8,899.4,928.2,28.2
99.75,914.2,998.3,928.6,947.0,45.0
100.5,913.7,922.2,874.6,903.5,25.4
101.25,944.7,962.4,930.7,945.9,15.9
102.0,879.4,951.2,978.4,936.3,51.2
102.75,948.3,939.4,982.6,956.8,22.8
103.5,923.7,954.2,936.5,938.1,15.3
104.25,940.2,943.8,935.9,940.0,3.9
105.0,885.6,985.8,955.2,942.2,51.4
105.75,889.9,908.1,939.9,912.7,25.3
106.5,936.6,915.7,938.5,930.3,12.6
107.25,951.9,926.8,934.0,937.6,12.9
108.0,901.4,890.0,934.3,908.6,23.0
108.75,956.1,931.5,909.9,932.5,23.2
109.5,942.3,876.6,934.1,917.7,35.8
110.25,928.5,867.0,937.6,911.0,38.4
111.0,881.0,864.9,910.9,885.6,23.4
111.75,890.5,861.0,882.3,877.9,15.2
112.5,911.2,866.7,904.5,894.2,24.0
113.25,924.3,848.0,913.7,895.3,41.3
114.0,889.9,895.8,902.2,896.0,6.1
114.75,873.6,841.3,874.8,863.2,19.0
115.5,919.4,820.6,887.6,875.8,50.4
116.25,868.3,820.8,852.5,847.2,24.2
117.0,822.7,857.5,849.6,843.3,18.2
117.75,853.1,820.6,829.9,834.5,16.8
118.5,858.4,812.2,812.6,827.7,26.5
119.25,822.8,801.6,822.8,815.7,12.3
120.0,871.7,804.4,827.1,834.4,34.3
120.75,834.0,778.0,800.8,804.3,28.1
121.5,850.6,812.0,817.3,826.6,20.9
122.25,824.7,791.7,782.8,799.7,22.1
123.0,780.1,794.5,802.1,792.2,11.2
123.75,806.1,778.8,744.2,776.4,31.0
124.5,812.0,727.2,726.2,755.1,49.2
125.25,799.6,776.1,710.8,762.1,46.0
126.0,837.1,747.1,704.2,762.8,67.9
126.75,809.1,724.0,717.6,750.2,51.1
127.5,795.1,718.5,688.5,734.0,55.0
128.25,802.9,704.9,716.7,741.5,53.5
129.0,770.7,700.9,692.2,721.3,43.0
129.75,755.0,679.9,674.1,703.0,45.1
130.5,759.9,675.3,657.9,697.7,54.6
131.25,734.5,658.1,653.8,682.1,45.4
132.0,725.6,653.2,630.0,669.6,49.9
132.75,698.2,601.4,621.0,640.2,51.2
133.5,691.4,598.2,622.1,637.2,48.4
134.25,676.3,573.6,594.5,614.8,54.3
135.0,696.2,558.6,590.8,615.2,72.0
135.75,669.3,540.7,551.8,587.3,71.2
136.5,633.1,510.5,536.7,560.1,64.5
137.25,621.8,492.9,512.9,542.5,69.4
138.0,608.3,468.4,483.8,520.2,76.7
138.75,586.9,452.0,467.1,502.0,73.9
139.5,583.0,412.6,461.1,485.6,87.8
140.25,570.3,394.3,455.3,473.3,89.4
141.0,545.0,377.0,425.6,449.2,86.4
141.75,520.1,335.8,403.8,419.9,93.2
142.5,520.9,312.1,396.5,409.8,105.0
143.25,488.2,297.6,368.6,384.8,96.3
144.0,465.7,272.3,351.9,363.3,97.2
144.75,452.5,250.6,329.9,344.4,101.7
145.5,433.8,226.6,305.8,322.1,104.6
146.25,427.9,206.7,294.3,309.6,111.4
147.0,410.2,181.3,272.8,288.1,115.2
147.75,401.9,162.5,252.9,272.4,120.9
148.5,377.8,140.2,233.3,250.4,119.7
149.25,353.8,119.7,215.3,229.6,117.7
150.0,313.1,102.8,200.0,205.3,105.2
150.75,285.9,88.0,184.9,186.3,99.0
151.5,250.7,76.1,171.0,166.0,87.4
152.25,220.5,,159.4,190.0,43.2
153.0,198.5,,149.9,174.2,34.4
153.75,175.2,,141.0,158.1,24.2
154.5,156.7,,132.1,144.4,17.4
155.25,141.0,,122.8,131.9,12.8
156.0,127.2,,113.2,120.2,9.8
156.75,110.8,,107.1,109.0,2.6
157.5,98.5,,99.7,99.1,0.9
158.25,89.1,,92.0,90.5,2.1
159.0,77.4,,86.1,81.7,6.1
159.75,69.6,,82.1,75.9,8.8
160.5,62.4,,77.1,69.7,10.4
161.25,55.5,,73.5,64.5,12.7
162.0,49.7,,68.2,58.9,13.1
162.75,44.0,,64.6,54.3,14.5
163.5,39.3,,60.5,49.9,15.0
164.25,35.0,,55.6,45.3,14.6
165.0,30.6,,52.0,41.3,15.1
165.75,27.0,,47.8,37.4,14.7
166.5,24.0,,45.8,34.9,15.4
167.25,21.8,,43.0,32.4,15.0
168.0,20.0,,40.7,30.3,14.6
168.75,18.1,,39.4,28.8,15.1

File: PlasticC_HRRPUA_50.csv
Time after Ignition,PlasticC_R1,PlasticC_R2,PlasticC_R3,Mean,Std. Dev.
0.0,8.6,15.0,5.9,9.8,4.7
0.5,17.2,27.1,7.1,17.1,10.0
1.0,24.0,37.1,14.0,25.1,11.6
1.5,39.6,58.2,24.3,40.7,17.0
2.0,52.2,75.5,37.0,54.9,19.4
2.5,69.4,88.5,60.3,72.7,14.4
3.0,86.8,114.7,93.3,98.2,14.6
3.5,112.0,130.1,127.4,123.2,9.7
4.0,136.8,160.4,157.2,151.5,12.8
4.5,161.5,188.4,184.9,178.3,14.7
5.0,194.8,208.3,219.3,207.4,12.3
5.5,206.8,236.1,244.3,229.1,19.7
6.0,242.4,257.7,268.9,256.3,13.3
6.5,266.1,284.1,297.3,282.5,15.7
7.0,285.1,301.7,328.4,305.1,21.9
7.5,307.2,319.2,339.2,321.9,16.2
8.0,338.1,347.1,361.6,348.9,11.9
8.5,361.8,348.2,390.4,366.8,21.5
9.0,379.9,365.0,402.4,382.5,18.8
9.5,389.0,380.0,418.3,395.8,20.0
10.0,401.1,391.1,438.9,410.4,25.2
10.5,419.8,404.4,460.3,428.2,28.9
11.0,444.0,413.5,461.0,439.5,24.1
11.5,427.7,438.8,463.6,443.4,18.4
12.0,475.0,440.1,505.9,473.7,32.9
12.5,479.5,457.9,519.5,485.6,31.2
13.0,484.0,460.7,528.6,491.1,34.5
13.5,509.7,481.5,527.2,506.1,23.1
14.0,518.3,508.3,542.2,522.9,17.4
14.5,544.4,511.2,560.4,538.7,25.1
15.0,562.0,522.7,556.7,547.1,21.3
15.5,575.3,527.0,565.8,556.0,25.6
16.0,569.2,546.2,613.0,576.1,33.9
16.5,582.8,547.9,603.8,578.2,28.2
17.0,585.1,575.8,632.0,597.6,30.1
17.5,598.3,562.9,665.5,608.9,52.1
18.0,614.3,593.2,667.8,625.1,38.5
18.5,604.7,592.4,687.6,628.2,51.8
19.0,611.7,617.0,691.8,640.2,44.8
19.5,620.5,619.5,695.9,645.3,43.8
20.0,609.7,634.5,725.6,656.6,61.0
20.5,630.3,656.7,727.6,671.5,50.3
21.0,651.4,658.9,720.6,677.0,37.9
21.5,639.5,665.3,742.4,682.4,53.5
22.0,658.3,700.5,760.1,706.3,51.1
22.5,671.9,722.3,723.3,705.8,29.4
23.0,673.4,698.4,743.9,705.2,35.7
23.5,682.4,694.0,758.6,711.7,41.1
24.0,699.8,725.5,760.3,728.5,30.4
24.5,718.0,732.4,806.4,752.2,47.4
25.0,715.3,723.6,805.9,748.3,50.1
25.5,703.8,742.8,756.4,734.3,27.3
26.0,713.7,754.8,769.0,745.9,28.7
26.5,716.3,776.8,788.3,760.5,38.7
27.0,770.7,731.5,776.0,759.4,24.3
27.5,728.7,751.3,797.5,759.2,35.1
28.0,740.2,760.3,821.3,773.9,42.3
28.5,725.1,745.6,825.9,765.6,53.3
29.0,721.5,785.5,809.4,772.1,45.4
29.5,732.7,765.5,829.1,775.8,49.0
30.0,759.6,775.6,820.7,785.3,31.7
30.5,771.8,770.1,877.1,806.4,61.3
31.0,765.7,806.0,831.4,801.0,33.1
31.5,777.6,806.2,849.5,811.1,36.2
32.0,773.0,802.7,860.4,812.0,44.4
32.5,806.0,789.9,871.1,822.3,43.0
33.0,782.2,815.2,877.1,824.8,48.2
33.5,813.2,806.2,848.1,822.5,22.4
34.0,821.3,807.8,849.7,826.3,21.4
34.5,836.0,841.2,887.1,854.8,28.1
35.0,849.9,793.7,868.9,837.5,39.1
35.5,832.0,850.7,909.5,864.1,40.4
36.0,849.9,835.6,937.0,874.2,54.9
36.5,838.8,845.6,908.6,864.3,38.5
37.0,853.6,878.9,887.6,873.4,17.6
37.5,863.4,862.2,944.5,890.1,47.2
38.0,889.0,856.7,961.8,902.5,53.9
38.5,854.9,847.6,988.7,897.1,79.4
39.0,943.3,890.1,944.5,925.9,31.1
39.5,855.9,877.2,976.3,903.2,64.3
40.0,896.4,909.4,982.2,929.3,46.3
40.5,911.7,908.3,1042.9,954.3,76.7
41.0,934.7,892.1,1046.0,957.6,79.5
41.5,930.7,892.8,1055.1,959.5,84.9
42.0,917.3,914.4,1009.2,947.0,53.9
42.5,894.8,936.8,1056.4,962.7,83.8
43.0,937.6,921.0,1063.8,974.1,78.1
43.5,935.0,917.5,1021.5,958.0,55.7
44.0,967.3,898.9,1094.5,986.9,99.2
44.5,927.4,962.5,1030.9,973.6,52.7
45.0,954.2,948.4,1088.9,997.2,79.5
45.5,974.7,961.6,1076.9,1004.4,63.1
46.0,972.3,940.2,1028.2,980.2,44.5
46.5,1014.3,980.0,1091.4,1028.6,57.1
47.0,1022.1,960.9,1080.1,1021.0,59.6
47.5,1014.1,978.3,1045.4,1012.6,33.6
48.0,1006.6,932.6,1102.1,1013.8,85.0
48.5,983.7,965.4,1087.7,1012.3,66.0
49.0,1011.9,966.9,1058.8,1012.5,46.0
49.5,1022.3,996.6,1102.1,1040.3,55.0
50.0,1025.6,998.5,1102.3,1042.1,53.8
50.5,1025.4,994.1,1078.6,1032.7,42.7
51.0,1011.3,1013.9,1163.7,1063.0,87.3
51.5,1050.5,1043.2,1137.8,1077.2,52.7
52.0,1044.5,1032.0,1136.3,1070.9,57.0
52.5,1059.4,1077.2,1159.0,1098.5,53.1
53.0,1111.9,1032.4,1138.5,1094.3,55.2
53.5,1075.1,1048.9,1129.4,1084.5,41.0
54.0,1097.1,1038.0,1216.7,1117.3,91.0
54.5,1098.6,1037.3,1192.3,1109.4,78.1
55.0,1086.6,1033.5,1243.5,1121.2,109.2
55.5,1148.4,1091.1,1168.1,1135.9,40.0
56.0,1109.4,1039.3,1198.3,1115.7,79.7
56.5,1157.3,1073.7,1184.4,1138.5,57.7
57.0,1096.4,1063.6,1225.7,1128.6,85.7
57.5,1116.3,1044.1,1186.6,1115.7,71.2
58.0,1099.6,1100.7,1203.2,1134.5,59.5
58.5,1074.4,1038.5,1220.8,1111.2,96.5
59.0,1094.3,1068.2,1264.1,1142.2,106.4
59.5,1122.3,1126.6,1175.4,1141.4,29.5
60.0,1142.7,1098.5,1242.6,1161.3,73.8
60.5,1167.5,1173.7,1195.5,1178.9,14.7
61.0,1230.9,1125.1,1257.4,1204.5,70.0
61.5,1149.7,1147.9,1254.6,1184.1,61.1
62.0,1154.3,1159.0,1254.8,1189.4,56.7
62.5,1157.2,1132.3,1315.1,1201.5,99.1
63.0,1153.9,1197.6,1252.8,1201.4,49.6
63.5,1129.3,1137.0,1269.8,1178.7,79.0
64.0,1192.7,1128.2,1293.9,1205.0,83.5
64.5,1143.7,1127.2,1319.7,1196.9,106.7
65.0,1174.2,1157.5,1299.8,1210.5,77.8
65.5,1184.8,1192.1,1286.5,1221.1,56.7
66.0,1200.9,1196.0,1231.6,1209.5,19.3
66.5,1245.5,1211.1,1277.4,1244.7,33.2
67.0,1248.6,1174.1,1284.3,1235.6,56.2
67.5,1151.2,1154.3,1332.7,1212.7,103.9
68.0,1129.9,1155.8,1327.7,1204.4,107.5
68.5,1188.6,1163.6,1382.4,1244.9,119.7
69.0,1256.8,1092.0,1319.0,1222.6,117.3
69.5,1265.8,1205.3,1318.6,1263.2,56.7
70.0,1235.4,1189.3,1373.2,1266.0,95.7
70.5,1289.3,1209.9,1329.6,1276.3,60.9
71.0,1247.0,1170.7,1368.0,1261.9,99.5
71.5,1259.4,1197.0,1367.2,1274.5,86.1
72.0,1244.0,1172.5,1317.0,1244.5,72.2
72.5,1223.5,1198.9,1331.4,1251.3,70.5
73.0,1264.5,1158.4,1342.1,1255.0,92.2
73.5,1317.7,1160.1,1359.0,1278.9,105.0
74.0,1274.7,1197.3,1335.9,1269.3,69.5
74.5,1263.6,1178.9,1295.2,1245.9,60.1
75.0,1289.9,1155.4,1414.5,1286.6,129.6
75.5,1247.1,1226.7,1359.4,1277.7,71.5
76.0,1242.8,1217.0,1346.5,1268.8,68.5
76.5,1323.3,1224.0,1355.9,1301.1,68.7
77.0,1292.4,1246.9,1410.3,1316.6,84.3
77.5,1304.5,1190.6,1343.2,1279.4,79.4
78.0,1268.6,1179.3,1305.5,1251.1,64.9
78.5,1279.3,1175.8,1354.9,1270.0,89.9
79.0,1329.3,1191.8,1341.3,1287.5,83.1
79.5,1330.9,1144.0,1327.4,1267.5,106.9
80.0,1285.1,1214.3,1370.3,1289.9,78.1
80.5,1282.0,1194.7,1402.5,1293.0,104.3
81.0,1290.4,1176.7,1325.1,1264.1,77.7
81.5,1312.1,1232.7,1420.3,1321.7,94.1
82.0,1297.9,1241.2,1362.6,1300.6,60.7
82.5,1323.8,1206.6,1327.4,1285.9,68.7
83.0,1312.0,1142.4,1332.6,1262.4,104.4
83.5,1315.1,1275.4,1385.2,1325.3,55.6
84.0,1355.0,1211.0,1406.2,1324.1,101.2
84.5,1290.5,1249.6,1374.5,1304.9,63.7
85.0,1313.7,1260.1,1381.9,1318.6,61.0
85.5,1460.6,1213.7,1305.0,1326.4,124.9
86.0,1262.5,1266.3,1389.4,1306.1,72.2
86.5,1313.3,1252.8,1383.7,1316.6,65.5
87.0,1346.4,1187.7,1350.9,1295.0,92.9
87.5,1315.7,1184.0,1315.4,1271.7,75.9
88.0,1329.4,1186.5,1320.5,1278.8,80.0
88.5,1309.6,1166.0,1272.2,1249.3,74.5
89.0,1257.0,1189.5,1263.4,1236.6,40.9
89.5,1299.0,1260.9,1271.3,1277.1,19.7
90.0,1324.3,1226.2,1264.3,1271.6,49.4
90.5,1311.9,1153.5,1265.1,1243.5,81.4
91.0,1338.9,1174.4,1318.5,1277.3,89.7
91.5,1207.5,1188.1,1262.7,1219.4,38.7
92.0,1269.5,1201.4,1267.2,1246.0,38.7
92.5,1254.5,1212.8,1212.9,1226.8,24.1
93.0,1249.5,1202.0,1234.8,1228.8,24.3
93.5,1285.2,1208.3,1257.7,1250.4,39.0
94.0,1253.7,1243.0,1211.9,1236.2,21.7
94.5,1256.9,1190.2,1170.8,1206.0,45.2
95.0,1267.9,1190.0,1163.6,1207.2,54.2
95.5,1255.0,1177.0,1166.9,1199.7,48.2
96.0,1272.7,1195.1,1157.6,1208.5,58.7
96.5,1226.6,1165.4,1132.5,1174.9,47.7
97.0,1182.7,1165.1,1178.6,1175.5,9.2
97.5,1229.1,1130.3,1135.0,1164.8,55.8
98.0,1203.1,1124.7,1077.6,1135.2,63.4
98.5,1254.9,1174.9,1086.8,1172.2,84.1
99.0,1170.4,1109.6,1013.2,1097.7,79.3
99.5,1164.5,1088.9,1033.2,1095.6,65.9
100.0,1185.9,1112.6,1016.4,1105.0,85.0
100.5,1160.9,1105.2,954.9,1073.6,106.6
101.0,1170.6,1134.9,936.3,1080.6,126.3
101.5,1175.1,1078.8,921.5,1058.5,128.0
102.0,1123.3,1113.9,928.1,1055.1,110.1
102.5,1086.7,1079.3,846.3,1004.1,136.7
103.0,1088.8,1091.2,831.9,1003.9,149.0
103.5,1088.8,1080.9,837.8,1002.5,142.7
104.0,1047.0,1063.9,797.9,969.6,149.0
104.5,1025.8,1043.7,774.4,948.0,150.5
105.0,999.9,1016.1,761.7,925.9,142.5
105.5,996.8,982.4,740.4,906.5,144.0
106.0,989.3,940.2,709.0,879.5,149.7
106.5,956.8,922.2,669.9,849.6,156.6
107.0,889.9,935.9,650.6,825.4,153.2
107.5,887.0,903.6,619.1,803.2,159.7
108.0,842.0,897.6,610.6,783.4,152.2
108.5,823.7,879.5,572.3,758.5,163.7
109.0,810.8,825.4,548.6,728.3,155.8
109.5,795.0,814.7,525.6,711.8,161.5
110.0,774.4,821.8,522.7,706.3,160.8
110.5,741.6,805.2,486.5,677.8,168.6
111.0,714.0,762.9,479.3,652.1,151.6
111.5,692.0,756.5,451.8,633.4,160.6
112.0,659.5,722.4,425.0,602.3,156.7
112.5,627.4,723.3,400.7,583.8,165.7
113.0,607.2,676.0,384.3,555.8,152.5
113.5,570.9,657.5,368.8,532.4,148.1
114.0,543.9,654.3,343.5,513.9,157.5
114.5,507.7,640.9,319.9,489.5,161.2
115.0,490.4,603.2,301.6,465.1,152.4
115.5,456.5,589.1,280.5,442.0,154.8
116.0,419.2,568.9,259.4,415.8,154.8
116.5,383.8,544.6,236.6,388.3,154.1
117.0,351.6,529.2,,440.4,125.5
117.5,319.9,504.5,,412.2,130.5
118.0,282.4,468.7,,375.5,131.8
118.5,256.7,441.4,,349.0,130.6
119.0,230.6,415.2,,322.9,130.5
119.5,206.5,385.7,,296.1,126.7
120.0,183.9,366.1,,275.0,128.8