Folder: fsri_materials_database/01_Data/PlasticC/Cone (part 2)

File: PlasticC_HRRPUA_75.csv
Time after Ignition,PlasticC_R1,PlasticC_R2,PlasticC_R3,Mean,Std. Dev.
0.0,18.1,20.9,12.0,17.0,4.5
0.5,30.1,26.2,14.7,23.7,8.0
1.0,45.4,41.2,25.9,37.5,10.3
1.5,66.7,52.2,34.6,51.2,16.1
2.0,92.2,61.3,57.9,70.4,18.9
2.5,128.1,84.0,75.8,96.0,28.1
3.0,138.2,99.2,98.3,111.9,22.8
3.5,167.1,132.0,122.5,140.5,23.5
4.0,198.1,157.8,144.0,166.7,28.1
4.5,221.5,188.3,190.8,200.2,18.5
5.0,252.0,219.1,220.5,230.6,18.6
5.5,276.8,247.7,235.6,253.4,21.2
6.0,299.9,280.4,256.1,278.8,21.9
6.5,321.3,329.3,281.6,310.7,25.5
7.0,356.5,344.1,304.2,334.9,27.3
7.5,377.6,384.7,326.4,362.9,31.8
8.0,400.7,397.4,343.1,380.4,32.3
8.5,425.8,427.8,351.9,401.8,43.2
9.0,449.3,454.0,365.2,422.8,50.0
9.5,471.6,481.7,399.7,451.0,44.7
10.0,490.3,488.2,413.5,464.0,43.8
10.5,506.4,522.1,437.2,488.6,45.2
11.0,528.9,538.7,461.8,509.8,41.9
11.5,548.6,571.6,488.1,536.1,43.1
12.0,556.4,558.7,499.7,538.3,33.4
12.5,581.3,596.4,543.6,573.8,27.2
13.0,565.7,611.7,573.3,583.6,24.7
13.5,599.5,623.9,582.6,602.0,20.7
14.0,614.4,628.8,587.8,610.3,20.8
14.5,624.7,669.7,634.8,643.1,23.6
15.0,638.1,676.6,630.1,648.3,24.9
15.5,659.8,658.5,680.0,666.1,12.0
16.0,690.3,715.0,693.1,699.5,13.5
16.5,697.7,706.7,689.3,697.9,8.7
17.0,698.8,718.3,732.6,716.6,17.0
17.5,727.9,738.6,732.9,733.1,5.3
18.0,751.7,766.8,736.3,751.6,15.2
18.5,745.3,749.5,774.5,756.4,15.8
19.0,770.6,757.6,792.5,773.6,17.6
19.5,780.1,777.2,815.0,790.8,21.1
20.0,816.7,793.8,819.2,809.9,14.0
20.5,785.8,810.4,810.9,802.4,14.3
21.0,793.4,849.1,842.1,828.2,30.4
21.5,805.7,815.8,854.9,825.5,26.0
22.0,816.2,850.2,877.6,848.0,30.8
22.5,823.1,857.3,857.7,846.0,19.8
23.0,847.5,874.7,857.9,860.0,13.7
23.5,849.4,881.4,872.5,867.8,16.5
24.0,880.8,897.6,895.4,891.3,9.1
24.5,862.4,903.6,890.4,885.4,21.0
25.0,884.3,901.1,943.6,909.7,30.6
25.5,886.1,904.7,933.3,908.0,23.7
26.0,904.5,956.2,914.3,925.0,27.5
26.5,904.6,902.5,939.1,915.4,20.5
27.0,948.4,921.5,904.2,924.7,22.3
27.5,922.2,932.9,942.0,932.4,9.9
28.0,922.1,950.2,961.8,944.7,20.4
28.5,947.6,976.3,951.2,958.4,15.6
29.0,946.1,972.7,993.2,970.7,23.6
29.5,944.1,950.2,989.6,961.3,24.7
30.0,974.6,1003.3,971.5,983.1,17.5
30.5,971.8,1001.0,949.9,974.3,25.6
31.0,1022.0,1008.2,962.4,997.5,31.2
31.5,997.1,1012.7,1007.0,1005.6,7.9
32.0,1041.0,1022.3,1005.6,1022.9,17.7
32.5,1023.5,1045.7,1000.5,1023.2,22.6
33.0,1057.8,1071.5,1031.6,1053.6,20.3
33.5,1007.7,1050.3,1077.0,1045.0,35.0
34.0,1053.5,1100.7,1113.5,1089.3,31.6
34.5,1061.0,1061.3,1030.8,1051.0,17.5
35.0,1114.5,1104.7,1103.3,1107.5,6.1
35.5,1097.2,1076.8,1113.9,1096.0,18.6
36.0,1098.5,1051.6,1139.2,1096.4,43.8
36.5,1105.9,1098.3,1146.3,1116.8,25.8
37.0,1085.4,1090.7,1099.1,1091.7,6.9
37.5,1103.6,1152.5,1142.3,1132.8,25.8
38.0,1121.2,1088.9,1094.7,1101.6,17.2
38.5,1139.0,1135.4,1107.7,1127.4,17.1
39.0,1126.4,1124.3,1176.7,1142.5,29.7
39.5,1212.5,1137.6,1150.3,1166.8,40.1
40.0,1165.0,1121.6,1141.1,1142.6,21.7
40.5,1143.9,1180.4,1171.6,1165.3,19.0
41.0,1177.0,1169.6,1147.0,1164.5,15.6
41.5,1194.7,1151.3,1228.3,1191.5,38.6
42.0,1241.8,1196.1,1224.7,1220.9,23.1
42.5,1216.1,1208.3,1221.1,1215.2,6.5
43.0,1188.5,1208.1,1161.4,1186.0,23.5
43.5,1208.3,1173.2,1264.6,1215.4,46.1
44.0,1260.8,1206.0,1244.1,1237.0,28.1
44.5,1192.7,1236.9,1189.7,1206.4,26.4
45.0,1215.4,1246.3,1263.0,1241.5,24.2
45.5,1267.2,1257.3,1200.7,1241.7,35.8
46.0,1277.5,1276.7,1264.3,1272.9,7.4
46.5,1351.7,1282.6,1247.9,1294.1,52.9
47.0,1298.3,1304.9,1278.7,1294.0,13.6
47.5,1243.4,1297.6,1299.5,1280.2,31.9
48.0,1330.8,1336.4,1264.0,1310.4,40.3
48.5,1297.7,1316.6,1363.5,1325.9,33.9
49.0,1317.5,1295.6,1266.1,1293.1,25.8
49.5,1293.9,1382.3,1272.5,1316.2,58.2
50.0,1307.1,1324.7,1360.8,1330.9,27.4
50.5,1320.6,1325.7,1403.3,1349.8,46.3
51.0,1351.9,1403.7,1324.3,1360.0,40.3
51.5,1420.6,1395.6,1421.1,1412.4,14.6
52.0,1366.2,1343.7,1397.3,1369.1,26.9
52.5,1445.7,1346.3,1430.3,1407.4,53.5
53.0,1452.9,1456.0,1483.8,1464.2,17.0
53.5,1423.5,1441.5,1430.0,1431.7,9.1
54.0,1385.4,1464.7,1397.2,1415.8,42.8
54.5,1400.3,1359.3,1474.3,1411.3,58.3
55.0,1406.0,1419.9,1551.2,1459.0,80.1
55.5,1353.3,1417.7,1465.0,1412.0,56.1
56.0,1430.8,1406.3,1416.0,1417.7,12.3
56.5,1383.8,1374.4,1550.8,1436.4,99.2
57.0,1347.7,1404.1,1441.6,1397.8,47.3
57.5,1447.9,1338.7,1482.4,1423.0,75.0
58.0,1489.5,1458.6,1598.7,1515.6,73.6
58.5,1489.1,1526.7,1503.9,1506.5,19.0
59.0,1458.3,1397.2,1505.7,1453.7,54.4
59.5,1515.3,1574.5,1554.0,1547.9,30.1
60.0,1454.4,1471.1,1528.7,1484.7,38.9
60.5,1416.7,1446.0,1541.3,1468.0,65.1
61.0,1453.0,1506.2,1571.8,1510.3,59.5
61.5,1411.4,1466.0,1522.1,1466.5,55.4
62.0,1502.9,1492.7,1540.2,1511.9,25.0
62.5,1424.8,1555.3,1578.6,1519.6,82.9
63.0,1528.8,1475.3,1632.3,1545.5,79.8
63.5,1443.0,1522.4,1619.1,1528.1,88.2
64.0,1414.6,1570.9,1596.9,1527.5,98.6
64.5,1492.9,1534.8,1644.3,1557.3,78.2
65.0,1630.3,1513.0,1580.2,1574.5,58.8
65.5,1515.7,1610.9,1616.0,1580.9,56.5
66.0,1451.5,1553.8,1632.6,1546.0,90.8
66.5,1557.6,1530.1,1604.9,1564.2,37.9
67.0,1471.7,1628.8,1567.5,1556.0,79.2
67.5,1531.0,1505.7,1520.9,1519.2,12.7
68.0,1527.9,1437.2,1582.6,1515.9,73.5
68.5,1575.7,1475.9,1581.0,1544.2,59.2
69.0,1583.7,1485.1,1555.8,1541.5,50.9
69.5,1536.4,1665.7,1517.9,1573.3,80.6
70.0,1547.0,1807.4,1631.0,1661.8,132.9
70.5,1576.1,1627.7,1557.4,1587.0,36.4
71.0,1660.4,1571.4,1581.3,1604.4,48.8
71.5,1611.9,1534.7,1532.8,1559.8,45.2
72.0,1571.8,1689.3,1556.8,1606.0,72.6
72.5,1482.4,1530.1,1475.8,1496.1,29.6
73.0,1492.8,1460.6,1529.6,1494.3,34.6
73.5,1569.5,1669.2,1509.4,1582.7,80.7
74.0,1526.5,1535.8,1583.9,1548.7,30.8
74.5,1552.2,1534.1,1437.8,1508.0,61.5
75.0,1530.3,1533.6,1517.8,1527.2,8.3
75.5,1445.2,1620.1,1450.4,1505.2,99.6
76.0,1486.7,1644.3,1434.3,1521.7,109.3
76.5,1571.6,1594.1,1497.7,1554.5,50.4
77.0,1438.8,1606.7,1467.8,1504.4,89.7
77.5,1462.1,1416.0,1361.6,1413.2,50.3
78.0,1456.0,1428.4,1365.8,1416.7,46.2
78.5,1540.3,1522.3,1400.7,1487.8,75.9
79.0,1464.3,1434.6,1357.5,1418.8,55.1
79.5,1507.9,1530.8,1414.3,1484.3,61.7
80.0,1507.6,1499.7,1417.8,1475.0,49.7
80.5,1487.2,1500.2,1403.4,1463.6,52.6
81.0,1490.1,1393.8,1396.8,1426.9,54.8
81.5,1377.7,1468.7,1392.6,1413.0,48.8
82.0,1419.1,1360.2,1327.6,1369.0,46.3
82.5,1399.1,1367.4,1349.5,1372.0,25.1
83.0,1359.6,1355.7,1334.2,1349.8,13.7
83.5,1410.7,1354.2,1278.8,1347.9,66.2
84.0,1360.8,1311.8,1277.7,1316.7,41.8
84.5,1358.5,1251.7,1291.3,1300.5,54.0
85.0,1330.1,1228.5,1233.8,1264.1,57.2
85.5,1273.5,1321.8,1208.6,1268.0,56.8
86.0,1255.5,1245.3,1166.4,1222.4,48.7
86.5,1215.5,1196.0,1182.2,1197.9,16.7
87.0,1203.2,1202.4,1192.2,1199.3,6.1
87.5,1173.3,1167.7,1124.9,1155.3,26.5
88.0,1142.9,1150.9,1115.5,1136.4,18.6
88.5,1123.2,1109.4,1087.6,1106.8,17.9
89.0,1093.2,1073.0,1049.4,1071.9,21.9
89.5,1093.5,1005.8,1010.2,1036.5,49.4
90.0,1032.5,1008.1,966.5,1002.4,33.4
90.5,1007.1,951.0,957.4,971.8,30.7
91.0,956.6,912.7,911.7,927.0,25.6
91.5,900.2,846.2,876.8,874.4,27.1
92.0,862.2,810.4,842.0,838.2,26.1
92.5,818.4,758.4,829.1,802.0,38.1
93.0,775.7,751.5,765.2,764.1,12.1
93.5,753.9,712.2,759.9,742.0,26.0
94.0,726.2,675.2,723.8,708.4,28.8
94.5,677.8,639.0,698.8,671.9,30.3
95.0,637.5,601.5,665.9,634.9,32.3
95.5,598.0,569.0,623.5,596.8,27.3
96.0,565.8,527.6,589.5,561.0,31.2
96.5,525.2,483.7,552.6,520.5,34.7
97.0,489.5,440.7,523.9,484.7,41.8
97.5,448.6,401.9,484.5,445.0,41.4
98.0,419.8,356.8,448.2,408.3,46.8
98.5,379.8,323.0,419.5,374.1,48.5
99.0,347.6,289.7,396.9,344.7,53.7
99.5,325.1,261.9,,293.5,44.7
100.0,294.3,,,294.3,
100.5,268.3,,,268.3,
101.0,239.3,,,239.3,
101.5,220.1,,,220.1,
101.75,208.4,,,208.4,