Folder: fsri_materials_database/01_Data/Hemp_Sheet/FTIR/IS

Note: README.md
# Materials and Products Database
### Repository of materials and products properties and fire test data to improve fire modeling and fire investigation.

This project was supported in part by Award No. 2019-DU-BX-0018, awarded by the National Institute of Justice, Office of Justice Programs, U.S. Department of Justice. The opinions, findings, and conclusions or recommendations expressed in this publication / program / exhibition are those of the author(s) and do not necessarily reflect those of the Department of Justice.

***
***

__Cite this database:__ "McKinnon, M., Weinschenk, C., Dow, N., DiDomizio, M., and Madrzykowski, D. Materials and Products Database (Version 1.0.0), Fire Safety Research Institute, UL Research Institutes. Columbia, MD 21045, 2023."

__Cite the Technical Reference Guide:__ "McKinnon, M., Weinschenk, C., and Madrzykowski, D. Materials and Products Database - Technical Reference Guide, Fire Safety Research Institute, UL Research Institutes. Columbia, MD 21045, 2023."

__Cite the User Guide:__ "McKinnon, M., and Weinschenk, C. Materials and Products Database - User Guide, Fire Safety Research Institute, UL Research Institutes. Columbia, MD 21045, 2023."

***
***

## Database Structure

## 01_Data/
Raw data generated from each apparatus are included here in plain-text format. The data is organized first by material, next by the short name of test apparatus used, and where applicable additional filtering by test settings.

### Test Apparatus and Data File Structure
- __Cone Calorimeter__ (Cone)
    + Data file structure includes the material, the short name for the apparatus, heat flux setting and scan/scalar, date of test, and replicate number. Scan is for the raw output data and scalar is for the initial conditions and high-level test parameters. 
        * Example: __MDF_Cone_HF25scalar_210323_R1__ stands for the first replicate of scalar data generated from a medium density fiber board test in cone calorimeter exposed to 25 kW/m<sup>2</sup> on March 23, 2021.
    + A _Cone_Notes.csv_ is generated for each material from the __plot_Cone_data.py__ script. For materials whose experiments deviated from typical behavior relevant pictures are included in the respective material directory.
- __Fourier Transform Infrared Spectrometer__ (FTIR)
    + The FTIR directory contains subdirectories for the Attenuated Total Reflectance method (ATR) and the Integrating Sphere (IS)
    + Data file structure for the ATR experiment files includes the material, the abbreviated name for the apparatus, date of test, and replicate number. 
        * Example: __MDF_ATR_210323_R5__ stands for the fifth replicate of data collected with the ATR accessory conducted on June 8, 2021.
    + Data file structure for the IS experiment files includes the material, the abbreviated name for the apparatus, the measurand, whether the test is a sample measurement or standard reference, date of test, and replicate number.
        * Example: __OSB_IS_REFLECT_MEAS_2

File: Hemp_Sheet_IS_S_220909_R1.dpt
7497.03,0.57133
7473.89,0.57550
7450.74,0.57077
7427.6,0.56957
7404.45,0.56728
7381.31,0.55303
7358.16,0.55777
7335.02,0.55619
7311.87,0.55224
7288.73,0.55636
7265.58,0.55512
7242.44,0.56354
7219.29,0.54888
7196.15,0.55802
7173,0.55881
7149.86,0.54512
7126.71,0.54963
7103.57,0.53503
7080.42,0.53494
7057.28,0.52639
7034.13,0.52226
7010.99,0.50536
6987.84,0.50479
6964.7,0.49146
6941.55,0.49694
6918.41,0.49011
6895.26,0.48792
6872.12,0.47786
6848.97,0.48339
6825.83,0.47943
6802.68,0.47010
6779.54,0.46925
6756.39,0.46308
6733.25,0.45693
6710.1,0.46350
6686.96,0.46136
6663.82,0.46068
6640.67,0.46544
6617.53,0.46728
6594.38,0.47115
6571.24,0.47210
6548.09,0.47152
6524.95,0.47210
6501.8,0.46860
6478.66,0.46936
6455.51,0.46991
6432.37,0.47446
6409.22,0.47325
6386.08,0.47538
6362.93,0.47654
6339.79,0.47621
6316.64,0.48188
6293.5,0.47890
6270.35,0.48382
6247.21,0.48866
6224.06,0.49596
6200.92,0.50357
6177.77,0.50699
6154.63,0.51427
6131.48,0.51729
6108.34,0.52396
6085.19,0.52729
6062.05,0.52591
6038.9,0.53253
6015.76,0.53671
5992.61,0.53657
5969.47,0.53674
5946.32,0.53705
5923.18,0.53351
5900.03,0.53497
5876.89,0.52738
5853.74,0.52548
5830.6,0.52667
5807.45,0.52463
5784.31,0.52377
5761.16,0.52361
5738.02,0.52129
5714.87,0.52039
5691.73,0.52014
5668.58,0.51752
5645.44,0.51663
5622.29,0.51753
5599.15,0.51815
5576,0.51971
5552.86,0.51934
5529.71,0.51969
5506.57,0.51976
5483.42,0.51862
5460.28,0.51972
5437.13,0.52291
5413.99,0.52684
5390.84,0.52821
5367.7,0.52811
5344.55,0.52925
5321.41,0.52393
5298.26,0.51533
5275.12,0.49922
5251.97,0.47582
5228.83,0.45466
5205.68,0.44268
5182.54,0.43747
5159.39,0.43971
5136.25,0.44506
5113.1,0.45383
5089.96,0.46056
5066.81,0.46847
5043.67,0.47345
5020.52,0.47796
4997.38,0.48016
4974.23,0.47817
4951.09,0.47164
4927.94,0.45806
4904.8,0.44203
4881.65,0.42029
4858.51,0.40097
4835.36,0.38439
4812.22,0.36891
4789.07,0.36183
4765.93,0.35501
4742.78,0.35419
4719.64,0.36034
4696.49,0.36837
4673.35,0.37867
4650.2,0.38837
4627.06,0.39596
4603.92,0.40464
4580.77,0.41292
4557.63,0.42232
4534.48,0.42936
4511.34,0.43463
4488.19,0.43608
4465.05,0.43169
4441.9,0.41415
4418.76,0.38178
4395.61,0.35957
4372.47,0.37169
4349.32,0.37029
4326.18,0.35938
4303.03,0.34919
4279.89,0.33922
4256.74,0.34074
4233.6,0.34336
4210.45,0.34523
4187.31,0.35098
4164.16,0.35408
4141.02,0.34984
4117.87,0.33998
4094.73,0.31692
4071.58,0.29523
4048.44,0.26785
4025.29,0.25231
4002.15,0.25937
3979,0.26958
3955.86,0.27797
3932.71,0.28996
3909.57,0.29834
3886.42,0.30712
3863.28,0.31571
3840.13,0.32689
3816.99,0.32858
3793.84,0.32762
3770.7,0.32553
3747.55,0.32185
3724.41,0.30718
3701.26,0.28270
3678.12,0.23987
3654.97,0.17703
3631.83,0.12453
3608.68,0.08878
3585.54,0.06502
3562.39,0.05111
3539.25,0.04188
3516.1,0.03547
3492.96,0.03156
3469.81,0.02909
3446.67,0.02823
3423.52,0.02812
3400.38,0.02805
3377.23,0.02953
3354.09,0.02959
3330.94,0.03393
3307.8,0.03475
3284.65,0.03614
3261.51,0.03969
3238.36,0.04098
3215.22,0.04528
3192.07,0.04914
3168.93,0.05432
3145.78,0.06105
3122.64,0.06869
3099.49,0.07757
3076.35,0.08599
3053.2,0.09510
3030.06,0.10279
3006.91,0.10721
2983.77,0.09476
2960.62,0.06447
2937.48,0.05633
2914.33,0.04838
2891.19,0.04936
2868.04,0.05317
2844.9,0.06378
2821.75,0.08330
2798.61,0.09943
2775.46,0.10425
2752.32,0.10723
2729.17,0.10790
2706.03,0.11549
2682.88,0.12786
2659.74,0.13615
2636.59,0.14443
2613.45,0.15280
2590.3,0.15823
2567.16,0.15858
2544.02,0.15518
2520.87,0.15803
2497.73,0.16942
2474.58,0.18076
2451.44,0.18785
2428.29,0.19949
2405.15,0.21040
2382,0.22038
2358.86,0.23071
2335.71,0.23879
2312.57,0.24274
2289.42,0.23865
2266.28,0.22975
2243.13,0.21942
2219.99,0.22001
2196.84,0.22172
2173.7,0.20648
2150.55,0.19183
2127.41,0.18881
2104.26,0.19940
2081.12,0.20606
2057.97,0.20540
2034.83,0.21048
2011.68,0.23098
1988.54,0.24031
1965.39,0.24700
1942.25,0.25913
1919.1,0.27078
1895.96,0.27331
1872.81,0.27044
1849.67,0.26273
1826.52,0.25197
1803.38,0.23936
1780.23,0.22442
1757.09,0.20525
1733.94,0.18360
1710.8,0.16468
1687.65,0.13420
1664.51,0.09836
1641.36,0.08679
1618.22,0.09313
1595.07,0.10222
1571.93,0.11787
1548.78,0.12211
1525.64,0.11689
1502.49,0.09732
1479.35,0.06215
1456.2,0.04184
1433.06,0.03428
1409.91,0.04416
1386.77,0.03787
1363.62,0.03295
1340.48,0.03401
1317.33,0.03449
1294.19,0.04181
1271.04,0.04114
1247.9,0.03958
1224.75,0.04128
1201.61,0.03014
1178.46,0.02645
1155.32,0.03557
1132.17,0.02241
1109.03,0.03484
1085.88,0.03057
1062.74,0.06819
1039.59,0.05543
1016.45,0.05815
993.304,0.06019
970.159,0.08371
947.014,0.11009
923.869,0.11374
900.724,0.08672
877.579,0.10753
854.434,0.11549
831.289,0.10208
808.144,0.07728
784.999,0.07843
761.854,0.06941
738.709,0.05658
715.565,0.04495
692.42,0.04665
669.275,0.04559
646.13,0.04382
622.985,0.03896
599.84,0.04511

File: Hemp_Sheet_IS_S_220909_R2.dpt
7497.03,0.57613
7473.89,0.58478
7450.74,0.57424
7427.6,0.57193
7404.45,0.56677
7381.31,0.57006
7358.16,0.56586
7335.02,0.55730
7311.87,0.56135
7288.73,0.55424
7265.58,0.55266
7242.44,0.54937
7219.29,0.55492
7196.15,0.56284
7173,0.55290
7149.86,0.54917
7126.71,0.54667
7103.57,0.54979
7080.42,0.53390
7057.28,0.52530
7034.13,0.52056
7010.99,0.50785
6987.84,0.50477
6964.7,0.50114
6941.55,0.49843
6918.41,0.48996
6895.26,0.49310
6872.12,0.48931
6848.97,0.48427
6825.83,0.47840
6802.68,0.47566
6779.54,0.46788
6756.39,0.46248
6733.25,0.45948
6710.1,0.46280
6686.96,0.46183
6663.82,0.46426
6640.67,0.46681
6617.53,0.46761
6594.38,0.46847
6571.24,0.47519
6548.09,0.47087
6524.95,0.47030
6501.8,0.47238
6478.66,0.46892
6455.51,0.47566
6432.37,0.47245
6409.22,0.47407
6386.08,0.47769
6362.93,0.47976
6339.79,0.47817
6316.64,0.48129
6293.5,0.48178
6270.35,0.48441
6247.21,0.49331
6224.06,0.49814
6200.92,0.50329
6177.77,0.50494
6154.63,0.51684
6131.48,0.52138
6108.34,0.52587
6085.19,0.52852
6062.05,0.53081
6038.9,0.53535
6015.76,0.53651
5992.61,0.53549
5969.47,0.53942
5946.32,0.54030
5923.18,0.53648
5900.03,0.53347
5876.89,0.53010
5853.74,0.52827
5830.6,0.52687
5807.45,0.52612
5784.31,0.52343
5761.16,0.52518
5738.02,0.52284
5714.87,0.52113
5691.73,0.51959
5668.58,0.51843
5645.44,0.51902
5622.29,0.51744
5599.15,0.51619
5576,0.51905
5552.86,0.52030
5529.71,0.51815
5506.57,0.51927
5483.42,0.51956
5460.28,0.52048
5437.13,0.52333
5413.99,0.52586
5390.84,0.52833
5367.7,0.52922
5344.55,0.52949
5321.41,0.52538
5298.26,0.51905
5275.12,0.50418
5251.97,0.48534
5228.83,0.46454
5205.68,0.45347
5182.54,0.44902
5159.39,0.45279
5136.25,0.45734
5113.1,0.46565
5089.96,0.47073
5066.81,0.47747
5043.67,0.48226
5020.52,0.48590
4997.38,0.48730
4974.23,0.48395
4951.09,0.47550
4927.94,0.46113
4904.8,0.44266
4881.65,0.42135
4858.51,0.40114
4835.36,0.38574
4812.22,0.36900
4789.07,0.36071
4765.93,0.35515
4742.78,0.35474
4719.64,0.36060
4696.49,0.36928
4673.35,0.37948
4650.2,0.38855
4627.06,0.39644
4603.92,0.40502
4580.77,0.41403
4557.63,0.42405
4534.48,0.43041
4511.34,0.43455
4488.19,0.43585
4465.05,0.43240
4441.9,0.41411
4418.76,0.38232
4395.61,0.36040
4372.47,0.37142
4349.32,0.36997
4326.18,0.36013
4303.03,0.34980
4279.89,0.34016
4256.74,0.34029
4233.6,0.34387
4210.45,0.34608
4187.31,0.35137
4164.16,0.35499
4141.02,0.35133
4117.87,0.34099
4094.73,0.31847
4071.58,0.29594
4048.44,0.26891
4025.29,0.25438
4002.15,0.25962
3979,0.27101
3955.86,0.27964
3932.71,0.29084
3909.57,0.30022
3886.42,0.30790
3863.28,0.31642
3840.13,0.32864
3816.99,0.32992
3793.84,0.33063
3770.7,0.32908
3747.55,0.32520
3724.41,0.31291
3701.26,0.28964
3678.12,0.24960
3654.97,0.18791
3631.83,0.13536
3608.68,0.09601
3585.54,0.07001
3562.39,0.05341
3539.25,0.04364
3516.1,0.03635
3492.96,0.03179
3469.81,0.02904
3446.67,0.02780
3423.52,0.02807
3400.38,0.02851
3377.23,0.02899
3354.09,0.02985
3330.94,0.03490
3307.8,0.03472
3284.65,0.03637
3261.51,0.03921
3238.36,0.04228
3215.22,0.04564
3192.07,0.05036
3168.93,0.05641
3145.78,0.06363
3122.64,0.07193
3099.49,0.08108
3076.35,0.09007
3053.2,0.09915
3030.06,0.10677
3006.91,0.11099
2983.77,0.09678
2960.62,0.06512
2937.48,0.05607
2914.33,0.04781
2891.19,0.04920
2868.04,0.05289
2844.9,0.06403
2821.75,0.08362
2798.61,0.09964
2775.46,0.10553
2752.32,0.10802
2729.17,0.10860
2706.03,0.11615
2682.88,0.12929
2659.74,0.13648
2636.59,0.14568
2613.45,0.15305
2590.3,0.15867
2567.16,0.15944
2544.02,0.15581
2520.87,0.15853
2497.73,0.16986
2474.58,0.18134
2451.44,0.18914
2428.29,0.20045
2405.15,0.21140
2382,0.22163
2358.86,0.23153
2335.71,0.24029
2312.57,0.24534
2289.42,0.24189
2266.28,0.23292
2243.13,0.22242
2219.99,0.22376
2196.84,0.22571
2173.7,0.21007
2150.55,0.19535
2127.41,0.19245
2104.26,0.20323
2081.12,0.21024
2057.97,0.20878
2034.83,0.21454
2011.68,0.23502
1988.54,0.24443
1965.39,0.25098
1942.25,0.26334
1919.1,0.27480
1895.96,0.27739
1872.81,0.27446
1849.67,0.26668
1826.52,0.25598
1803.38,0.24334
1780.23,0.22826
1757.09,0.20939
1733.94,0.18782
1710.8,0.17132
1687.65,0.14254
1664.51,0.10581
1641.36,0.09306
1618.22,0.09796
1595.07,0.10588
1571.93,0.12125
1548.78,0.12517
1525.64,0.11916
1502.49,0.09845
1479.35,0.06257
1456.2,0.04179
1433.06,0.03404
1409.91,0.04395
1386.77,0.03788
1363.62,0.03298
1340.48,0.03387
1317.33,0.03466
1294.19,0.04151
1271.04,0.04086
1247.9,0.03903
1224.75,0.04048
1201.61,0.02993
1178.46,0.02643
1155.32,0.03562
1132.17,0.02191
1109.03,0.03483
1085.88,0.03137
1062.74,0.06837
1039.59,0.05611
1016.45,0.05855
993.304,0.06052
970.159,0.08379
947.014,0.11126
923.869,0.11490
900.724,0.08804
877.579,0.10913
854.434,0.12001
831.289,0.10570
808.144,0.08064
784.999,0.08248
761.854,0.07229
738.709,0.05806
715.565,0.04772
692.42,0.04789
669.275,0.04627
646.13,0.04348
622.985,0.04068
599.84,0.04579

File: Hemp_Sheet_IS_S_220909_R3.dpt
7497.03,0.57400
7473.89,0.57711
7450.74,0.57147
7427.6,0.57303
7404.45,0.56671
7381.31,0.56825
7358.16,0.56991
7335.02,0.55845
7311.87,0.56161
7288.73,0.55350
7265.58,0.55503
7242.44,0.55330
7219.29,0.55935
7196.15,0.55603
7173,0.55527
7149.86,0.55390
7126.71,0.54584
7103.57,0.54668
7080.42,0.53884
7057.28,0.52903
7034.13,0.51939
7010.99,0.50483
6987.84,0.49830
6964.7,0.49960
6941.55,0.49178
6918.41,0.48510
6895.26,0.48156
6872.12,0.48366
6848.97,0.48190
6825.83,0.47096
6802.68,0.47256
6779.54,0.47091
6756.39,0.46351
6733.25,0.46424
6710.1,0.46463
6686.96,0.45950
6663.82,0.46846
6640.67,0.46497
6617.53,0.46845
6594.38,0.47371
6571.24,0.47444
6548.09,0.47888
6524.95,0.47092
6501.8,0.47334
6478.66,0.47269
6455.51,0.47180
6432.37,0.47501
6409.22,0.47890
6386.08,0.47930
6362.93,0.47822
6339.79,0.47988
6316.64,0.48002
6293.5,0.48371
6270.35,0.48917
6247.21,0.48931
6224.06,0.49804
6200.92,0.50322
6177.77,0.51032
6154.63,0.51393
6131.48,0.51693
6108.34,0.52406
6085.19,0.52746
6062.05,0.53211
6038.9,0.53347
6015.76,0.53509
5992.61,0.54033
5969.47,0.54082
5946.32,0.54071
5923.18,0.53508
5900.03,0.53515
5876.89,0.52907
5853.74,0.52929
5830.6,0.52891
5807.45,0.52784
5784.31,0.52530
5761.16,0.52429
5738.02,0.52470
5714.87,0.52327
5691.73,0.52147
5668.58,0.52121
5645.44,0.51931
5622.29,0.51659
5599.15,0.51883
5576,0.52002
5552.86,0.52006
5529.71,0.52177
5506.57,0.51757
5483.42,0.52083
5460.28,0.52029
5437.13,0.52424
5413.99,0.52718
5390.84,0.52998
5367.7,0.53195
5344.55,0.53266
5321.41,0.52727
5298.26,0.52016
5275.12,0.50793
5251.97,0.48837
5228.83,0.47100
5205.68,0.45893
5182.54,0.45713
5159.39,0.45817
5136.25,0.46521
5113.1,0.47164
5089.96,0.47643
5066.81,0.48241
5043.67,0.48700
5020.52,0.49057
4997.38,0.49142
4974.23,0.48672
4951.09,0.47867
4927.94,0.46261
4904.8,0.44546
4881.65,0.42191
4858.51,0.40262
4835.36,0.38628
4812.22,0.37035
4789.07,0.36192
4765.93,0.35650
4742.78,0.35560
4719.64,0.36191
4696.49,0.37000
4673.35,0.38100
4650.2,0.38869
4627.06,0.39773
4603.92,0.40609
4580.77,0.41462
4557.63,0.42473
4534.48,0.43120
4511.34,0.43610
4488.19,0.43724
4465.05,0.43339
4441.9,0.41635
4418.76,0.38386
4395.61,0.36141
4372.47,0.37193
4349.32,0.37061
4326.18,0.36042
4303.03,0.35018
4279.89,0.34072
4256.74,0.34222
4233.6,0.34498
4210.45,0.34672
4187.31,0.35316
4164.16,0.35641
4141.02,0.35228
4117.87,0.34224
4094.73,0.32026
4071.58,0.29647
4048.44,0.27059
4025.29,0.25439
4002.15,0.26085
3979,0.27087
3955.86,0.28070
3932.71,0.29271
3909.57,0.30150
3886.42,0.30910
3863.28,0.31802
3840.13,0.32971
3816.99,0.33216
3793.84,0.33344
3770.7,0.33202
3747.55,0.32789
3724.41,0.31588
3701.26,0.29380
3678.12,0.25457
3654.97,0.19296
3631.83,0.13979
3608.68,0.09910
3585.54,0.07140
3562.39,0.05479
3539.25,0.04416
3516.1,0.03589
3492.96,0.03125
3469.81,0.02895
3446.67,0.02805
3423.52,0.02795
3400.38,0.02845
3377.23,0.02888
3354.09,0.02969
3330.94,0.03394
3307.8,0.03511
3284.65,0.03621
3261.51,0.03942
3238.36,0.04242
3215.22,0.04613
3192.07,0.05105
3168.93,0.05751
3145.78,0.06457
3122.64,0.07188
3099.49,0.08226
3076.35,0.09209
3053.2,0.10139
3030.06,0.10883
3006.91,0.11243
2983.77,0.09771
2960.62,0.06492
2937.48,0.05676
2914.33,0.04824
2891.19,0.04914
2868.04,0.05320
2844.9,0.06430
2821.75,0.08402
2798.61,0.10022
2775.46,0.10648
2752.32,0.10832
2729.17,0.10946
2706.03,0.11624
2682.88,0.12923
2659.74,0.13699
2636.59,0.14567
2613.45,0.15332
2590.3,0.15956
2567.16,0.15967
2544.02,0.15636
2520.87,0.15945
2497.73,0.17094
2474.58,0.18215
2451.44,0.18927
2428.29,0.20175
2405.15,0.21276
2382,0.22266
2358.86,0.23335
2335.71,0.24173
2312.57,0.24701
2289.42,0.24313
2266.28,0.23472
2243.13,0.22415
2219.99,0.22567
2196.84,0.22815
2173.7,0.21216
2150.55,0.19705
2127.41,0.19447
2104.26,0.20496
2081.12,0.21217
2057.97,0.21080
2034.83,0.21645
2011.68,0.23706
1988.54,0.24675
1965.39,0.25352
1942.25,0.26528
1919.1,0.27782
1895.96,0.27989
1872.81,0.27706
1849.67,0.26924
1826.52,0.25807
1803.38,0.24546
1780.23,0.23044
1757.09,0.21173
1733.94,0.19029
1710.8,0.17477
1687.65,0.14644
1664.51,0.10958
1641.36,0.09615
1618.22,0.10006
1595.07,0.10722
1571.93,0.12314
1548.78,0.12652
1525.64,0.12120
1502.49,0.09926
1479.35,0.06325
1456.2,0.04179
1433.06,0.03453
1409.91,0.04395
1386.77,0.03806
1363.62,0.03285
1340.48,0.03363
1317.33,0.03429
1294.19,0.04111
1271.04,0.04103
1247.9,0.03976
1224.75,0.04042
1201.61,0.02991
1178.46,0.02614
1155.32,0.03574
1132.17,0.02237
1109.03,0.03452
1085.88,0.03077
1062.74,0.06788
1039.59,0.05594
1016.45,0.05846
993.304,0.06018
970.159,0.08348
947.014,0.11110
923.869,0.11541
900.724,0.08890
877.579,0.11098
854.434,0.12185
831.289,0.10817
808.144,0.08167
784.999,0.08348
761.854,0.07446
738.709,0.06038
715.565,0.04684
692.42,0.04709
669.275,0.04563
646.13,0.04443
622.985,0.03917
599.84,0.04794

File: Hemp_Sheet_IS_S_220909_R4.dpt
7497.03,0.57710
7473.89,0.57283
7450.74,0.56450
7427.6,0.56163
7404.45,0.56741
7381.31,0.56746
7358.16,0.55807
7335.02,0.55493
7311.87,0.55859
7288.73,0.55804
7265.58,0.55061
7242.44,0.55415
7219.29,0.56208
7196.15,0.56059
7173,0.55732
7149.86,0.55176
7126.71,0.54372
7103.57,0.53657
7080.42,0.53416
7057.28,0.53313
7034.13,0.52225
7010.99,0.50448
6987.84,0.50251
6964.7,0.49032
6941.55,0.49895
6918.41,0.48720
6895.26,0.48817
6872.12,0.48784
6848.97,0.47953
6825.83,0.47940
6802.68,0.47432
6779.54,0.46775
6756.39,0.46931
6733.25,0.46214
6710.1,0.45904
6686.96,0.45648
6663.82,0.46483
6640.67,0.46544
6617.53,0.46970
6594.38,0.47241
6571.24,0.47412
6548.09,0.47756
6524.95,0.47507
6501.8,0.47247
6478.66,0.47197
6455.51,0.47611
6432.37,0.47509
6409.22,0.47641
6386.08,0.47896
6362.93,0.48013
6339.79,0.47586
6316.64,0.48207
6293.5,0.48262
6270.35,0.48651
6247.21,0.49043
6224.06,0.49957
6200.92,0.50361
6177.77,0.50904
6154.63,0.51216
6131.48,0.52029
6108.34,0.52371
6085.19,0.52640
6062.05,0.52840
6038.9,0.53361
6015.76,0.53803
5992.61,0.53894
5969.47,0.53918
5946.32,0.53995
5923.18,0.53836
5900.03,0.53379
5876.89,0.52983
5853.74,0.52741
5830.6,0.52841
5807.45,0.52767
5784.31,0.52521
5761.16,0.52404
5738.02,0.52289
5714.87,0.52453
5691.73,0.52323
5668.58,0.51799
5645.44,0.51816
5622.29,0.51845
5599.15,0.51714
5576,0.51961
5552.86,0.52061
5529.71,0.52151
5506.57,0.51983
5483.42,0.51975
5460.28,0.52058
5437.13,0.52339
5413.99,0.52688
5390.84,0.52967
5367.7,0.53053
5344.55,0.52843
5321.41,0.52780
5298.26,0.52064
5275.12,0.50957
5251.97,0.48960
5228.83,0.47230
5205.68,0.46127
5182.54,0.45819
5159.39,0.46002
5136.25,0.46512
5113.1,0.47260
5089.96,0.47936
5066.81,0.48574
5043.67,0.48971
5020.52,0.49183
4997.38,0.49127
4974.23,0.48668
4951.09,0.47745
4927.94,0.46309
4904.8,0.44437
4881.65,0.42268
4858.51,0.40109
4835.36,0.38485
4812.22,0.36882
4789.07,0.36165
4765.93,0.35535
4742.78,0.35509
4719.64,0.36257
4696.49,0.36987
4673.35,0.37957
4650.2,0.38862
4627.06,0.39815
4603.92,0.40609
4580.77,0.41501
4557.63,0.42412
4534.48,0.43115
4511.34,0.43543
4488.19,0.43584
4465.05,0.43311
4441.9,0.41460
4418.76,0.38398
4395.61,0.36131
4372.47,0.37210
4349.32,0.37052
4326.18,0.36018
4303.03,0.34962
4279.89,0.34035
4256.74,0.34066
4233.6,0.34478
4210.45,0.34669
4187.31,0.35303
4164.16,0.35610
4141.02,0.35224
4117.87,0.34226
4094.73,0.32085
4071.58,0.29672
4048.44,0.26958
4025.29,0.25466
4002.15,0.26032
3979,0.27158
3955.86,0.28035
3932.71,0.29167
3909.57,0.30101
3886.42,0.30945
3863.28,0.31873
3840.13,0.32971
3816.99,0.33265
3793.84,0.33387
3770.7,0.33252
3747.55,0.32842
3724.41,0.31690
3701.26,0.29532
3678.12,0.25661
3654.97,0.19628
3631.83,0.14329
3608.68,0.10077
3585.54,0.07306
3562.39,0.05559
3539.25,0.04429
3516.1,0.03643
3492.96,0.03089
3469.81,0.02908
3446.67,0.02850
3423.52,0.02784
3400.38,0.02786
3377.23,0.02887
3354.09,0.03043
3330.94,0.03443
3307.8,0.03435
3284.65,0.03659
3261.51,0.03942
3238.36,0.04245
3215.22,0.04596
3192.07,0.05094
3168.93,0.05820
3145.78,0.06554
3122.64,0.07365
3099.49,0.08312
3076.35,0.09254
3053.2,0.10221
3030.06,0.11009
3006.91,0.11356
2983.77,0.09839
2960.62,0.06511
2937.48,0.05627
2914.33,0.04844
2891.19,0.04911
2868.04,0.05295
2844.9,0.06430
2821.75,0.08397
2798.61,0.10055
2775.46,0.10635
2752.32,0.10859
2729.17,0.10956
2706.03,0.11663
2682.88,0.12954
2659.74,0.13709
2636.59,0.14562
2613.45,0.15395
2590.3,0.15921
2567.16,0.16013
2544.02,0.15675
2520.87,0.15905
2497.73,0.17082
2474.58,0.18195
2451.44,0.18946
2428.29,0.20136
2405.15,0.21278
2382,0.22259
2358.86,0.23333
2335.71,0.24214
2312.57,0.24714
2289.42,0.24333
2266.28,0.23530
2243.13,0.22445
2219.99,0.22592
2196.84,0.22874
2173.7,0.21271
2150.55,0.19782
2127.41,0.19481
2104.26,0.20584
2081.12,0.21321
2057.97,0.21158
2034.83,0.21682
2011.68,0.23771
1988.54,0.24732
1965.39,0.25403
1942.25,0.26585
1919.1,0.27791
1895.96,0.28062
1872.81,0.27778
1849.67,0.26934
1826.52,0.25909
1803.38,0.24617
1780.23,0.23139
1757.09,0.21220
1733.94,0.19109
1710.8,0.17577
1687.65,0.14833
1664.51,0.11097
1641.36,0.09774
1618.22,0.10100
1595.07,0.10768
1571.93,0.12330
1548.78,0.12705
1525.64,0.12101
1502.49,0.09960
1479.35,0.06354
1456.2,0.04139
1433.06,0.03429
1409.91,0.04389
1386.77,0.03787
1363.62,0.03321
1340.48,0.03345
1317.33,0.03447
1294.19,0.04164
1271.04,0.04093
1247.9,0.03922
1224.75,0.04034
1201.61,0.02988
1178.46,0.02659
1155.32,0.03553
1132.17,0.02249
1109.03,0.03464
1085.88,0.03108
1062.74,0.06798
1039.59,0.05654
1016.45,0.05793
993.304,0.05986
970.159,0.08366
947.014,0.11149
923.869,0.11524
900.724,0.08906
877.579,0.11104
854.434,0.12251
831.289,0.10941
808.144,0.08384
784.999,0.08400
761.854,0.07423
738.709,0.06001
715.565,0.04760
692.42,0.04850
669.275,0.04614
646.13,0.04634
622.985,0.04072
599.84,0.04453