Folder: fsri_materials_database/01_Data/Hemp_Sheet/FTIR/IS (part 2)

File: Hemp_Sheet_IS_S_220909_R5.dpt
7497.03,0.57423
7473.89,0.57735
7450.74,0.56929
7427.6,0.57114
7404.45,0.56935
7381.31,0.57456
7358.16,0.56656
7335.02,0.55173
7311.87,0.56221
7288.73,0.55614
7265.58,0.55467
7242.44,0.55840
7219.29,0.55222
7196.15,0.55453
7173,0.55405
7149.86,0.55313
7126.71,0.54642
7103.57,0.55174
7080.42,0.53461
7057.28,0.52892
7034.13,0.51997
7010.99,0.50455
6987.84,0.50190
6964.7,0.50151
6941.55,0.49326
6918.41,0.48771
6895.26,0.48457
6872.12,0.48867
6848.97,0.48386
6825.83,0.48261
6802.68,0.47311
6779.54,0.46909
6756.39,0.46360
6733.25,0.46281
6710.1,0.46019
6686.96,0.46116
6663.82,0.46579
6640.67,0.47006
6617.53,0.46922
6594.38,0.46989
6571.24,0.46837
6548.09,0.47553
6524.95,0.47572
6501.8,0.47139
6478.66,0.47407
6455.51,0.47083
6432.37,0.47625
6409.22,0.47319
6386.08,0.47707
6362.93,0.47911
6339.79,0.48045
6316.64,0.48101
6293.5,0.48359
6270.35,0.48575
6247.21,0.49488
6224.06,0.50122
6200.92,0.50437
6177.77,0.51232
6154.63,0.51302
6131.48,0.52053
6108.34,0.52409
6085.19,0.53007
6062.05,0.53308
6038.9,0.53589
6015.76,0.53991
5992.61,0.54011
5969.47,0.54071
5946.32,0.54037
5923.18,0.53669
5900.03,0.53663
5876.89,0.52810
5853.74,0.52772
5830.6,0.52861
5807.45,0.52797
5784.31,0.52367
5761.16,0.52395
5738.02,0.52461
5714.87,0.52171
5691.73,0.52047
5668.58,0.51991
5645.44,0.51867
5622.29,0.51892
5599.15,0.51959
5576,0.52032
5552.86,0.52159
5529.71,0.52158
5506.57,0.52027
5483.42,0.51911
5460.28,0.52047
5437.13,0.52560
5413.99,0.52720
5390.84,0.52997
5367.7,0.53094
5344.55,0.53020
5321.41,0.52862
5298.26,0.52196
5275.12,0.50922
5251.97,0.49283
5228.83,0.47752
5205.68,0.46561
5182.54,0.46267
5159.39,0.46540
5136.25,0.47033
5113.1,0.47594
5089.96,0.48176
5066.81,0.48782
5043.67,0.49146
5020.52,0.49239
4997.38,0.49309
4974.23,0.48932
4951.09,0.47860
4927.94,0.46439
4904.8,0.44384
4881.65,0.42236
4858.51,0.40258
4835.36,0.38546
4812.22,0.36896
4789.07,0.36136
4765.93,0.35740
4742.78,0.35596
4719.64,0.36167
4696.49,0.37019
4673.35,0.38046
4650.2,0.38905
4627.06,0.39713
4603.92,0.40607
4580.77,0.41510
4557.63,0.42425
4534.48,0.43121
4511.34,0.43734
4488.19,0.43752
4465.05,0.43393
4441.9,0.41546
4418.76,0.38278
4395.61,0.36155
4372.47,0.37253
4349.32,0.37058
4326.18,0.36063
4303.03,0.34984
4279.89,0.34022
4256.74,0.34134
4233.6,0.34470
4210.45,0.34693
4187.31,0.35390
4164.16,0.35715
4141.02,0.35254
4117.87,0.34246
4094.73,0.32004
4071.58,0.29661
4048.44,0.26963
4025.29,0.25497
4002.15,0.26184
3979,0.27240
3955.86,0.28064
3932.71,0.29279
3909.57,0.30222
3886.42,0.30910
3863.28,0.31901
3840.13,0.33071
3816.99,0.33372
3793.84,0.33462
3770.7,0.33353
3747.55,0.32996
3724.41,0.31886
3701.26,0.29768
3678.12,0.25994
3654.97,0.20004
3631.83,0.14638
3608.68,0.10383
3585.54,0.07418
3562.39,0.05567
3539.25,0.04447
3516.1,0.03640
3492.96,0.03182
3469.81,0.02946
3446.67,0.02811
3423.52,0.02784
3400.38,0.02819
3377.23,0.02933
3354.09,0.03085
3330.94,0.03417
3307.8,0.03476
3284.65,0.03587
3261.51,0.03936
3238.36,0.04193
3215.22,0.04654
3192.07,0.05224
3168.93,0.05831
3145.78,0.06575
3122.64,0.07456
3099.49,0.08454
3076.35,0.09430
3053.2,0.10300
3030.06,0.11154
3006.91,0.11467
2983.77,0.09879
2960.62,0.06542
2937.48,0.05635
2914.33,0.04849
2891.19,0.04932
2868.04,0.05321
2844.9,0.06433
2821.75,0.08444
2798.61,0.10046
2775.46,0.10661
2752.32,0.10898
2729.17,0.10964
2706.03,0.11737
2682.88,0.13001
2659.74,0.13703
2636.59,0.14609
2613.45,0.15391
2590.3,0.15995
2567.16,0.16026
2544.02,0.15672
2520.87,0.15969
2497.73,0.17122
2474.58,0.18238
2451.44,0.18981
2428.29,0.20149
2405.15,0.21326
2382,0.22297
2358.86,0.23359
2335.71,0.24271
2312.57,0.24772
2289.42,0.24436
2266.28,0.23604
2243.13,0.22580
2219.99,0.22754
2196.84,0.23000
2173.7,0.21367
2150.55,0.19867
2127.41,0.19602
2104.26,0.20698
2081.12,0.21394
2057.97,0.21273
2034.83,0.21792
2011.68,0.23896
1988.54,0.24842
1965.39,0.25540
1942.25,0.26720
1919.1,0.27955
1895.96,0.28206
1872.81,0.27944
1849.67,0.27112
1826.52,0.26018
1803.38,0.24725
1780.23,0.23251
1757.09,0.21367
1733.94,0.19305
1710.8,0.17786
1687.65,0.15120
1664.51,0.11345
1641.36,0.09962
1618.22,0.10265
1595.07,0.10929
1571.93,0.12439
1548.78,0.12823
1525.64,0.12149
1502.49,0.10002
1479.35,0.06360
1456.2,0.04168
1433.06,0.03462
1409.91,0.04390
1386.77,0.03791
1363.62,0.03291
1340.48,0.03381
1317.33,0.03437
1294.19,0.04152
1271.04,0.04052
1247.9,0.03943
1224.75,0.04078
1201.61,0.02991
1178.46,0.02699
1155.32,0.03581
1132.17,0.02251
1109.03,0.03484
1085.88,0.03139
1062.74,0.06901
1039.59,0.05697
1016.45,0.05790
993.304,0.06061
970.159,0.08399
947.014,0.11185
923.869,0.11598
900.724,0.08925
877.579,0.11125
854.434,0.12441
831.289,0.10963
808.144,0.08337
784.999,0.08520
761.854,0.07598
738.709,0.06124
715.565,0.04774
692.42,0.04916
669.275,0.04586
646.13,0.04543
622.985,0.04100
599.84,0.04552

File: Hemp_Sheet_IS_S_220909_R6.dpt
7497.03,0.57029
7473.89,0.56411
7450.74,0.56827
7427.6,0.57356
7404.45,0.56291
7381.31,0.56917
7358.16,0.56996
7335.02,0.55827
7311.87,0.55524
7288.73,0.55775
7265.58,0.55681
7242.44,0.55793
7219.29,0.55874
7196.15,0.56048
7173,0.55435
7149.86,0.54732
7126.71,0.54210
7103.57,0.54374
7080.42,0.53445
7057.28,0.53315
7034.13,0.51955
7010.99,0.51040
6987.84,0.49988
6964.7,0.50043
6941.55,0.49282
6918.41,0.48711
6895.26,0.48919
6872.12,0.49043
6848.97,0.48026
6825.83,0.47733
6802.68,0.47268
6779.54,0.46791
6756.39,0.46799
6733.25,0.46627
6710.1,0.46616
6686.96,0.46391
6663.82,0.46665
6640.67,0.46745
6617.53,0.47020
6594.38,0.47319
6571.24,0.47634
6548.09,0.47207
6524.95,0.47379
6501.8,0.47541
6478.66,0.46981
6455.51,0.47308
6432.37,0.47790
6409.22,0.47747
6386.08,0.47741
6362.93,0.47733
6339.79,0.48168
6316.64,0.48171
6293.5,0.48193
6270.35,0.48954
6247.21,0.49527
6224.06,0.49943
6200.92,0.50771
6177.77,0.51370
6154.63,0.51400
6131.48,0.52032
6108.34,0.52311
6085.19,0.52851
6062.05,0.53292
6038.9,0.53445
6015.76,0.53689
5992.61,0.53975
5969.47,0.54184
5946.32,0.53932
5923.18,0.53873
5900.03,0.53398
5876.89,0.52902
5853.74,0.52670
5830.6,0.53028
5807.45,0.52824
5784.31,0.52783
5761.16,0.52477
5738.02,0.52372
5714.87,0.52259
5691.73,0.52325
5668.58,0.51806
5645.44,0.51862
5622.29,0.51926
5599.15,0.51877
5576,0.52094
5552.86,0.52392
5529.71,0.52107
5506.57,0.51991
5483.42,0.51916
5460.28,0.52178
5437.13,0.52303
5413.99,0.52839
5390.84,0.52855
5367.7,0.53183
5344.55,0.53008
5321.41,0.52747
5298.26,0.52342
5275.12,0.51216
5251.97,0.49453
5228.83,0.47694
5205.68,0.46854
5182.54,0.46362
5159.39,0.46673
5136.25,0.47147
5113.1,0.47904
5089.96,0.48501
5066.81,0.48975
5043.67,0.49331
5020.52,0.49494
4997.38,0.49379
4974.23,0.49115
4951.09,0.47999
4927.94,0.46528
4904.8,0.44363
4881.65,0.42178
4858.51,0.40177
4835.36,0.38514
4812.22,0.37045
4789.07,0.36072
4765.93,0.35691
4742.78,0.35527
4719.64,0.36279
4696.49,0.37056
4673.35,0.38165
4650.2,0.38968
4627.06,0.39844
4603.92,0.40573
4580.77,0.41555
4557.63,0.42396
4534.48,0.43169
4511.34,0.43666
4488.19,0.43761
4465.05,0.43435
4441.9,0.41548
4418.76,0.38347
4395.61,0.36089
4372.47,0.37163
4349.32,0.37038
4326.18,0.36077
4303.03,0.35013
4279.89,0.34077
4256.74,0.34218
4233.6,0.34492
4210.45,0.34694
4187.31,0.35292
4164.16,0.35737
4141.02,0.35316
4117.87,0.34335
4094.73,0.32053
4071.58,0.29774
4048.44,0.26952
4025.29,0.25447
4002.15,0.26121
3979,0.27190
3955.86,0.28112
3932.71,0.29292
3909.57,0.30310
3886.42,0.31023
3863.28,0.31918
3840.13,0.33137
3816.99,0.33366
3793.84,0.33526
3770.7,0.33418
3747.55,0.33144
3724.41,0.32006
3701.26,0.29891
3678.12,0.26153
3654.97,0.20200
3631.83,0.14804
3608.68,0.10433
3585.54,0.07515
3562.39,0.05711
3539.25,0.04438
3516.1,0.03678
3492.96,0.03199
3469.81,0.02881
3446.67,0.02750
3423.52,0.02809
3400.38,0.02789
3377.23,0.02915
3354.09,0.03126
3330.94,0.03418
3307.8,0.03489
3284.65,0.03616
3261.51,0.03978
3238.36,0.04197
3215.22,0.04636
3192.07,0.05158
3168.93,0.05863
3145.78,0.06619
3122.64,0.07452
3099.49,0.08481
3076.35,0.09449
3053.2,0.10455
3030.06,0.11143
3006.91,0.11516
2983.77,0.09894
2960.62,0.06541
2937.48,0.05643
2914.33,0.04847
2891.19,0.04882
2868.04,0.05309
2844.9,0.06443
2821.75,0.08420
2798.61,0.10111
2775.46,0.10725
2752.32,0.10909
2729.17,0.10953
2706.03,0.11717
2682.88,0.12987
2659.74,0.13763
2636.59,0.14622
2613.45,0.15425
2590.3,0.15986
2567.16,0.16030
2544.02,0.15699
2520.87,0.15981
2497.73,0.17072
2474.58,0.18272
2451.44,0.18973
2428.29,0.20187
2405.15,0.21342
2382,0.22320
2358.86,0.23442
2335.71,0.24266
2312.57,0.24827
2289.42,0.24481
2266.28,0.23622
2243.13,0.22603
2219.99,0.22779
2196.84,0.23020
2173.7,0.21376
2150.55,0.19957
2127.41,0.19666
2104.26,0.20711
2081.12,0.21468
2057.97,0.21327
2034.83,0.21841
2011.68,0.23924
1988.54,0.24919
1965.39,0.25585
1942.25,0.26773
1919.1,0.28016
1895.96,0.28302
1872.81,0.27972
1849.67,0.27178
1826.52,0.26067
1803.38,0.24798
1780.23,0.23321
1757.09,0.21396
1733.94,0.19328
1710.8,0.17886
1687.65,0.15243
1664.51,0.11507
1641.36,0.10100
1618.22,0.10337
1595.07,0.10913
1571.93,0.12502
1548.78,0.12833
1525.64,0.12183
1502.49,0.10011
1479.35,0.06346
1456.2,0.04163
1433.06,0.03446
1409.91,0.04364
1386.77,0.03786
1363.62,0.03322
1340.48,0.03362
1317.33,0.03439
1294.19,0.04148
1271.04,0.04078
1247.9,0.03980
1224.75,0.04101
1201.61,0.02989
1178.46,0.02698
1155.32,0.03608
1132.17,0.02232
1109.03,0.03526
1085.88,0.03080
1062.74,0.06810
1039.59,0.05595
1016.45,0.05867
993.304,0.05996
970.159,0.08366
947.014,0.11092
923.869,0.11548
900.724,0.08955
877.579,0.11209
854.434,0.12420
831.289,0.11175
808.144,0.08375
784.999,0.08588
761.854,0.07576
738.709,0.06076
715.565,0.04802
692.42,0.04888
669.275,0.04635
646.13,0.04517
622.985,0.04001
599.84,0.04762

File: Hemp_Sheet_IS_S_220909_R7.dpt
7497.03,0.57022
7473.89,0.56673
7450.74,0.56784
7427.6,0.56335
7404.45,0.56784
7381.31,0.57306
7358.16,0.56607
7335.02,0.55811
7311.87,0.56312
7288.73,0.55146
7265.58,0.55037
7242.44,0.55316
7219.29,0.55797
7196.15,0.55836
7173,0.54985
7149.86,0.55713
7126.71,0.54839
7103.57,0.54428
7080.42,0.53644
7057.28,0.52869
7034.13,0.52329
7010.99,0.51228
6987.84,0.49945
6964.7,0.49738
6941.55,0.49610
6918.41,0.48937
6895.26,0.48880
6872.12,0.48214
6848.97,0.48075
6825.83,0.47479
6802.68,0.47401
6779.54,0.46886
6756.39,0.46736
6733.25,0.46032
6710.1,0.46127
6686.96,0.46181
6663.82,0.46437
6640.67,0.46855
6617.53,0.47256
6594.38,0.47408
6571.24,0.47561
6548.09,0.47281
6524.95,0.47328
6501.8,0.47457
6478.66,0.47599
6455.51,0.47380
6432.37,0.47704
6409.22,0.47680
6386.08,0.47603
6362.93,0.48043
6339.79,0.47876
6316.64,0.48184
6293.5,0.48420
6270.35,0.48575
6247.21,0.49498
6224.06,0.49982
6200.92,0.50698
6177.77,0.50844
6154.63,0.51756
6131.48,0.52150
6108.34,0.52451
6085.19,0.52838
6062.05,0.53151
6038.9,0.53563
6015.76,0.53676
5992.61,0.53972
5969.47,0.54419
5946.32,0.54232
5923.18,0.53759
5900.03,0.53872
5876.89,0.53201
5853.74,0.53019
5830.6,0.53139
5807.45,0.52681
5784.31,0.52559
5761.16,0.52649
5738.02,0.52209
5714.87,0.52469
5691.73,0.52282
5668.58,0.52228
5645.44,0.52191
5622.29,0.52108
5599.15,0.51950
5576,0.52326
5552.86,0.52155
5529.71,0.52192
5506.57,0.52209
5483.42,0.52338
5460.28,0.52267
5437.13,0.52429
5413.99,0.52913
5390.84,0.53273
5367.7,0.53136
5344.55,0.53260
5321.41,0.52994
5298.26,0.52451
5275.12,0.51318
5251.97,0.49700
5228.83,0.48175
5205.68,0.46999
5182.54,0.46866
5159.39,0.47081
5136.25,0.47469
5113.1,0.48037
5089.96,0.48624
5066.81,0.49036
5043.67,0.49585
5020.52,0.49697
4997.38,0.49585
4974.23,0.49164
4951.09,0.48203
4927.94,0.46551
4904.8,0.44668
4881.65,0.42345
4858.51,0.40273
4835.36,0.38678
4812.22,0.37144
4789.07,0.36242
4765.93,0.35690
4742.78,0.35695
4719.64,0.36350
4696.49,0.37138
4673.35,0.38200
4650.2,0.39129
4627.06,0.39813
4603.92,0.40706
4580.77,0.41593
4557.63,0.42631
4534.48,0.43315
4511.34,0.43765
4488.19,0.43867
4465.05,0.43487
4441.9,0.41655
4418.76,0.38439
4395.61,0.36222
4372.47,0.37353
4349.32,0.37110
4326.18,0.36145
4303.03,0.35101
4279.89,0.34196
4256.74,0.34306
4233.6,0.34559
4210.45,0.34815
4187.31,0.35447
4164.16,0.35834
4141.02,0.35360
4117.87,0.34375
4094.73,0.32165
4071.58,0.29741
4048.44,0.27150
4025.29,0.25604
4002.15,0.26215
3979,0.27305
3955.86,0.28176
3932.71,0.29377
3909.57,0.30389
3886.42,0.31099
3863.28,0.32016
3840.13,0.33291
3816.99,0.33549
3793.84,0.33728
3770.7,0.33568
3747.55,0.33262
3724.41,0.32112
3701.26,0.30035
3678.12,0.26303
3654.97,0.20334
3631.83,0.15036
3608.68,0.10594
3585.54,0.07572
3562.39,0.05685
3539.25,0.04453
3516.1,0.03708
3492.96,0.03132
3469.81,0.02948
3446.67,0.02881
3423.52,0.02839
3400.38,0.02818
3377.23,0.02883
3354.09,0.03034
3330.94,0.03420
3307.8,0.03432
3284.65,0.03554
3261.51,0.03921
3238.36,0.04234
3215.22,0.04626
3192.07,0.05203
3168.93,0.05826
3145.78,0.06675
3122.64,0.07484
3099.49,0.08484
3076.35,0.09522
3053.2,0.10442
3030.06,0.11208
3006.91,0.11595
2983.77,0.09917
2960.62,0.06582
2937.48,0.05614
2914.33,0.04864
2891.19,0.04928
2868.04,0.05315
2844.9,0.06466
2821.75,0.08448
2798.61,0.10143
2775.46,0.10661
2752.32,0.10917
2729.17,0.10975
2706.03,0.11768
2682.88,0.13045
2659.74,0.13766
2636.59,0.14652
2613.45,0.15484
2590.3,0.15989
2567.16,0.16074
2544.02,0.15692
2520.87,0.15964
2497.73,0.17129
2474.58,0.18316
2451.44,0.19023
2428.29,0.20241
2405.15,0.21403
2382,0.22388
2358.86,0.23476
2335.71,0.24402
2312.57,0.24918
2289.42,0.24547
2266.28,0.23717
2243.13,0.22674
2219.99,0.22839
2196.84,0.23103
2173.7,0.21504
2150.55,0.20010
2127.41,0.19719
2104.26,0.20838
2081.12,0.21577
2057.97,0.21395
2034.83,0.21969
2011.68,0.24053
1988.54,0.25065
1965.39,0.25691
1942.25,0.26904
1919.1,0.28146
1895.96,0.28392
1872.81,0.28125
1849.67,0.27298
1826.52,0.26168
1803.38,0.24905
1780.23,0.23393
1757.09,0.21548
1733.94,0.19382
1710.8,0.18011
1687.65,0.15321
1664.51,0.11621
1641.36,0.10196
1618.22,0.10407
1595.07,0.10991
1571.93,0.12568
1548.78,0.12917
1525.64,0.12256
1502.49,0.10061
1479.35,0.06390
1456.2,0.04181
1433.06,0.03462
1409.91,0.04394
1386.77,0.03785
1363.62,0.03270
1340.48,0.03358
1317.33,0.03449
1294.19,0.04162
1271.04,0.04061
1247.9,0.03971
1224.75,0.04019
1201.61,0.03023
1178.46,0.02659
1155.32,0.03584
1132.17,0.02215
1109.03,0.03449
1085.88,0.03150
1062.74,0.06879
1039.59,0.05605
1016.45,0.05846
993.304,0.06006
970.159,0.08376
947.014,0.11180
923.869,0.11660
900.724,0.08937
877.579,0.11225
854.434,0.12496
831.289,0.11100
808.144,0.08463
784.999,0.08515
761.854,0.07689
738.709,0.06072
715.565,0.04840
692.42,0.04807
669.275,0.04621
646.13,0.04301
622.985,0.04216
599.84,0.04699

File: Hemp_Sheet_IS_S_220909_R8.dpt
7497.03,0.56904
7473.89,0.56783
7450.74,0.56959
7427.6,0.55997
7404.45,0.57530
7381.31,0.56086
7358.16,0.56089
7335.02,0.56451
7311.87,0.55931
7288.73,0.55190
7265.58,0.55291
7242.44,0.55737
7219.29,0.55571
7196.15,0.55438
7173,0.55553
7149.86,0.55192
7126.71,0.55357
7103.57,0.53612
7080.42,0.53342
7057.28,0.52979
7034.13,0.51576
7010.99,0.50825
6987.84,0.50033
6964.7,0.49943
6941.55,0.48716
6918.41,0.49369
6895.26,0.48919
6872.12,0.48422
6848.97,0.48242
6825.83,0.47540
6802.68,0.46998
6779.54,0.46236
6756.39,0.45984
6733.25,0.46484
6710.1,0.46218
6686.96,0.46369
6663.82,0.46506
6640.67,0.46203
6617.53,0.46923
6594.38,0.47174
6571.24,0.47297
6548.09,0.47374
6524.95,0.47531
6501.8,0.47081
6478.66,0.47406
6455.51,0.47569
6432.37,0.47571
6409.22,0.47714
6386.08,0.47898
6362.93,0.47695
6339.79,0.48178
6316.64,0.48351
6293.5,0.48159
6270.35,0.48809
6247.21,0.49474
6224.06,0.49767
6200.92,0.50315
6177.77,0.51194
6154.63,0.51513
6131.48,0.51789
6108.34,0.52433
6085.19,0.52866
6062.05,0.52982
6038.9,0.53324
6015.76,0.53653
5992.61,0.54058
5969.47,0.53811
5946.32,0.53984
5923.18,0.53609
5900.03,0.53203
5876.89,0.52836
5853.74,0.52688
5830.6,0.52791
5807.45,0.52589
5784.31,0.52507
5761.16,0.52517
5738.02,0.52151
5714.87,0.52299
5691.73,0.52046
5668.58,0.51941
5645.44,0.51838
5622.29,0.52016
5599.15,0.51728
5576,0.51948
5552.86,0.52069
5529.71,0.51935
5506.57,0.51893
5483.42,0.51869
5460.28,0.52004
5437.13,0.52241
5413.99,0.52623
5390.84,0.53009
5367.7,0.52938
5344.55,0.53078
5321.41,0.52747
5298.26,0.52299
5275.12,0.51100
5251.97,0.49464
5228.83,0.47868
5205.68,0.47072
5182.54,0.46587
5159.39,0.46877
5136.25,0.47493
5113.1,0.47877
5089.96,0.48454
5066.81,0.48984
5043.67,0.49390
5020.52,0.49525
4997.38,0.49510
4974.23,0.49083
4951.09,0.47959
4927.94,0.46375
4904.8,0.44425
4881.65,0.42290
4858.51,0.40256
4835.36,0.38443
4812.22,0.36965
4789.07,0.36151
4765.93,0.35510
4742.78,0.35576
4719.64,0.36137
4696.49,0.36913
4673.35,0.38016
4650.2,0.38943
4627.06,0.39726
4603.92,0.40511
4580.77,0.41417
4557.63,0.42388
4534.48,0.43020
4511.34,0.43531
4488.19,0.43632
4465.05,0.43228
4441.9,0.41478
4418.76,0.38275
4395.61,0.35990
4372.47,0.37158
4349.32,0.37021
4326.18,0.36012
4303.03,0.34965
4279.89,0.33975
4256.74,0.34158
4233.6,0.34490
4210.45,0.34673
4187.31,0.35224
4164.16,0.35670
4141.02,0.35301
4117.87,0.34229
4094.73,0.32021
4071.58,0.29662
4048.44,0.26980
4025.29,0.25459
4002.15,0.26071
3979,0.27156
3955.86,0.28088
3932.71,0.29257
3909.57,0.30221
3886.42,0.31024
3863.28,0.31896
3840.13,0.33103
3816.99,0.33437
3793.84,0.33557
3770.7,0.33403
3747.55,0.33154
3724.41,0.31992
3701.26,0.29998
3678.12,0.26313
3654.97,0.20554
3631.83,0.15115
3608.68,0.10600
3585.54,0.07556
3562.39,0.05751
3539.25,0.04491
3516.1,0.03673
3492.96,0.03155
3469.81,0.02945
3446.67,0.02802
3423.52,0.02793
3400.38,0.02830
3377.23,0.02914
3354.09,0.03095
3330.94,0.03444
3307.8,0.03524
3284.65,0.03600
3261.51,0.03896
3238.36,0.04282
3215.22,0.04741
3192.07,0.05284
3168.93,0.05918
3145.78,0.06707
3122.64,0.07543
3099.49,0.08560
3076.35,0.09548
3053.2,0.10490
3030.06,0.11224
3006.91,0.11550
2983.77,0.09969
2960.62,0.06462
2937.48,0.05663
2914.33,0.04834
2891.19,0.04910
2868.04,0.05366
2844.9,0.06446
2821.75,0.08367
2798.61,0.10102
2775.46,0.10660
2752.32,0.10914
2729.17,0.10923
2706.03,0.11709
2682.88,0.12999
2659.74,0.13713
2636.59,0.14619
2613.45,0.15361
2590.3,0.15966
2567.16,0.15989
2544.02,0.15668
2520.87,0.15961
2497.73,0.17099
2474.58,0.18185
2451.44,0.18968
2428.29,0.20145
2405.15,0.21303
2382,0.22305
2358.86,0.23359
2335.71,0.24296
2312.57,0.24809
2289.42,0.24501
2266.28,0.23634
2243.13,0.22607
2219.99,0.22737
2196.84,0.23029
2173.7,0.21436
2150.55,0.19945
2127.41,0.19652
2104.26,0.20775
2081.12,0.21522
2057.97,0.21358
2034.83,0.21876
2011.68,0.23958
1988.54,0.24937
1965.39,0.25574
1942.25,0.26813
1919.1,0.28005
1895.96,0.28293
1872.81,0.27996
1849.67,0.27190
1826.52,0.26125
1803.38,0.24806
1780.23,0.23313
1757.09,0.21433
1733.94,0.19386
1710.8,0.17961
1687.65,0.15387
1664.51,0.11680
1641.36,0.10236
1618.22,0.10454
1595.07,0.10986
1571.93,0.12570
1548.78,0.12916
1525.64,0.12233
1502.49,0.10062
1479.35,0.06348
1456.2,0.04158
1433.06,0.03415
1409.91,0.04348
1386.77,0.03756
1363.62,0.03315
1340.48,0.03377
1317.33,0.03469
1294.19,0.04140
1271.04,0.04018
1247.9,0.03936
1224.75,0.04042
1201.61,0.03004
1178.46,0.02677
1155.32,0.03550
1132.17,0.02189
1109.03,0.03449
1085.88,0.03099
1062.74,0.06854
1039.59,0.05653
1016.45,0.05825
993.304,0.06016
970.159,0.08366
947.014,0.11159
923.869,0.11662
900.724,0.08958
877.579,0.11157
854.434,0.12513
831.289,0.11251
808.144,0.08384
784.999,0.08735
761.854,0.07678
738.709,0.06163
715.565,0.04768
692.42,0.05000
669.275,0.04802
646.13,0.04474
622.985,0.04016
599.84,0.04737

File: Hemp_Sheet_IS_T_220909_R6.dpt
7497.03,0.02554
7473.89,0.02761
7450.74,0.01987
7427.6,0.02079
7404.45,0.03075
7381.31,0.02275
7358.16,0.02541
7335.02,0.02124
7311.87,0.02826
7288.73,0.02755
7265.58,0.02799
7242.44,0.02360
7219.29,0.03131
7196.15,0.03014
7173,0.02319
7149.86,0.03180
7126.71,0.02425
7103.57,0.02105
7080.42,0.02450
7057.28,0.02647
7034.13,0.02173
7010.99,0.02177
6987.84,0.02403
6964.7,0.02375
6941.55,0.02892
6918.41,0.01868
6895.26,0.02836
6872.12,0.02195
6848.97,0.02141
6825.83,0.02376
6802.68,0.02434
6779.54,0.02366
6756.39,0.01831
6733.25,0.02040
6710.1,0.02552
6686.96,0.02274
6663.82,0.02236
6640.67,0.01996
6617.53,0.02620
6594.38,0.02444
6571.24,0.02724
6548.09,0.02265
6524.95,0.02340
6501.8,0.01976
6478.66,0.02643
6455.51,0.02250
6432.37,0.02051
6409.22,0.02242
6386.08,0.02324
6362.93,0.02454
6339.79,0.02431
6316.64,0.02275
6293.5,0.02270
6270.35,0.02235
6247.21,0.02681
6224.06,0.02395
6200.92,0.02253
6177.77,0.01780
6154.63,0.02342
6131.48,0.01946
6108.34,0.01957
6085.19,0.02215
6062.05,0.02165
6038.9,0.02275
6015.76,0.02424
5992.61,0.02110
5969.47,0.02086
5946.32,0.02003
5923.18,0.02317
5900.03,0.02104
5876.89,0.02255
5853.74,0.02335
5830.6,0.01970
5807.45,0.02325
5784.31,0.02155
5761.16,0.02227
5738.02,0.02093
5714.87,0.02042
5691.73,0.02158
5668.58,0.02317
5645.44,0.02339
5622.29,0.02210
5599.15,0.02052
5576,0.02183
5552.86,0.02362
5529.71,0.02040
5506.57,0.02085
5483.42,0.02392
5460.28,0.02061
5437.13,0.02060
5413.99,0.02266
5390.84,0.02027
5367.7,0.02244
5344.55,0.02287
5321.41,0.02172
5298.26,0.02069
5275.12,0.02050
5251.97,0.02261
5228.83,0.02269
5205.68,0.02224
5182.54,0.02275
5159.39,0.02165
5136.25,0.02221
5113.1,0.02170
5089.96,0.02344
5066.81,0.02259
5043.67,0.02335
5020.52,0.02273
4997.38,0.02321
4974.23,0.02258
4951.09,0.02031
4927.94,0.02117
4904.8,0.02162
4881.65,0.02175
4858.51,0.02221
4835.36,0.02325
4812.22,0.02231
4789.07,0.02161
4765.93,0.02252
4742.78,0.02230
4719.64,0.02245
4696.49,0.02261
4673.35,0.02249
4650.2,0.02252
4627.06,0.02226
4603.92,0.02193
4580.77,0.02226
4557.63,0.02191
4534.48,0.02247
4511.34,0.02226
4488.19,0.02148
4465.05,0.02263
4441.9,0.02325
4418.76,0.02259
4395.61,0.02257
4372.47,0.02263
4349.32,0.02293
4326.18,0.02194
4303.03,0.02261
4279.89,0.02226
4256.74,0.02320
4233.6,0.02232
4210.45,0.02258
4187.31,0.02266
4164.16,0.02236
4141.02,0.02211
4117.87,0.02170
4094.73,0.02251
4071.58,0.02230
4048.44,0.02272
4025.29,0.02223
4002.15,0.02202
3979,0.02254
3955.86,0.02247
3932.71,0.02199
3909.57,0.02231
3886.42,0.02254
3863.28,0.02265
3840.13,0.02165
3816.99,0.02203
3793.84,0.02236
3770.7,0.02243
3747.55,0.02269
3724.41,0.02262
3701.26,0.02257
3678.12,0.02194
3654.97,0.02173
3631.83,0.02184
3608.68,0.02110
3585.54,0.02200
3562.39,0.02129
3539.25,0.02047
3516.1,0.02079
3492.96,0.02031
3469.81,0.02045
3446.67,0.02052
3423.52,0.02012
3400.38,0.02075
3377.23,0.02027
3354.09,0.02079
3330.94,0.02073
3307.8,0.02060
3284.65,0.02113
3261.51,0.02079
3238.36,0.02060
3215.22,0.02002
3192.07,0.02057
3168.93,0.02087
3145.78,0.02054
3122.64,0.02047
3099.49,0.02050
3076.35,0.02083
3053.2,0.02057
3030.06,0.02036
3006.91,0.02016
2983.77,0.01976
2960.62,0.01983
2937.48,0.01977
2914.33,0.01996
2891.19,0.02094
2868.04,0.02044
2844.9,0.02106
2821.75,0.02108
2798.61,0.02106
2775.46,0.02097
2752.32,0.02134
2729.17,0.02092
2706.03,0.02114
2682.88,0.02108
2659.74,0.02105
2636.59,0.02105
2613.45,0.02133
2590.3,0.02129
2567.16,0.02083
2544.02,0.02096
2520.87,0.02107
2497.73,0.02108
2474.58,0.02106
2451.44,0.02090
2428.29,0.02137
2405.15,0.02091
2382,0.02061
2358.86,0.02073
2335.71,0.02078
2312.57,0.02074
2289.42,0.02073
2266.28,0.02090
2243.13,0.02079
2219.99,0.02075
2196.84,0.02092
2173.7,0.02067
2150.55,0.02085
2127.41,0.02076
2104.26,0.02088
2081.12,0.02056
2057.97,0.02078
2034.83,0.02095
2011.68,0.02047
1988.54,0.02063
1965.39,0.02033
1942.25,0.02099
1919.1,0.02060
1895.96,0.02040
1872.81,0.02028
1849.67,0.02006
1826.52,0.02040
1803.38,0.01942
1780.23,0.01874
1757.09,0.01746
1733.94,0.01975
1710.8,0.02054
1687.65,0.01903
1664.51,0.01871
1641.36,0.01841
1618.22,0.01884
1595.07,0.01935
1571.93,0.01819
1548.78,0.01833
1525.64,0.01887
1502.49,0.01852
1479.35,0.01880
1456.2,0.01859
1433.06,0.01866
1409.91,0.01793
1386.77,0.01815
1363.62,0.01815
1340.48,0.01784
1317.33,0.01706
1294.19,0.01783
1271.04,0.01915
1247.9,0.01969
1224.75,0.01914
1201.61,0.01815
1178.46,0.01768
1155.32,0.01754
1132.17,0.01831
1109.03,0.01893
1085.88,0.01793
1062.74,0.01984
1039.59,0.01933
1016.45,0.01922
993.304,0.02135
970.159,0.02008
947.014,0.01984
923.869,0.01945
900.724,0.01866
877.579,0.01894
854.434,0.01910
831.289,0.01898
808.144,0.01917
784.999,0.01804
761.854,0.01884
738.709,0.01867
715.565,0.01794
692.42,0.01652
669.275,0.01618
646.13,0.01731
622.985,0.01453
599.84,0.01567