Folder: fsri_materials_database/01_Data/Rebond_Foam_Carpet_Pad/Cone

Note: README.md
# Materials and Products Database
### Repository of materials and products properties and fire test data to improve fire modeling and fire investigation.

This project was supported in part by Award No. 2019-DU-BX-0018, awarded by the National Institute of Justice, Office of Justice Programs, U.S. Department of Justice. The opinions, findings, and conclusions or recommendations expressed in this publication / program / exhibition are those of the author(s) and do not necessarily reflect those of the Department of Justice.

***
***

__Cite this database:__ "McKinnon, M., Weinschenk, C., Dow, N., DiDomizio, M., and Madrzykowski, D. Materials and Products Database (Version 1.0.0), Fire Safety Research Institute, UL Research Institutes. Columbia, MD 21045, 2023."

__Cite the Technical Reference Guide:__ "McKinnon, M., Weinschenk, C., and Madrzykowski, D. Materials and Products Database - Technical Reference Guide, Fire Safety Research Institute, UL Research Institutes. Columbia, MD 21045, 2023."

__Cite the User Guide:__ "McKinnon, M., and Weinschenk, C. Materials and Products Database - User Guide, Fire Safety Research Institute, UL Research Institutes. Columbia, MD 21045, 2023."

***
***

## Database Structure

## 01_Data/
Raw data generated from each apparatus are included here in plain-text format. The data is organized first by material, next by the short name of test apparatus used, and where applicable additional filtering by test settings.

### Test Apparatus and Data File Structure
- __Cone Calorimeter__ (Cone)
    + Data file structure includes the material, the short name for the apparatus, heat flux setting and scan/scalar, date of test, and replicate number. Scan is for the raw output data and scalar is for the initial conditions and high-level test parameters. 
        * Example: __MDF_Cone_HF25scalar_210323_R1__ stands for the first replicate of scalar data generated from a medium density fiber board test in cone calorimeter exposed to 25 kW/m<sup>2</sup> on March 23, 2021.
    + A _Cone_Notes.csv_ is generated for each material from the __plot_Cone_data.py__ script. For materials whose experiments deviated from typical behavior relevant pictures are included in the respective material directory.
- __Fourier Transform Infrared Spectrometer__ (FTIR)
    + The FTIR directory contains subdirectories for the Attenuated Total Reflectance method (ATR) and the Integrating Sphere (IS)
    + Data file structure for the ATR experiment files includes the material, the abbreviated name for the apparatus, date of test, and replicate number. 
        * Example: __MDF_ATR_210323_R5__ stands for the fifth replicate of data collected with the ATR accessory conducted on June 8, 2021.
    + Data file structure for the IS experiment files includes the material, the abbreviated name for the apparatus, the measurand, whether the test is a sample measurement or standard reference, date of test, and replicate number.
        * Example: __OSB_IS_REFLECT_MEAS_2

File: Rebond_Foam_Carpet_Pad_HRRPUA_25.csv
Time after Ignition,Rebond_Foam_Carpet_Pad_R1,Rebond_Foam_Carpet_Pad_R2,Rebond_Foam_Carpet_Pad_R3,Mean,Std. Dev.
0.0,27.5,26.4,22.1,25.3,2.9
0.25,33.6,31.1,27.3,30.7,3.2
0.5,38.6,39.2,32.6,36.8,3.6
0.75,42.9,47.1,37.3,42.4,4.9
1.0,51.2,54.5,46.3,50.7,4.1
1.25,57.8,61.4,53.8,57.7,3.8
1.5,64.7,68.9,62.1,65.2,3.5
1.75,70.2,77.0,67.5,71.6,4.9
2.0,77.0,82.9,73.2,77.7,4.9
2.25,84.9,90.0,80.9,85.2,4.6
2.5,90.3,100.5,89.6,93.5,6.1
2.75,96.0,102.4,93.4,97.3,4.6
3.0,104.3,106.6,102.7,104.5,2.0
3.25,112.0,114.2,108.9,111.7,2.7
3.5,116.3,118.0,114.6,116.3,1.7
3.75,120.8,123.4,122.0,122.1,1.3
4.0,127.3,131.5,127.4,128.7,2.4
4.25,134.0,136.9,134.4,135.1,1.6
4.5,138.3,143.4,138.1,140.0,3.0
4.75,143.4,145.2,144.0,144.2,0.9
5.0,147.3,147.6,149.7,148.2,1.3
5.25,154.0,156.6,154.1,154.9,1.4
5.5,156.3,162.2,155.5,158.0,3.6
5.75,159.3,166.9,161.6,162.6,3.9
6.0,165.0,171.4,167.9,168.1,3.2
6.25,168.7,174.2,171.2,171.4,2.7
6.5,170.5,182.2,177.8,176.8,5.9
6.75,172.6,184.4,184.2,180.4,6.7
7.0,177.1,189.8,184.9,183.9,6.4
7.25,184.0,193.0,189.3,188.8,4.5
7.5,184.3,192.8,193.9,190.3,5.2
7.75,187.5,200.0,198.0,195.2,6.7
8.0,192.1,203.9,201.3,199.1,6.2
8.25,191.3,212.1,204.8,202.7,10.5
8.5,197.8,212.6,215.9,208.8,9.7
8.75,198.1,218.2,212.6,209.6,10.3
9.0,201.9,221.1,215.2,212.7,9.8
9.25,200.1,225.7,223.5,216.4,14.2
9.5,202.2,227.7,222.9,217.6,13.5
9.75,205.6,230.5,224.8,220.3,13.1
10.0,206.4,236.0,228.6,223.7,15.4
10.25,209.1,238.7,231.6,226.4,15.5
10.5,212.8,238.9,233.5,228.4,13.8
10.75,213.2,247.5,237.0,232.6,17.6
11.0,216.8,248.3,239.7,234.9,16.3
11.25,219.6,246.4,240.7,235.6,14.1
11.5,212.1,252.2,241.4,235.2,20.7
11.75,216.3,255.9,246.4,239.5,20.7
12.0,216.1,251.6,247.5,238.4,19.5
12.25,217.4,261.1,245.2,241.2,22.1
12.5,225.4,261.3,250.1,245.6,18.3
12.75,220.9,263.3,251.3,245.2,21.9
13.0,218.5,265.8,254.7,246.3,24.8
13.25,221.2,268.5,246.8,245.5,23.7
13.5,220.5,266.8,250.3,245.9,23.5
13.75,224.3,269.7,252.1,248.7,22.9
14.0,224.9,276.0,255.5,252.1,25.7
14.25,226.4,283.3,258.2,256.0,28.5
14.5,221.9,278.6,255.9,252.1,28.5
14.75,230.8,281.2,256.3,256.1,25.2
15.0,223.4,284.4,255.5,254.4,30.5
15.25,228.6,276.3,258.4,254.4,24.1
15.5,232.0,280.4,262.6,258.3,24.5
15.75,228.3,283.5,259.4,257.1,27.6
16.0,229.7,284.3,257.1,257.0,27.3
16.25,232.6,289.6,256.9,259.7,28.6
16.5,231.4,292.2,264.8,262.8,30.4
16.75,235.6,289.5,268.4,264.5,27.2
17.0,230.7,285.7,264.9,260.4,27.8
17.25,232.6,295.8,264.6,264.3,31.6
17.5,240.5,292.7,275.4,269.5,26.6
17.75,238.0,293.6,268.8,266.8,27.9
18.0,239.5,295.2,270.7,268.5,27.9
18.25,239.7,292.9,274.7,269.1,27.0
18.5,241.4,294.0,273.7,269.7,26.5
18.75,239.3,297.2,280.6,272.4,29.8
19.0,244.6,300.0,283.0,275.9,28.4
19.25,239.8,298.0,284.2,274.0,30.4
19.5,244.0,296.5,284.8,275.1,27.5
19.75,247.1,303.0,282.7,277.6,28.3
20.0,247.0,305.2,287.9,280.1,29.9
20.25,251.5,307.1,287.5,282.1,28.2
20.5,250.0,310.6,300.1,286.9,32.4
20.75,253.4,320.8,304.8,293.0,35.2
21.0,251.0,322.0,304.6,292.5,37.0
21.25,256.3,329.7,305.3,297.1,37.4
21.5,254.6,331.1,306.4,297.4,39.0
21.75,261.5,346.5,317.6,308.5,43.2
22.0,263.3,340.8,319.6,307.9,40.1
22.25,269.2,352.7,325.7,315.9,42.6
22.5,269.9,355.2,326.9,317.3,43.4
22.75,278.7,376.8,334.2,329.9,49.2
23.0,279.4,384.5,336.7,333.5,52.6
23.25,288.2,400.9,339.9,343.0,56.4
23.5,290.7,405.4,358.6,351.6,57.7
23.75,292.8,410.9,362.2,355.3,59.4
24.0,299.3,422.4,359.2,360.3,61.6
24.25,310.0,431.7,363.0,368.2,61.0
24.5,308.5,432.8,367.1,369.5,62.2
24.75,327.5,452.5,383.0,387.7,62.6
25.0,325.9,465.7,372.3,388.0,71.2
25.25,338.6,456.0,384.1,392.9,59.2
25.5,346.7,475.3,382.0,401.3,66.4
25.75,350.8,486.4,388.3,408.5,70.0
26.0,350.4,481.6,407.3,413.1,65.8
26.25,356.3,506.0,399.3,420.5,77.1
26.5,369.0,529.2,409.4,435.9,83.3
26.75,355.9,518.2,414.6,429.6,82.2
27.0,376.3,536.7,429.5,447.5,81.7
27.25,367.6,542.3,416.9,442.3,90.1
27.5,382.3,542.1,440.3,454.9,80.9
27.75,389.5,574.0,454.3,472.6,93.6
28.0,404.1,569.5,432.0,468.5,88.5
28.25,397.1,579.3,456.0,477.5,93.0
28.5,401.1,605.5,457.7,488.1,105.6
28.75,418.0,582.7,480.0,493.5,83.2
29.0,427.1,618.1,475.7,507.0,99.3
29.25,418.9,582.7,482.5,494.7,82.6
29.5,434.1,644.2,486.9,521.7,109.3
29.75,437.3,641.8,490.0,523.0,106.2
30.0,453.1,656.0,525.6,544.9,102.8
30.25,458.0,656.1,501.2,538.4,104.2
30.5,453.7,664.9,537.5,552.0,106.4
30.75,468.0,654.5,553.4,558.6,93.4
31.0,460.3,650.7,537.1,549.4,95.8
31.25,481.2,641.9,557.7,560.3,80.4
31.5,486.8,676.8,548.1,570.6,97.0
31.75,486.3,695.8,594.8,592.3,104.7
32.0,479.7,675.9,556.1,570.6,98.9
32.25,494.0,718.5,582.5,598.3,113.1
32.5,506.0,679.4,585.8,590.4,86.8
32.75,522.1,731.9,588.8,614.3,107.2
33.0,508.5,680.7,578.5,589.2,86.6
33.25,519.1,715.5,598.8,611.1,98.8
33.5,520.7,726.0,620.2,622.3,102.7
33.75,529.0,730.1,613.4,624.1,101.0
34.0,539.2,749.7,599.3,629.4,108.4
34.25,535.6,718.7,599.4,617.9,92.9
34.5,536.2,742.5,653.9,644.2,103.5
34.75,534.3,745.1,616.7,632.0,106.2
35.0,565.6,724.3,634.7,641.6,79.6
35.25,544.8,742.5,633.3,640.2,99.0
35.5,564.3,718.8,639.2,640.8,77.3
35.75,582.8,713.7,650.2,648.9,65.5
36.0,563.2,752.3,647.1,654.2,94.8
36.25,558.3,763.1,652.7,658.0,102.5
36.5,574.3,733.1,652.9,653.4,79.4
36.75,587.2,738.0,685.4,670.2,76.5
37.0,597.7,739.6,660.6,666.0,71.1
37.25,588.6,748.6,671.2,669.5,80.0
37.5,583.7,769.1,664.2,672.3,93.0
37.75,614.5,730.7,669.2,671.5,58.1
38.0,619.7,722.5,686.8,676.3,52.2
38.25,637.6,763.2,699.1,700.0,62.8
38.5,620.6,774.3,679.2,691.4,77.6
38.75,658.2,756.8,687.9,701.0,50.6
39.0,651.0,751.5,662.2,688.2,55.1
39.25,641.3,762.2,650.0,684.5,67.4
39.5,639.3,747.2,696.0,694.2,54.0
39.75,626.0,763.3,675.7,688.3,69.5
40.0,641.2,711.1,684.8,679.0,35.3
40.25,649.7,741.2,693.0,694.6,45.8
40.5,659.4,732.4,705.6,699.1,36.9
40.75,641.5,742.0,707.2,696.9,51.0
41.0,639.3,727.3,688.0,684.9,44.1
41.25,666.0,728.8,706.0,700.3,31.8
41.5,660.5,751.7,676.9,696.4,48.6
41.75,664.6,754.0,688.5,702.4,46.3
42.0,664.8,714.2,694.1,691.0,24.9
42.25,650.7,703.3,677.1,677.0,26.3
42.5,666.2,734.7,699.7,700.2,34.2
42.75,665.1,735.7,669.6,690.1,39.5
43.0,682.3,727.9,680.4,696.8,26.9
43.25,654.4,730.1,669.7,684.8,40.0
43.5,653.4,706.2,662.2,673.9,28.3
43.75,650.1,714.4,673.9,679.5,32.5
44.0,642.2,710.5,656.9,669.9,35.9
44.25,650.4,711.2,628.8,663.5,42.7
44.5,643.8,714.6,662.8,673.7,36.6
44.75,648.2,680.4,652.4,660.3,17.6
45.0,636.5,710.1,627.0,657.9,45.5
45.25,653.5,690.1,629.0,657.5,30.8
45.5,647.0,688.9,615.7,650.5,36.8
45.75,613.6,679.5,599.4,630.8,42.7
46.0,647.9,686.0,607.6,647.2,39.2
46.25,633.8,670.2,599.3,634.4,35.5
46.5,605.5,658.1,599.2,620.9,32.3
46.75,601.6,651.0,567.5,606.7,42.0
47.0,601.9,650.9,566.8,606.5,42.2
47.25,585.7,637.6,556.7,593.3,40.9
47.5,589.6,635.3,578.4,601.1,30.1
47.75,584.1,640.5,551.4,592.0,45.1
48.0,588.0,634.5,544.6,589.0,45.0
48.25,559.6,621.6,531.5,570.9,46.1
48.5,562.7,590.2,524.1,559.0,33.2
48.75,547.6,586.1,505.0,546.2,40.6
49.0,551.2,604.3,510.7,555.4,46.9
49.25,539.4,580.1,486.8,535.4,46.8
49.5,545.3,549.6,477.4,524.1,40.5
49.75,529.7,557.8,471.3,519.6,44.1
50.0,520.9,546.4,460.0,509.1,44.4
50.25,507.0,542.0,442.0,497.0,50.8
50.5,515.2,538.6,444.0,499.3,49.3
50.75,495.4,522.2,434.5,484.0,44.9
51.0,489.3,503.4,414.5,469.0,47.8
51.25,482.0,493.8,411.7,462.5,44.4
51.5,486.1,480.1,392.5,452.9,52.4
51.75,476.3,465.3,379.2,440.3,53.2
52.0,453.7,449.1,374.1,425.6,44.7
52.25,449.6,438.0,353.5,413.7,52.5
52.5,444.2,426.1,348.1,406.2,51.1
52.75,443.5,413.3,341.1,399.3,52.6
53.0,427.8,406.4,328.9,387.7,52.0
53.25,411.4,393.8,313.8,373.0,52.0
53.5,407.7,389.0,304.4,367.0,55.0
53.75,401.1,372.8,296.5,356.8,54.1
54.0,386.0,355.8,290.0,344.0,49.1
54.25,375.8,345.6,278.9,333.4,49.6
54.5,370.5,334.2,269.6,324.8,51.1
54.75,360.6,322.4,258.8,313.9,51.4
55.0,354.1,313.3,245.7,304.4,54.7
55.25,346.6,299.3,240.1,295.3,53.3
55.5,343.8,285.7,232.2,287.2,55.8
55.75,337.2,272.8,221.5,277.2,58.0
56.0,329.5,257.0,212.7,266.4,59.0
56.25,322.7,246.6,205.6,258.3,59.4
56.5,318.6,237.2,196.7,250.9,62.1
56.75,306.1,223.0,185.9,238.3,61.5
57.0,306.9,212.3,176.3,231.8,67.5
57.25,290.5,201.3,170.8,220.8,62.2
57.5,288.8,189.2,163.5,213.8,66.2
57.75,276.2,180.7,154.4,203.8,64.1
58.0,273.2,171.3,145.7,196.7,67.5
58.25,260.0,160.3,139.6,186.6,64.4
58.5,254.4,152.5,131.9,179.6,65.5
58.75,247.3,145.3,126.2,172.9,65.1
59.0,238.1,137.6,118.0,164.5,64.4
59.25,230.1,129.7,112.9,157.6,63.4
59.5,224.0,123.1,107.0,151.4,63.4
59.75,219.2,113.5,103.4,145.4,64.2
60.0,206.6,108.8,98.6,138.0,59.6
60.25,199.3,102.1,94.0,131.8,58.6
60.5,190.3,98.0,89.8,126.0,55.8
60.75,182.8,94.1,85.2,120.7,54.0
61.0,174.0,87.4,81.6,114.3,51.7
61.25,167.1,82.6,80.1,109.9,49.5
61.5,158.7,79.6,76.9,105.1,46.4
61.75,153.7,,72.9,113.3,57.2
62.0,148.6,,71.3,109.9,54.6
62.25,141.8,,66.6,104.2,53.1
62.5,136.2,,64.6,100.4,50.7
62.75,128.1,,62.2,95.2,46.6
63.0,125.1,,60.0,92.6,46.0
63.25,119.9,,58.5,89.2,43.4
63.5,113.1,,56.6,84.9,40.0
63.75,107.5,,53.0,80.3,38.5
64.0,103.6,,52.6,78.1,36.0
64.25,98.8,,49.9,74.3,34.6
64.5,93.3,,48.5,70.9,31.7
64.75,88.6,,47.0,67.8,29.4
65.0,83.7,,45.1,64.4,27.3
65.25,80.4,,43.3,61.9,26.2
65.5,76.5,,41.7,59.1,24.6
65.75,73.3,,40.1,56.7,23.5
66.0,69.3,,37.8,53.5,22.3
66.25,66.0,,36.3,51.2,21.0
66.5,62.2,,34.5,48.4,19.5
66.75,62.8,,33.2,48.0,20.9
67.0,59.4,,32.5,45.9,19.0
67.25,56.4,,31.1,43.8,17.9
67.5,52.3,,29.7,41.0,16.0
67.75,49.8,,28.3,39.1,15.2
68.0,48.6,,28.0,38.3,14.6
68.25,46.0,,26.7,36.4,13.7
68.5,43.5,,25.5,34.5,12.8
68.75,41.8,,24.5,33.2,12.2
69.0,39.6,,23.5,31.5,11.4
69.25,38.7,,22.5,30.6,11.5
69.5,37.0,,,37.0,
69.75,35.3,,,35.3,
70.0,34.1,,,34.1,
70.25,33.3,,,33.3,
70.5,31.9,,,31.9,
70.75,30.7,,,30.7,
71.0,29.5,,,29.5,
71.25,28.2,,,28.2,
71.5,27.5,,,27.5,
71.75,26.5,,,26.5,
72.0,25.2,,,25.2,
72.25,24.6,,,24.6,
72.5,23.9,,,23.9,
72.75,22.9,,,22.9,
73.0,22.1,,,22.1,
73.25,21.3,,,21.3,
73.5,20.2,,,20.2,
73.75,19.8,,,19.8,
74.0,18.9,,,18.9,

File: Rebond_Foam_Carpet_Pad_HRRPUA_50.csv
Time after Ignition,Rebond_Foam_Carpet_Pad_R1,Rebond_Foam_Carpet_Pad_R2,Rebond_Foam_Carpet_Pad_R3,Mean,Std. Dev.
0.0,64.7,57.1,18.8,46.9,24.6
0.25,71.1,62.2,22.2,51.8,26.0
0.5,79.3,73.4,25.2,59.3,29.6
0.75,87.0,82.5,36.9,68.8,27.7
1.0,96.6,94.5,47.5,79.5,27.8
1.25,103.0,99.3,55.7,86.0,26.3
1.5,114.2,112.4,63.8,96.8,28.6
1.75,121.2,122.1,79.9,107.7,24.1
2.0,130.5,132.8,92.1,118.5,22.9
2.25,138.5,138.6,105.9,127.7,18.9
2.5,144.5,147.4,117.6,136.5,16.4
2.75,153.9,164.1,130.1,149.4,17.5
3.0,168.6,177.9,142.1,162.9,18.6
3.25,170.1,188.2,155.3,171.2,16.5
3.5,178.9,199.9,164.5,181.1,17.8
3.75,185.9,225.4,174.3,195.2,26.8
4.0,193.3,237.8,185.5,205.6,28.2
4.25,201.9,235.0,199.0,212.0,20.0
4.5,207.3,247.4,211.6,222.1,22.0
4.75,212.8,254.6,217.3,228.2,22.9
5.0,223.5,260.1,225.1,236.2,20.7
5.25,232.7,276.5,229.8,246.3,26.1
5.5,236.5,285.7,243.4,255.2,26.6
5.75,246.3,295.7,244.9,262.3,28.9
6.0,247.0,296.7,251.9,265.2,27.4
6.25,248.4,305.8,262.2,272.1,30.0
6.5,257.9,314.0,268.8,280.2,29.8
6.75,256.0,324.5,275.5,285.4,35.3
7.0,268.1,325.7,282.8,292.2,29.9
7.25,274.1,332.4,285.2,297.3,30.9
7.5,273.6,340.6,292.0,302.1,34.6
7.75,284.9,334.2,295.8,305.0,25.9
8.0,289.6,342.4,302.5,311.5,27.5
8.25,288.1,343.3,304.1,311.8,28.4
8.5,289.4,351.6,311.4,317.5,31.5
8.75,298.5,355.0,323.1,325.6,28.3
9.0,300.0,360.8,328.2,329.7,30.4
9.25,302.0,358.2,328.2,329.5,28.1
9.5,305.0,359.0,338.7,334.2,27.3
9.75,316.3,373.2,354.0,347.8,28.9
10.0,313.8,371.0,340.3,341.7,28.6
10.25,311.4,363.8,356.9,344.0,28.5
10.5,311.8,367.4,359.6,346.3,30.1
10.75,320.6,388.0,372.0,360.2,35.2
11.0,322.7,380.1,370.4,357.7,30.7
11.25,325.5,394.4,380.4,366.8,36.4
11.5,317.7,389.8,377.5,361.7,38.5
11.75,324.8,391.8,386.3,367.6,37.1
12.0,328.0,392.8,399.4,373.4,39.5
12.25,327.8,398.1,390.0,372.0,38.4
12.5,329.4,403.9,394.4,375.9,40.6
12.75,333.4,414.2,411.1,386.2,45.8
13.0,335.4,406.8,419.9,387.4,45.5
13.25,340.0,426.9,437.1,401.3,53.3
13.5,343.9,417.6,441.0,400.9,50.7
13.75,352.1,426.1,449.4,409.2,50.8
14.0,353.7,439.0,464.6,419.1,58.1
14.25,363.5,453.3,484.8,433.9,62.9
14.5,365.1,462.5,501.2,442.9,70.1
14.75,366.8,474.0,489.3,443.4,66.7
15.0,368.3,483.3,526.9,459.5,82.0
15.25,371.3,497.4,546.8,471.8,90.5
15.5,367.3,494.2,584.9,482.1,109.3
15.75,369.4,545.5,557.1,490.7,105.2
16.0,386.6,516.4,592.7,498.6,104.2
16.25,373.4,533.3,633.5,513.4,131.2
16.5,391.2,544.8,651.1,529.0,130.6
16.75,394.7,584.8,670.8,550.1,141.3
17.0,397.2,645.6,663.5,568.7,148.9
17.25,409.5,625.9,728.0,587.8,162.6
17.5,412.7,633.6,716.5,587.6,157.0
17.75,412.2,671.0,749.9,611.0,176.6
18.0,433.2,691.1,750.8,625.0,168.8
18.25,439.7,731.8,785.6,652.4,186.1
18.5,461.2,723.3,761.8,648.8,163.6
18.75,462.4,777.3,870.1,703.2,213.7
19.0,472.1,725.8,834.1,677.3,185.8
19.25,485.4,776.6,813.0,691.6,179.6
19.5,508.4,828.7,826.3,721.1,184.2
19.75,526.5,845.0,931.9,767.8,213.4
20.0,533.6,829.2,854.5,739.1,178.4
20.25,553.4,842.6,847.5,747.8,168.4
20.5,588.3,842.9,928.5,786.6,176.9
20.75,622.8,874.0,938.2,811.7,166.7
21.0,647.6,821.5,956.3,808.5,154.8
21.25,633.1,922.4,950.3,835.3,175.6
21.5,641.6,952.7,967.6,853.9,184.1
21.75,668.2,1011.0,1019.7,899.7,200.5
22.0,703.9,905.9,1009.9,873.2,155.6
22.25,700.4,1013.4,1188.9,967.6,247.4
22.5,719.0,995.2,1127.8,947.3,208.6
22.75,722.7,1048.0,1083.0,951.2,198.7
23.0,774.6,1082.3,1102.9,986.6,183.9
23.25,789.0,1054.3,1085.4,976.2,162.9
23.5,854.1,1137.2,1086.9,1026.1,151.0
23.75,831.9,1102.0,1132.6,1022.2,165.5
24.0,822.9,1093.8,1201.7,1039.5,195.2
24.25,874.4,1096.6,1193.8,1054.9,163.7
24.5,838.0,1083.7,1210.4,1044.0,189.4
24.75,887.3,1237.5,1193.1,1106.0,190.7
25.0,917.1,1077.3,1222.7,1072.4,152.8
25.25,937.5,1217.5,1144.3,1099.8,145.2
25.5,942.7,1191.2,1195.3,1109.8,144.7
25.75,972.0,1215.7,1189.3,1125.7,133.8
26.0,996.8,1315.1,1274.8,1195.6,173.3
26.25,933.6,1271.2,1197.7,1134.1,177.5
26.5,991.8,1178.3,1236.0,1135.4,127.6
26.75,992.7,1206.3,1161.5,1120.1,112.6
27.0,988.1,1209.5,1165.9,1121.2,117.3
27.25,982.0,1275.0,1190.4,1149.1,150.8
27.5,1043.9,1193.3,1168.6,1135.3,80.1
27.75,1033.1,1175.2,1159.5,1122.6,77.9
28.0,1083.3,1227.6,1168.5,1159.8,72.5
28.25,1120.8,1240.0,1163.7,1174.8,60.4
28.5,1073.1,1144.5,1145.6,1121.1,41.5
28.75,1116.0,1259.1,1122.9,1166.0,80.7
29.0,1060.8,1213.2,1073.7,1115.9,84.5
29.25,1117.5,1256.8,1024.9,1133.1,116.8
29.5,1097.9,1261.4,1009.4,1122.9,127.9
29.75,1084.5,1161.5,974.5,1073.5,94.0
30.0,1118.1,1222.2,945.6,1095.3,139.7
30.25,1089.5,1187.6,918.9,1065.3,136.0
30.5,1097.5,1157.1,906.2,1053.6,131.1
30.75,1087.2,1158.8,880.0,1042.0,144.8
31.0,1052.4,1146.4,841.3,1013.3,156.3
31.25,1094.7,1130.7,794.7,1006.7,184.5
31.5,1111.4,1092.9,769.4,991.2,192.3
31.75,1042.9,1115.3,720.6,959.6,210.1
32.0,1061.5,1062.6,698.4,940.8,209.9
32.25,1039.3,1029.6,662.5,910.4,214.8
32.5,1023.2,1042.4,652.9,906.2,219.5
32.75,981.6,1006.2,621.0,869.6,215.7
33.0,971.6,978.6,573.9,841.4,231.6
33.25,959.6,921.4,547.1,809.4,227.9
33.5,963.7,894.2,533.7,797.2,230.8
33.75,895.4,887.3,508.0,763.6,221.4
34.0,865.7,835.8,479.1,726.8,215.1
34.25,893.1,814.5,451.7,719.7,235.4
34.5,848.1,786.8,430.7,688.5,225.4
34.75,825.9,777.0,413.6,672.2,225.3
35.0,829.4,727.0,389.4,648.6,230.2
35.25,803.4,700.2,363.1,622.2,230.3
35.5,790.4,660.0,350.9,600.4,225.7
35.75,754.6,632.7,330.6,572.6,218.3
36.0,731.5,599.4,307.2,546.0,217.1
36.25,699.6,562.4,283.4,515.1,212.1
36.5,705.2,532.7,267.1,501.7,220.7
36.75,679.9,515.7,253.1,482.9,215.3
37.0,646.6,476.6,236.6,453.3,206.0
37.25,638.2,449.0,219.5,435.6,209.7
37.5,621.0,428.5,204.9,418.1,208.2
37.75,601.5,400.7,193.9,398.7,203.8
38.0,574.3,372.1,183.4,376.6,195.5
38.25,549.4,346.6,172.4,356.1,188.7
38.5,545.4,328.5,162.6,345.5,191.9
38.75,526.0,310.9,152.8,329.9,187.3
39.0,501.3,290.7,142.3,311.4,180.4
39.25,489.5,271.8,135.2,298.9,178.7
39.5,462.0,253.5,125.9,280.5,169.7
39.75,447.3,240.2,120.2,269.2,165.5
40.0,438.1,223.9,113.7,258.5,164.9
40.25,413.0,211.9,106.4,243.8,155.8
40.5,398.8,197.4,100.8,232.3,152.0
40.75,384.0,186.1,96.2,222.1,147.2
41.0,371.3,176.8,90.1,212.7,144.0
41.25,346.9,169.4,85.9,200.8,133.3
41.5,336.1,159.8,81.7,192.5,130.3
41.75,317.7,147.4,78.5,181.2,123.2
42.0,309.4,141.3,75.3,175.3,120.7
42.25,306.0,136.3,71.0,171.1,121.3
42.5,289.6,129.2,68.1,162.3,114.4
42.75,278.8,122.0,65.1,155.3,110.6
43.0,257.5,117.3,63.0,145.9,100.4
43.25,251.0,109.7,60.9,140.5,98.7
43.5,237.1,106.4,59.1,134.2,92.2
43.75,227.1,100.5,58.0,128.5,88.0
44.0,214.7,96.4,55.4,122.2,82.7
44.25,203.4,93.4,56.2,117.6,76.5
44.5,191.0,88.3,54.9,111.4,70.9
44.75,180.7,84.9,53.5,106.3,66.3
45.0,174.9,80.4,52.4,102.6,64.2
45.25,164.4,78.0,50.9,97.8,59.3
45.5,153.4,75.5,49.3,92.7,54.1
45.75,145.9,72.4,48.5,88.9,50.8
46.0,138.7,67.6,47.1,84.4,48.1
46.25,132.6,66.5,45.5,81.5,45.5
46.5,124.9,63.9,44.7,77.8,41.9
46.75,119.8,,43.1,81.4,54.3
47.0,113.8,,42.7,78.3,50.2
47.25,106.9,,41.1,74.0,46.5
47.5,101.6,,41.1,71.4,42.8
47.75,96.7,,39.6,68.1,40.4
48.0,92.2,,38.5,65.4,37.9
48.25,89.2,,37.7,63.5,36.4
48.5,83.8,,36.6,60.2,33.3
48.75,80.5,,36.3,58.4,31.3
49.0,77.0,,34.7,55.9,29.9
49.25,73.5,,34.4,53.9,27.6
49.5,71.0,,,71.0,
49.75,67.8,,,67.8,
50.0,65.7,,,65.7,
50.25,63.3,,,63.3,
50.5,60.7,,,60.7,
50.75,58.3,,,58.3,
51.0,56.7,,,56.7,
51.25,54.5,,,54.5,
51.5,52.4,,,52.4,
51.75,50.7,,,50.7,
52.0,48.8,,,48.8,
52.25,46.8,,,46.8,
52.5,45.3,,,45.3,
52.75,43.7,,,43.7,
53.0,42.6,,,42.6,
53.25,41.2,,,41.2,
53.5,39.4,,,39.4,
53.75,39.1,,,39.1,
54.0,38.0,,,38.0,
54.25,36.5,,,36.5,
54.5,35.6,,,35.6,
54.75,34.5,,,34.5,
55.0,33.8,,,33.8,
55.25,32.6,,,32.6,
55.5,31.3,,,31.3,
55.75,31.0,,,31.0,
56.0,30.2,,,30.2,
56.25,29.6,,,29.6,
56.5,28.9,,,28.9,
56.75,28.3,,,28.3,
57.0,27.7,,,27.7,
57.25,27.3,,,27.3,
57.5,26.8,,,26.8,
57.75,26.6,,,26.6,
58.0,26.2,,,26.2,
58.25,25.2,,,25.2,
58.5,24.5,,,24.5,
58.75,24.4,,,24.4,
59.0,23.9,,,23.9,
59.25,23.4,,,23.4,
59.5,23.3,,,23.3,
59.75,23.0,,,23.0,
60.0,22.6,,,22.6,
60.25,22.0,,,22.0,
60.5,21.9,,,21.9,
60.75,21.1,,,21.1,
61.0,21.1,,,21.1,
61.25,20.5,,,20.5,
61.5,20.1,,,20.1,
61.75,20.2,,,20.2,
62.0,19.7,,,19.7,
62.25,19.3,,,19.3,
62.5,19.3,,,19.3,
62.75,18.9,,,18.9,
63.0,18.7,,,18.7,
63.25,18.4,,,18.4,
63.5,18.2,,,18.2,
63.75,18.1,,,18.1,
64.0,17.9,,,17.9,
64.25,17.9,,,17.9,
64.5,18.1,,,18.1,
64.75,17.9,,,17.9,
65.0,17.6,,,17.6,
65.25,17.4,,,17.4,
65.5,17.2,,,17.2,
65.75,16.7,,,16.7,
66.0,16.3,,,16.3,
66.25,16.3,,,16.3,
66.5,16.2,,,16.2,
66.75,15.6,,,15.6,
67.0,15.4,,,15.4,
67.25,15.1,,,15.1,
67.5,14.8,,,14.8,
67.75,14.7,,,14.7,
68.0,14.5,,,14.5,
68.25,14.4,,,14.4,
68.5,14.1,,,14.1,