Folder: fsri_materials_database/01_Data/Corian_Countertop/FTIR/IS

Note: README.md
# Materials and Products Database
### Repository of materials and products properties and fire test data to improve fire modeling and fire investigation.

This project was supported in part by Award No. 2019-DU-BX-0018, awarded by the National Institute of Justice, Office of Justice Programs, U.S. Department of Justice. The opinions, findings, and conclusions or recommendations expressed in this publication / program / exhibition are those of the author(s) and do not necessarily reflect those of the Department of Justice.

***
***

__Cite this database:__ "McKinnon, M., Weinschenk, C., Dow, N., DiDomizio, M., and Madrzykowski, D. Materials and Products Database (Version 1.0.0), Fire Safety Research Institute, UL Research Institutes. Columbia, MD 21045, 2023."

__Cite the Technical Reference Guide:__ "McKinnon, M., Weinschenk, C., and Madrzykowski, D. Materials and Products Database - Technical Reference Guide, Fire Safety Research Institute, UL Research Institutes. Columbia, MD 21045, 2023."

__Cite the User Guide:__ "McKinnon, M., and Weinschenk, C. Materials and Products Database - User Guide, Fire Safety Research Institute, UL Research Institutes. Columbia, MD 21045, 2023."

***
***

## Database Structure

## 01_Data/
Raw data generated from each apparatus are included here in plain-text format. The data is organized first by material, next by the short name of test apparatus used, and where applicable additional filtering by test settings.

### Test Apparatus and Data File Structure
- __Cone Calorimeter__ (Cone)
    + Data file structure includes the material, the short name for the apparatus, heat flux setting and scan/scalar, date of test, and replicate number. Scan is for the raw output data and scalar is for the initial conditions and high-level test parameters. 
        * Example: __MDF_Cone_HF25scalar_210323_R1__ stands for the first replicate of scalar data generated from a medium density fiber board test in cone calorimeter exposed to 25 kW/m<sup>2</sup> on March 23, 2021.
    + A _Cone_Notes.csv_ is generated for each material from the __plot_Cone_data.py__ script. For materials whose experiments deviated from typical behavior relevant pictures are included in the respective material directory.
- __Fourier Transform Infrared Spectrometer__ (FTIR)
    + The FTIR directory contains subdirectories for the Attenuated Total Reflectance method (ATR) and the Integrating Sphere (IS)
    + Data file structure for the ATR experiment files includes the material, the abbreviated name for the apparatus, date of test, and replicate number. 
        * Example: __MDF_ATR_210323_R5__ stands for the fifth replicate of data collected with the ATR accessory conducted on June 8, 2021.
    + Data file structure for the IS experiment files includes the material, the abbreviated name for the apparatus, the measurand, whether the test is a sample measurement or standard reference, date of test, and replicate number.
        * Example: __OSB_IS_REFLECT_MEAS_2

File: Corian_Countertop_IS_S_221003_R2.dpt
7497.03,0.38292
7473.89,0.35862
7450.74,0.35229
7427.6,0.33726
7404.45,0.33919
7381.31,0.33850
7358.16,0.32909
7335.02,0.31446
7311.87,0.30259
7288.73,0.28778
7265.58,0.28836
7242.44,0.27672
7219.29,0.27922
7196.15,0.24518
7173,0.21849
7149.86,0.12758
7126.71,0.18998
7103.57,0.17595
7080.42,0.14837
7057.28,0.10791
7034.13,0.11862
7010.99,0.15696
6987.84,0.12591
6964.7,0.10404
6941.55,0.11571
6918.41,0.10619
6895.26,0.09448
6872.12,0.11718
6848.97,0.09877
6825.83,0.12141
6802.68,0.15335
6779.54,0.17752
6756.39,0.18830
6733.25,0.20007
6710.1,0.20966
6686.96,0.20321
6663.82,0.19811
6640.67,0.18226
6617.53,0.16270
6594.38,0.13862
6571.24,0.14294
6548.09,0.15820
6524.95,0.15814
6501.8,0.15021
6478.66,0.14240
6455.51,0.12914
6432.37,0.13553
6409.22,0.15687
6386.08,0.17743
6362.93,0.18899
6339.79,0.19796
6316.64,0.20171
6293.5,0.21042
6270.35,0.22063
6247.21,0.22772
6224.06,0.23584
6200.92,0.24215
6177.77,0.24528
6154.63,0.24551
6131.48,0.25055
6108.34,0.24885
6085.19,0.24690
6062.05,0.23121
6038.9,0.20052
6015.76,0.16933
5992.61,0.15803
5969.47,0.14159
5946.32,0.13030
5923.18,0.14880
5900.03,0.15095
5876.89,0.14696
5853.74,0.15006
5830.6,0.15215
5807.45,0.14996
5784.31,0.15386
5761.16,0.15874
5738.02,0.17017
5714.87,0.17902
5691.73,0.18824
5668.58,0.19123
5645.44,0.19158
5622.29,0.18022
5599.15,0.17464
5576,0.17685
5552.86,0.18290
5529.71,0.18129
5506.57,0.17651
5483.42,0.17185
5460.28,0.16699
5437.13,0.16676
5413.99,0.16311
5390.84,0.15730
5367.7,0.15777
5344.55,0.15832
5321.41,0.15373
5298.26,0.14327
5275.12,0.12639
5251.97,0.11587
5228.83,0.11657
5205.68,0.12432
5182.54,0.12878
5159.39,0.12749
5136.25,0.12260
5113.1,0.12082
5089.96,0.12509
5066.81,0.12589
5043.67,0.12378
5020.52,0.12117
4997.38,0.11770
4974.23,0.11546
4951.09,0.11097
4927.94,0.11010
4904.8,0.10727
4881.65,0.10440
4858.51,0.10392
4835.36,0.10049
4812.22,0.09770
4789.07,0.09486
4765.93,0.08986
4742.78,0.08480
4719.64,0.08000
4696.49,0.07556
4673.35,0.07391
4650.2,0.07379
4627.06,0.06888
4603.92,0.06537
4580.77,0.06314
4557.63,0.06176
4534.48,0.05827
4511.34,0.05708
4488.19,0.05544
4465.05,0.05420
4441.9,0.05393
4418.76,0.05332
4395.61,0.05386
4372.47,0.05313
4349.32,0.05414
4326.18,0.05474
4303.03,0.05519
4279.89,0.05423
4256.74,0.05428
4233.6,0.05397
4210.45,0.05379
4187.31,0.05404
4164.16,0.05397
4141.02,0.05415
4117.87,0.05482
4094.73,0.05411
4071.58,0.05463
4048.44,0.05479
4025.29,0.05523
4002.15,0.05474
3979,0.05419
3955.86,0.05535
3932.71,0.05416
3909.57,0.05393
3886.42,0.05432
3863.28,0.05414
3840.13,0.05419
3816.99,0.05478
3793.84,0.05395
3770.7,0.05350
3747.55,0.05358
3724.41,0.05331
3701.26,0.05310
3678.12,0.05285
3654.97,0.05229
3631.83,0.05360
3608.68,0.05290
3585.54,0.05265
3562.39,0.05296
3539.25,0.05756
3516.1,0.05803
3492.96,0.06405
3469.81,0.07238
3446.67,0.06660
3423.52,0.05567
3400.38,0.05302
3377.23,0.05573
3354.09,0.05458
3330.94,0.05417
3307.8,0.05322
3284.65,0.05281
3261.51,0.05278
3238.36,0.05254
3215.22,0.05287
3192.07,0.05347
3168.93,0.05321
3145.78,0.05387
3122.64,0.05314
3099.49,0.05324
3076.35,0.05280
3053.2,0.05142
3030.06,0.04888
3006.91,0.04796
2983.77,0.04984
2960.62,0.04869
2937.48,0.05236
2914.33,0.05419
2891.19,0.05334
2868.04,0.05324
2844.9,0.05329
2821.75,0.05406
2798.61,0.05431
2775.46,0.05454
2752.32,0.05477
2729.17,0.05514
2706.03,0.05534
2682.88,0.05541
2659.74,0.05461
2636.59,0.05454
2613.45,0.05380
2590.3,0.05388
2567.16,0.05372
2544.02,0.05382
2520.87,0.05361
2497.73,0.05398
2474.58,0.05339
2451.44,0.05344
2428.29,0.05265
2405.15,0.05263
2382,0.05209
2358.86,0.05222
2335.71,0.05187
2312.57,0.05191
2289.42,0.05197
2266.28,0.05160
2243.13,0.05101
2219.99,0.05131
2196.84,0.05063
2173.7,0.05010
2150.55,0.04997
2127.41,0.04968
2104.26,0.04956
2081.12,0.04969
2057.97,0.04940
2034.83,0.04938
2011.68,0.04904
1988.54,0.04884
1965.39,0.04823
1942.25,0.04861
1919.1,0.04834
1895.96,0.04771
1872.81,0.04718
1849.67,0.04611
1826.52,0.04535
1803.38,0.04368
1780.23,0.04096
1757.09,0.03166
1733.94,0.05697
1710.8,0.07076
1687.65,0.05706
1664.51,0.05387
1641.36,0.05232
1618.22,0.05201
1595.07,0.05102
1571.93,0.04953
1548.78,0.04826
1525.64,0.04653
1502.49,0.04318
1479.35,0.04536
1456.2,0.04521
1433.06,0.05485
1409.91,0.05025
1386.77,0.04920
1363.62,0.04881
1340.48,0.04674
1317.33,0.04396
1294.19,0.03947
1271.04,0.04143
1247.9,0.04365
1224.75,0.05008
1201.61,0.03843
1178.46,0.05200
1155.32,0.05871
1132.17,0.08456
1109.03,0.07446
1085.88,0.07352
1062.74,0.07305
1039.59,0.08592
1016.45,0.07200
993.304,0.05726
970.159,0.06211
947.014,0.06373
923.869,0.06101
900.724,0.06265
877.579,0.06582
854.434,0.06354
831.289,0.06816
808.144,0.07206
784.999,0.06930
761.854,0.06323
738.709,0.07018
715.565,0.06482
692.42,0.06304
669.275,0.06752
646.13,0.06423
622.985,0.06466
599.84,0.06981

File: Corian_Countertop_IS_S_221003_R3.dpt
7497.03,0.38051
7473.89,0.37467
7450.74,0.34686
7427.6,0.33597
7404.45,0.33444
7381.31,0.33310
7358.16,0.32829
7335.02,0.32253
7311.87,0.30081
7288.73,0.29630
7265.58,0.28517
7242.44,0.27842
7219.29,0.26726
7196.15,0.24981
7173,0.20704
7149.86,0.12711
7126.71,0.18554
7103.57,0.18241
7080.42,0.14602
7057.28,0.10687
7034.13,0.11896
7010.99,0.15524
6987.84,0.12600
6964.7,0.11121
6941.55,0.11297
6918.41,0.10596
6895.26,0.09007
6872.12,0.12441
6848.97,0.09944
6825.83,0.12275
6802.68,0.14943
6779.54,0.17409
6756.39,0.18716
6733.25,0.20162
6710.1,0.20830
6686.96,0.20412
6663.82,0.19229
6640.67,0.17677
6617.53,0.16399
6594.38,0.13895
6571.24,0.14397
6548.09,0.16035
6524.95,0.15812
6501.8,0.15661
6478.66,0.13867
6455.51,0.13214
6432.37,0.13784
6409.22,0.15852
6386.08,0.17647
6362.93,0.18320
6339.79,0.19511
6316.64,0.20100
6293.5,0.20970
6270.35,0.21675
6247.21,0.22466
6224.06,0.24000
6200.92,0.24227
6177.77,0.24557
6154.63,0.24778
6131.48,0.25119
6108.34,0.25006
6085.19,0.24626
6062.05,0.23085
6038.9,0.20259
6015.76,0.17016
5992.61,0.15757
5969.47,0.14044
5946.32,0.13254
5923.18,0.14592
5900.03,0.15280
5876.89,0.14945
5853.74,0.14927
5830.6,0.15167
5807.45,0.15058
5784.31,0.15611
5761.16,0.16169
5738.02,0.17296
5714.87,0.17774
5691.73,0.18939
5668.58,0.19295
5645.44,0.19227
5622.29,0.18126
5599.15,0.17572
5576,0.17677
5552.86,0.18219
5529.71,0.18505
5506.57,0.17558
5483.42,0.17121
5460.28,0.16878
5437.13,0.16827
5413.99,0.16419
5390.84,0.15828
5367.7,0.15759
5344.55,0.15862
5321.41,0.15398
5298.26,0.14204
5275.12,0.12742
5251.97,0.11596
5228.83,0.11675
5205.68,0.12558
5182.54,0.12908
5159.39,0.12609
5136.25,0.12203
5113.1,0.12316
5089.96,0.12501
5066.81,0.12563
5043.67,0.12452
5020.52,0.12103
4997.38,0.11956
4974.23,0.11526
4951.09,0.11144
4927.94,0.10974
4904.8,0.10841
4881.65,0.10546
4858.51,0.10373
4835.36,0.10097
4812.22,0.09754
4789.07,0.09518
4765.93,0.08996
4742.78,0.08514
4719.64,0.08225
4696.49,0.07680
4673.35,0.07416
4650.2,0.07334
4627.06,0.06951
4603.92,0.06636
4580.77,0.06260
4557.63,0.06195
4534.48,0.05835
4511.34,0.05787
4488.19,0.05602
4465.05,0.05358
4441.9,0.05276
4418.76,0.05339
4395.61,0.05332
4372.47,0.05361
4349.32,0.05375
4326.18,0.05363
4303.03,0.05479
4279.89,0.05471
4256.74,0.05533
4233.6,0.05425
4210.45,0.05346
4187.31,0.05372
4164.16,0.05436
4141.02,0.05473
4117.87,0.05544
4094.73,0.05396
4071.58,0.05489
4048.44,0.05565
4025.29,0.05464
4002.15,0.05463
3979,0.05462
3955.86,0.05523
3932.71,0.05434
3909.57,0.05448
3886.42,0.05477
3863.28,0.05378
3840.13,0.05402
3816.99,0.05471
3793.84,0.05445
3770.7,0.05394
3747.55,0.05422
3724.41,0.05375
3701.26,0.05370
3678.12,0.05343
3654.97,0.05240
3631.83,0.05414
3608.68,0.05357
3585.54,0.05227
3562.39,0.05284
3539.25,0.05796
3516.1,0.05917
3492.96,0.06419
3469.81,0.07295
3446.67,0.06720
3423.52,0.05564
3400.38,0.05361
3377.23,0.05606
3354.09,0.05420
3330.94,0.05382
3307.8,0.05282
3284.65,0.05290
3261.51,0.05319
3238.36,0.05290
3215.22,0.05305
3192.07,0.05295
3168.93,0.05352
3145.78,0.05397
3122.64,0.05317
3099.49,0.05318
3076.35,0.05263
3053.2,0.05150
3030.06,0.04930
3006.91,0.04806
2983.77,0.04964
2960.62,0.04838
2937.48,0.05236
2914.33,0.05444
2891.19,0.05336
2868.04,0.05297
2844.9,0.05401
2821.75,0.05401
2798.61,0.05449
2775.46,0.05516
2752.32,0.05510
2729.17,0.05579
2706.03,0.05548
2682.88,0.05538
2659.74,0.05487
2636.59,0.05499
2613.45,0.05440
2590.3,0.05417
2567.16,0.05393
2544.02,0.05354
2520.87,0.05404
2497.73,0.05415
2474.58,0.05365
2451.44,0.05369
2428.29,0.05277
2405.15,0.05247
2382,0.05217
2358.86,0.05274
2335.71,0.05209
2312.57,0.05151
2289.42,0.05195
2266.28,0.05131
2243.13,0.05153
2219.99,0.05106
2196.84,0.05071
2173.7,0.05062
2150.55,0.05020
2127.41,0.04986
2104.26,0.05000
2081.12,0.04970
2057.97,0.04943
2034.83,0.04947
2011.68,0.04902
1988.54,0.04896
1965.39,0.04912
1942.25,0.04845
1919.1,0.04823
1895.96,0.04772
1872.81,0.04730
1849.67,0.04652
1826.52,0.04532
1803.38,0.04358
1780.23,0.04110
1757.09,0.03238
1733.94,0.05746
1710.8,0.07096
1687.65,0.05763
1664.51,0.05449
1641.36,0.05264
1618.22,0.05193
1595.07,0.05108
1571.93,0.04989
1548.78,0.04861
1525.64,0.04681
1502.49,0.04361
1479.35,0.04557
1456.2,0.04589
1433.06,0.05511
1409.91,0.05096
1386.77,0.04965
1363.62,0.04932
1340.48,0.04728
1317.33,0.04430
1294.19,0.03996
1271.04,0.04167
1247.9,0.04377
1224.75,0.05042
1201.61,0.03836
1178.46,0.05230
1155.32,0.05951
1132.17,0.08365
1109.03,0.07526
1085.88,0.07335
1062.74,0.07382
1039.59,0.08614
1016.45,0.07233
993.304,0.05790
970.159,0.06247
947.014,0.06331
923.869,0.06139
900.724,0.06250
877.579,0.06567
854.434,0.06388
831.289,0.06929
808.144,0.07234
784.999,0.06892
761.854,0.06344
738.709,0.07030
715.565,0.06479
692.42,0.06335
669.275,0.06872
646.13,0.06545
622.985,0.06782
599.84,0.07149

File: Corian_Countertop_IS_S_221003_R4.dpt
7497.03,0.38424
7473.89,0.35853
7450.74,0.35078
7427.6,0.34097
7404.45,0.32923
7381.31,0.33606
7358.16,0.33886
7335.02,0.31680
7311.87,0.31410
7288.73,0.29644
7265.58,0.28893
7242.44,0.27300
7219.29,0.26586
7196.15,0.24655
7173,0.20571
7149.86,0.12925
7126.71,0.18830
7103.57,0.18379
7080.42,0.14795
7057.28,0.11000
7034.13,0.11306
7010.99,0.15604
6987.84,0.12770
6964.7,0.10526
6941.55,0.11191
6918.41,0.10598
6895.26,0.09063
6872.12,0.12266
6848.97,0.09842
6825.83,0.11563
6802.68,0.16395
6779.54,0.17255
6756.39,0.18915
6733.25,0.20534
6710.1,0.21304
6686.96,0.20705
6663.82,0.19476
6640.67,0.18357
6617.53,0.16378
6594.38,0.14205
6571.24,0.14482
6548.09,0.15987
6524.95,0.15733
6501.8,0.15245
6478.66,0.14683
6455.51,0.13275
6432.37,0.14240
6409.22,0.15338
6386.08,0.17491
6362.93,0.18899
6339.79,0.19495
6316.64,0.20410
6293.5,0.21025
6270.35,0.21921
6247.21,0.22857
6224.06,0.23658
6200.92,0.24550
6177.77,0.24262
6154.63,0.24800
6131.48,0.25285
6108.34,0.25005
6085.19,0.24768
6062.05,0.23308
6038.9,0.20088
6015.76,0.16972
5992.61,0.15565
5969.47,0.14010
5946.32,0.13082
5923.18,0.14754
5900.03,0.15398
5876.89,0.14552
5853.74,0.15244
5830.6,0.15152
5807.45,0.15066
5784.31,0.15596
5761.16,0.16243
5738.02,0.17299
5714.87,0.18108
5691.73,0.18947
5668.58,0.19251
5645.44,0.19091
5622.29,0.18340
5599.15,0.17685
5576,0.17854
5552.86,0.18245
5529.71,0.18375
5506.57,0.17988
5483.42,0.17106
5460.28,0.16981
5437.13,0.17016
5413.99,0.16434
5390.84,0.15773
5367.7,0.15971
5344.55,0.15956
5321.41,0.15220
5298.26,0.14347
5275.12,0.12726
5251.97,0.11559
5228.83,0.11738
5205.68,0.12561
5182.54,0.12994
5159.39,0.12797
5136.25,0.12290
5113.1,0.12257
5089.96,0.12457
5066.81,0.12625
5043.67,0.12411
5020.52,0.12005
4997.38,0.11884
4974.23,0.11623
4951.09,0.11223
4927.94,0.10911
4904.8,0.10748
4881.65,0.10495
4858.51,0.10368
4835.36,0.10122
4812.22,0.09835
4789.07,0.09512
4765.93,0.09018
4742.78,0.08502
4719.64,0.08202
4696.49,0.07642
4673.35,0.07387
4650.2,0.07406
4627.06,0.06976
4603.92,0.06640
4580.77,0.06267
4557.63,0.06243
4534.48,0.05885
4511.34,0.05725
4488.19,0.05598
4465.05,0.05481
4441.9,0.05370
4418.76,0.05420
4395.61,0.05359
4372.47,0.05413
4349.32,0.05417
4326.18,0.05502
4303.03,0.05491
4279.89,0.05566
4256.74,0.05405
4233.6,0.05393
4210.45,0.05340
4187.31,0.05444
4164.16,0.05443
4141.02,0.05447
4117.87,0.05476
4094.73,0.05451
4071.58,0.05511
4048.44,0.05551
4025.29,0.05517
4002.15,0.05460
3979,0.05496
3955.86,0.05521
3932.71,0.05450
3909.57,0.05409
3886.42,0.05364
3863.28,0.05436
3840.13,0.05424
3816.99,0.05386
3793.84,0.05490
3770.7,0.05358
3747.55,0.05336
3724.41,0.05366
3701.26,0.05283
3678.12,0.05329
3654.97,0.05264
3631.83,0.05372
3608.68,0.05400
3585.54,0.05287
3562.39,0.05339
3539.25,0.05812
3516.1,0.05812
3492.96,0.06390
3469.81,0.07325
3446.67,0.06748
3423.52,0.05593
3400.38,0.05391
3377.23,0.05632
3354.09,0.05390
3330.94,0.05394
3307.8,0.05357
3284.65,0.05346
3261.51,0.05338
3238.36,0.05289
3215.22,0.05324
3192.07,0.05342
3168.93,0.05345
3145.78,0.05429
3122.64,0.05362
3099.49,0.05344
3076.35,0.05314
3053.2,0.05158
3030.06,0.04938
3006.91,0.04823
2983.77,0.05011
2960.62,0.04836
2937.48,0.05304
2914.33,0.05445
2891.19,0.05341
2868.04,0.05331
2844.9,0.05383
2821.75,0.05417
2798.61,0.05462
2775.46,0.05474
2752.32,0.05478
2729.17,0.05582
2706.03,0.05585
2682.88,0.05565
2659.74,0.05481
2636.59,0.05447
2613.45,0.05484
2590.3,0.05392
2567.16,0.05431
2544.02,0.05372
2520.87,0.05447
2497.73,0.05443
2474.58,0.05417
2451.44,0.05386
2428.29,0.05339
2405.15,0.05307
2382,0.05256
2358.86,0.05260
2335.71,0.05249
2312.57,0.05210
2289.42,0.05208
2266.28,0.05169
2243.13,0.05160
2219.99,0.05111
2196.84,0.05070
2173.7,0.05050
2150.55,0.05017
2127.41,0.05024
2104.26,0.05021
2081.12,0.04990
2057.97,0.04993
2034.83,0.04934
2011.68,0.04927
1988.54,0.04890
1965.39,0.04891
1942.25,0.04880
1919.1,0.04852
1895.96,0.04801
1872.81,0.04739
1849.67,0.04664
1826.52,0.04561
1803.38,0.04404
1780.23,0.04105
1757.09,0.03229
1733.94,0.05712
1710.8,0.07114
1687.65,0.05797
1664.51,0.05445
1641.36,0.05282
1618.22,0.05233
1595.07,0.05143
1571.93,0.04996
1548.78,0.04858
1525.64,0.04703
1502.49,0.04382
1479.35,0.04529
1456.2,0.04577
1433.06,0.05522
1409.91,0.05061
1386.77,0.04937
1363.62,0.04939
1340.48,0.04725
1317.33,0.04431
1294.19,0.04001
1271.04,0.04126
1247.9,0.04385
1224.75,0.05040
1201.61,0.03872
1178.46,0.05218
1155.32,0.05958
1132.17,0.08343
1109.03,0.07571
1085.88,0.07385
1062.74,0.07420
1039.59,0.08673
1016.45,0.07261
993.304,0.05791
970.159,0.06217
947.014,0.06355
923.869,0.06182
900.724,0.06305
877.579,0.06591
854.434,0.06377
831.289,0.06811
808.144,0.07114
784.999,0.06964
761.854,0.06312
738.709,0.07110
715.565,0.06603
692.42,0.06294
669.275,0.06831
646.13,0.06486
622.985,0.06605
599.84,0.07192

File: Corian_Countertop_IS_S_221003_R5.dpt
7497.03,0.38673
7473.89,0.35462
7450.74,0.34930
7427.6,0.33650
7404.45,0.32956
7381.31,0.33196
7358.16,0.32915
7335.02,0.32387
7311.87,0.31076
7288.73,0.29427
7265.58,0.28852
7242.44,0.27242
7219.29,0.27261
7196.15,0.24441
7173,0.20336
7149.86,0.12474
7126.71,0.19020
7103.57,0.18120
7080.42,0.14381
7057.28,0.10921
7034.13,0.11678
7010.99,0.15208
6987.84,0.12568
6964.7,0.11157
6941.55,0.11923
6918.41,0.10742
6895.26,0.08588
6872.12,0.11758
6848.97,0.09762
6825.83,0.12303
6802.68,0.14756
6779.54,0.17715
6756.39,0.19138
6733.25,0.20111
6710.1,0.21326
6686.96,0.20451
6663.82,0.19778
6640.67,0.18513
6617.53,0.16422
6594.38,0.14262
6571.24,0.14557
6548.09,0.16086
6524.95,0.15888
6501.8,0.15431
6478.66,0.14446
6455.51,0.12915
6432.37,0.13773
6409.22,0.15622
6386.08,0.17596
6362.93,0.18804
6339.79,0.19741
6316.64,0.19866
6293.5,0.20852
6270.35,0.21863
6247.21,0.22700
6224.06,0.24006
6200.92,0.24325
6177.77,0.24481
6154.63,0.24938
6131.48,0.25309
6108.34,0.25132
6085.19,0.24706
6062.05,0.23280
6038.9,0.20257
6015.76,0.17219
5992.61,0.15382
5969.47,0.13988
5946.32,0.13326
5923.18,0.14686
5900.03,0.15235
5876.89,0.14868
5853.74,0.15104
5830.6,0.14983
5807.45,0.15394
5784.31,0.15320
5761.16,0.16238
5738.02,0.17110
5714.87,0.18159
5691.73,0.18627
5668.58,0.19117
5645.44,0.19300
5622.29,0.18275
5599.15,0.17840
5576,0.17897
5552.86,0.18242
5529.71,0.18317
5506.57,0.17654
5483.42,0.17298
5460.28,0.16922
5437.13,0.16761
5413.99,0.16432
5390.84,0.15850
5367.7,0.15779
5344.55,0.15860
5321.41,0.15268
5298.26,0.14390
5275.12,0.12833
5251.97,0.11527
5228.83,0.11767
5205.68,0.12561
5182.54,0.12873
5159.39,0.12749
5136.25,0.12291
5113.1,0.12254
5089.96,0.12583
5066.81,0.12669
5043.67,0.12542
5020.52,0.12130
4997.38,0.11783
4974.23,0.11588
4951.09,0.11258
4927.94,0.11064
4904.8,0.10746
4881.65,0.10627
4858.51,0.10412
4835.36,0.10167
4812.22,0.09813
4789.07,0.09495
4765.93,0.08936
4742.78,0.08331
4719.64,0.08197
4696.49,0.07649
4673.35,0.07519
4650.2,0.07387
4627.06,0.06851
4603.92,0.06586
4580.77,0.06208
4557.63,0.06116
4534.48,0.05857
4511.34,0.05749
4488.19,0.05535
4465.05,0.05457
4441.9,0.05244
4418.76,0.05380
4395.61,0.05360
4372.47,0.05430
4349.32,0.05426
4326.18,0.05468
4303.03,0.05410
4279.89,0.05395
4256.74,0.05505
4233.6,0.05451
4210.45,0.05472
4187.31,0.05409
4164.16,0.05445
4141.02,0.05457
4117.87,0.05456
4094.73,0.05525
4071.58,0.05478
4048.44,0.05479
4025.29,0.05509
4002.15,0.05550
3979,0.05536
3955.86,0.05525
3932.71,0.05368
3909.57,0.05444
3886.42,0.05383
3863.28,0.05414
3840.13,0.05474
3816.99,0.05549
3793.84,0.05396
3770.7,0.05373
3747.55,0.05338
3724.41,0.05416
3701.26,0.05362
3678.12,0.05265
3654.97,0.05258
3631.83,0.05448
3608.68,0.05419
3585.54,0.05210
3562.39,0.05322
3539.25,0.05756
3516.1,0.05870
3492.96,0.06462
3469.81,0.07292
3446.67,0.06752
3423.52,0.05588
3400.38,0.05364
3377.23,0.05695
3354.09,0.05435
3330.94,0.05348
3307.8,0.05361
3284.65,0.05284
3261.51,0.05333
3238.36,0.05262
3215.22,0.05275
3192.07,0.05363
3168.93,0.05377
3145.78,0.05398
3122.64,0.05301
3099.49,0.05319
3076.35,0.05233
3053.2,0.05137
3030.06,0.04921
3006.91,0.04851
2983.77,0.05006
2960.62,0.04858
2937.48,0.05284
2914.33,0.05516
2891.19,0.05341
2868.04,0.05343
2844.9,0.05425
2821.75,0.05399
2798.61,0.05458
2775.46,0.05516
2752.32,0.05562
2729.17,0.05605
2706.03,0.05536
2682.88,0.05564
2659.74,0.05461
2636.59,0.05444
2613.45,0.05430
2590.3,0.05417
2567.16,0.05374
2544.02,0.05350
2520.87,0.05377
2497.73,0.05399
2474.58,0.05380
2451.44,0.05334
2428.29,0.05251
2405.15,0.05283
2382,0.05244
2358.86,0.05266
2335.71,0.05229
2312.57,0.05214
2289.42,0.05193
2266.28,0.05170
2243.13,0.05147
2219.99,0.05137
2196.84,0.05112
2173.7,0.05059
2150.55,0.05048
2127.41,0.05020
2104.26,0.04973
2081.12,0.04960
2057.97,0.04967
2034.83,0.04923
2011.68,0.04910
1988.54,0.04897
1965.39,0.04908
1942.25,0.04888
1919.1,0.04862
1895.96,0.04823
1872.81,0.04761
1849.67,0.04619
1826.52,0.04568
1803.38,0.04395
1780.23,0.04066
1757.09,0.03233
1733.94,0.05736
1710.8,0.07085
1687.65,0.05776
1664.51,0.05427
1641.36,0.05271
1618.22,0.05171
1595.07,0.05144
1571.93,0.04962
1548.78,0.04886
1525.64,0.04705
1502.49,0.04351
1479.35,0.04556
1456.2,0.04598
1433.06,0.05510
1409.91,0.05109
1386.77,0.04951
1363.62,0.04926
1340.48,0.04701
1317.33,0.04394
1294.19,0.03977
1271.04,0.04152
1247.9,0.04370
1224.75,0.04987
1201.61,0.03833
1178.46,0.05219
1155.32,0.05931
1132.17,0.08405
1109.03,0.07560
1085.88,0.07396
1062.74,0.07388
1039.59,0.08613
1016.45,0.07238
993.304,0.05861
970.159,0.06247
947.014,0.06372
923.869,0.06185
900.724,0.06272
877.579,0.06570
854.434,0.06343
831.289,0.06850
808.144,0.07211
784.999,0.06983
761.854,0.06283
738.709,0.07043
715.565,0.06618
692.42,0.06338
669.275,0.06789
646.13,0.06442
622.985,0.06608
599.84,0.07224