Folder: fsri_materials_database/01_Data/Corian_Countertop/FTIR/IS (part 2)

File: Corian_Countertop_IS_S_221003_R6.dpt
7497.03,0.37666
7473.89,0.36493
7450.74,0.34398
7427.6,0.32904
7404.45,0.33706
7381.31,0.33296
7358.16,0.32771
7335.02,0.31799
7311.87,0.30875
7288.73,0.28447
7265.58,0.28510
7242.44,0.27244
7219.29,0.25839
7196.15,0.24496
7173,0.20399
7149.86,0.12250
7126.71,0.19107
7103.57,0.18174
7080.42,0.14900
7057.28,0.10564
7034.13,0.12005
7010.99,0.15131
6987.84,0.12648
6964.7,0.10976
6941.55,0.11353
6918.41,0.10501
6895.26,0.08902
6872.12,0.11792
6848.97,0.09430
6825.83,0.12622
6802.68,0.15209
6779.54,0.17639
6756.39,0.19217
6733.25,0.19848
6710.1,0.20397
6686.96,0.20891
6663.82,0.19472
6640.67,0.18554
6617.53,0.16163
6594.38,0.14159
6571.24,0.14572
6548.09,0.16083
6524.95,0.15801
6501.8,0.15463
6478.66,0.14115
6455.51,0.13259
6432.37,0.13517
6409.22,0.15951
6386.08,0.17785
6362.93,0.18792
6339.79,0.19143
6316.64,0.20261
6293.5,0.20888
6270.35,0.21782
6247.21,0.23156
6224.06,0.23734
6200.92,0.23917
6177.77,0.23982
6154.63,0.24577
6131.48,0.25008
6108.34,0.24903
6085.19,0.24453
6062.05,0.23129
6038.9,0.19892
6015.76,0.16926
5992.61,0.15510
5969.47,0.13971
5946.32,0.13018
5923.18,0.14597
5900.03,0.15106
5876.89,0.14723
5853.74,0.14959
5830.6,0.15163
5807.45,0.15245
5784.31,0.15715
5761.16,0.16048
5738.02,0.17011
5714.87,0.17713
5691.73,0.18635
5668.58,0.19299
5645.44,0.19163
5622.29,0.17882
5599.15,0.17522
5576,0.17948
5552.86,0.18085
5529.71,0.18153
5506.57,0.17599
5483.42,0.17069
5460.28,0.16686
5437.13,0.16769
5413.99,0.16389
5390.84,0.15658
5367.7,0.15860
5344.55,0.15764
5321.41,0.15270
5298.26,0.14173
5275.12,0.12587
5251.97,0.11632
5228.83,0.11596
5205.68,0.12518
5182.54,0.12883
5159.39,0.12497
5136.25,0.12282
5113.1,0.12243
5089.96,0.12435
5066.81,0.12639
5043.67,0.12210
5020.52,0.12079
4997.38,0.11798
4974.23,0.11551
4951.09,0.11252
4927.94,0.10850
4904.8,0.10695
4881.65,0.10464
4858.51,0.10243
4835.36,0.10055
4812.22,0.09751
4789.07,0.09547
4765.93,0.08954
4742.78,0.08521
4719.64,0.08096
4696.49,0.07606
4673.35,0.07367
4650.2,0.07316
4627.06,0.06846
4603.92,0.06612
4580.77,0.06263
4557.63,0.06112
4534.48,0.05890
4511.34,0.05689
4488.19,0.05485
4465.05,0.05386
4441.9,0.05282
4418.76,0.05380
4395.61,0.05288
4372.47,0.05311
4349.32,0.05338
4326.18,0.05421
4303.03,0.05366
4279.89,0.05540
4256.74,0.05423
4233.6,0.05337
4210.45,0.05407
4187.31,0.05413
4164.16,0.05410
4141.02,0.05484
4117.87,0.05422
4094.73,0.05373
4071.58,0.05455
4048.44,0.05468
4025.29,0.05463
4002.15,0.05521
3979,0.05475
3955.86,0.05392
3932.71,0.05413
3909.57,0.05428
3886.42,0.05372
3863.28,0.05420
3840.13,0.05405
3816.99,0.05332
3793.84,0.05443
3770.7,0.05421
3747.55,0.05384
3724.41,0.05282
3701.26,0.05273
3678.12,0.05273
3654.97,0.05213
3631.83,0.05364
3608.68,0.05246
3585.54,0.05227
3562.39,0.05319
3539.25,0.05824
3516.1,0.05828
3492.96,0.06378
3469.81,0.07280
3446.67,0.06675
3423.52,0.05510
3400.38,0.05292
3377.23,0.05598
3354.09,0.05440
3330.94,0.05382
3307.8,0.05285
3284.65,0.05266
3261.51,0.05248
3238.36,0.05327
3215.22,0.05333
3192.07,0.05343
3168.93,0.05333
3145.78,0.05265
3122.64,0.05289
3099.49,0.05281
3076.35,0.05274
3053.2,0.05106
3030.06,0.04839
3006.91,0.04848
2983.77,0.04960
2960.62,0.04816
2937.48,0.05253
2914.33,0.05446
2891.19,0.05306
2868.04,0.05287
2844.9,0.05345
2821.75,0.05364
2798.61,0.05455
2775.46,0.05466
2752.32,0.05471
2729.17,0.05473
2706.03,0.05514
2682.88,0.05504
2659.74,0.05505
2636.59,0.05414
2613.45,0.05381
2590.3,0.05349
2567.16,0.05375
2544.02,0.05354
2520.87,0.05328
2497.73,0.05355
2474.58,0.05377
2451.44,0.05345
2428.29,0.05256
2405.15,0.05254
2382,0.05230
2358.86,0.05193
2335.71,0.05181
2312.57,0.05187
2289.42,0.05169
2266.28,0.05134
2243.13,0.05146
2219.99,0.05074
2196.84,0.05025
2173.7,0.04982
2150.55,0.04994
2127.41,0.04937
2104.26,0.04969
2081.12,0.04943
2057.97,0.04885
2034.83,0.04920
2011.68,0.04903
1988.54,0.04891
1965.39,0.04869
1942.25,0.04800
1919.1,0.04787
1895.96,0.04779
1872.81,0.04711
1849.67,0.04600
1826.52,0.04523
1803.38,0.04387
1780.23,0.04065
1757.09,0.03149
1733.94,0.05700
1710.8,0.07047
1687.65,0.05698
1664.51,0.05413
1641.36,0.05225
1618.22,0.05158
1595.07,0.05084
1571.93,0.04986
1548.78,0.04817
1525.64,0.04675
1502.49,0.04353
1479.35,0.04504
1456.2,0.04558
1433.06,0.05492
1409.91,0.05019
1386.77,0.04925
1363.62,0.04876
1340.48,0.04695
1317.33,0.04411
1294.19,0.03935
1271.04,0.04118
1247.9,0.04365
1224.75,0.05006
1201.61,0.03831
1178.46,0.05169
1155.32,0.05868
1132.17,0.08366
1109.03,0.07438
1085.88,0.07268
1062.74,0.07308
1039.59,0.08632
1016.45,0.07216
993.304,0.05755
970.159,0.06155
947.014,0.06313
923.869,0.06157
900.724,0.06197
877.579,0.06537
854.434,0.06333
831.289,0.06740
808.144,0.07092
784.999,0.06923
761.854,0.06324
738.709,0.07061
715.565,0.06486
692.42,0.06394
669.275,0.06658
646.13,0.06523
622.985,0.06637
599.84,0.07096

File: Corian_Countertop_IS_S_221003_R7.dpt
7497.03,0.38237
7473.89,0.36382
7450.74,0.34742
7427.6,0.33366
7404.45,0.33924
7381.31,0.33132
7358.16,0.32636
7335.02,0.31125
7311.87,0.30286
7288.73,0.29997
7265.58,0.28916
7242.44,0.27480
7219.29,0.26751
7196.15,0.24923
7173,0.20989
7149.86,0.12519
7126.71,0.18680
7103.57,0.18536
7080.42,0.15549
7057.28,0.10694
7034.13,0.11763
7010.99,0.15330
6987.84,0.12751
6964.7,0.10831
6941.55,0.11745
6918.41,0.10616
6895.26,0.09400
6872.12,0.12122
6848.97,0.09779
6825.83,0.11971
6802.68,0.15772
6779.54,0.18225
6756.39,0.19106
6733.25,0.19909
6710.1,0.20461
6686.96,0.20377
6663.82,0.19727
6640.67,0.18424
6617.53,0.16817
6594.38,0.13853
6571.24,0.14476
6548.09,0.15624
6524.95,0.16417
6501.8,0.15395
6478.66,0.14296
6455.51,0.12935
6432.37,0.13889
6409.22,0.15958
6386.08,0.17845
6362.93,0.18964
6339.79,0.19415
6316.64,0.20229
6293.5,0.20927
6270.35,0.22032
6247.21,0.23400
6224.06,0.23950
6200.92,0.24128
6177.77,0.24312
6154.63,0.24621
6131.48,0.25128
6108.34,0.24706
6085.19,0.24911
6062.05,0.23206
6038.9,0.20180
6015.76,0.16986
5992.61,0.15789
5969.47,0.13955
5946.32,0.13273
5923.18,0.14806
5900.03,0.15308
5876.89,0.14931
5853.74,0.15109
5830.6,0.15570
5807.45,0.14974
5784.31,0.15546
5761.16,0.16215
5738.02,0.17295
5714.87,0.17827
5691.73,0.18710
5668.58,0.19391
5645.44,0.19190
5622.29,0.18062
5599.15,0.17581
5576,0.17715
5552.86,0.18149
5529.71,0.18417
5506.57,0.17588
5483.42,0.17195
5460.28,0.16972
5437.13,0.16907
5413.99,0.16435
5390.84,0.15826
5367.7,0.15925
5344.55,0.16054
5321.41,0.15302
5298.26,0.14334
5275.12,0.12795
5251.97,0.11797
5228.83,0.11698
5205.68,0.12475
5182.54,0.12930
5159.39,0.12659
5136.25,0.12534
5113.1,0.12229
5089.96,0.12593
5066.81,0.12497
5043.67,0.12361
5020.52,0.12158
4997.38,0.11948
4974.23,0.11593
4951.09,0.11229
4927.94,0.10945
4904.8,0.10656
4881.65,0.10519
4858.51,0.10372
4835.36,0.09972
4812.22,0.09791
4789.07,0.09462
4765.93,0.08985
4742.78,0.08451
4719.64,0.08159
4696.49,0.07710
4673.35,0.07383
4650.2,0.07385
4627.06,0.06947
4603.92,0.06608
4580.77,0.06336
4557.63,0.06186
4534.48,0.05871
4511.34,0.05747
4488.19,0.05565
4465.05,0.05377
4441.9,0.05340
4418.76,0.05384
4395.61,0.05389
4372.47,0.05375
4349.32,0.05482
4326.18,0.05449
4303.03,0.05546
4279.89,0.05441
4256.74,0.05457
4233.6,0.05421
4210.45,0.05442
4187.31,0.05388
4164.16,0.05448
4141.02,0.05414
4117.87,0.05443
4094.73,0.05502
4071.58,0.05536
4048.44,0.05502
4025.29,0.05523
4002.15,0.05500
3979,0.05486
3955.86,0.05531
3932.71,0.05475
3909.57,0.05441
3886.42,0.05439
3863.28,0.05406
3840.13,0.05401
3816.99,0.05404
3793.84,0.05445
3770.7,0.05430
3747.55,0.05402
3724.41,0.05391
3701.26,0.05276
3678.12,0.05335
3654.97,0.05292
3631.83,0.05399
3608.68,0.05370
3585.54,0.05323
3562.39,0.05336
3539.25,0.05774
3516.1,0.05877
3492.96,0.06433
3469.81,0.07344
3446.67,0.06727
3423.52,0.05551
3400.38,0.05277
3377.23,0.05633
3354.09,0.05391
3330.94,0.05374
3307.8,0.05314
3284.65,0.05289
3261.51,0.05363
3238.36,0.05331
3215.22,0.05302
3192.07,0.05367
3168.93,0.05352
3145.78,0.05378
3122.64,0.05395
3099.49,0.05305
3076.35,0.05246
3053.2,0.05166
3030.06,0.04963
3006.91,0.04860
2983.77,0.04983
2960.62,0.04858
2937.48,0.05257
2914.33,0.05473
2891.19,0.05329
2868.04,0.05322
2844.9,0.05439
2821.75,0.05401
2798.61,0.05458
2775.46,0.05459
2752.32,0.05490
2729.17,0.05522
2706.03,0.05546
2682.88,0.05528
2659.74,0.05459
2636.59,0.05483
2613.45,0.05439
2590.3,0.05377
2567.16,0.05396
2544.02,0.05350
2520.87,0.05399
2497.73,0.05368
2474.58,0.05343
2451.44,0.05364
2428.29,0.05267
2405.15,0.05268
2382,0.05238
2358.86,0.05265
2335.71,0.05253
2312.57,0.05225
2289.42,0.05211
2266.28,0.05128
2243.13,0.05162
2219.99,0.05129
2196.84,0.05080
2173.7,0.05105
2150.55,0.05013
2127.41,0.05005
2104.26,0.05000
2081.12,0.04984
2057.97,0.04956
2034.83,0.04921
2011.68,0.04917
1988.54,0.04914
1965.39,0.04875
1942.25,0.04880
1919.1,0.04881
1895.96,0.04790
1872.81,0.04724
1849.67,0.04666
1826.52,0.04536
1803.38,0.04355
1780.23,0.04131
1757.09,0.03214
1733.94,0.05709
1710.8,0.07083
1687.65,0.05754
1664.51,0.05468
1641.36,0.05261
1618.22,0.05199
1595.07,0.05132
1571.93,0.04986
1548.78,0.04835
1525.64,0.04705
1502.49,0.04369
1479.35,0.04517
1456.2,0.04595
1433.06,0.05470
1409.91,0.05105
1386.77,0.04945
1363.62,0.04934
1340.48,0.04741
1317.33,0.04444
1294.19,0.03971
1271.04,0.04162
1247.9,0.04385
1224.75,0.04985
1201.61,0.03850
1178.46,0.05251
1155.32,0.05923
1132.17,0.08427
1109.03,0.07538
1085.88,0.07372
1062.74,0.07408
1039.59,0.08642
1016.45,0.07218
993.304,0.05845
970.159,0.06235
947.014,0.06306
923.869,0.06198
900.724,0.06290
877.579,0.06610
854.434,0.06418
831.289,0.06911
808.144,0.07149
784.999,0.07009
761.854,0.06265
738.709,0.07026
715.565,0.06484
692.42,0.06287
669.275,0.06804
646.13,0.06446
622.985,0.06646
599.84,0.06936

File: Corian_Countertop_IS_S_221003_R8.dpt
7497.03,0.38190
7473.89,0.37421
7450.74,0.34474
7427.6,0.33761
7404.45,0.32975
7381.31,0.33192
7358.16,0.32693
7335.02,0.31129
7311.87,0.30815
7288.73,0.29162
7265.58,0.28335
7242.44,0.26654
7219.29,0.26450
7196.15,0.23832
7173,0.20863
7149.86,0.12416
7126.71,0.18813
7103.57,0.18223
7080.42,0.14847
7057.28,0.10925
7034.13,0.11939
7010.99,0.15529
6987.84,0.12481
6964.7,0.10484
6941.55,0.11373
6918.41,0.11170
6895.26,0.09078
6872.12,0.12011
6848.97,0.09479
6825.83,0.12077
6802.68,0.16060
6779.54,0.17511
6756.39,0.18747
6733.25,0.20552
6710.1,0.20353
6686.96,0.20556
6663.82,0.19686
6640.67,0.18456
6617.53,0.16538
6594.38,0.13894
6571.24,0.14701
6548.09,0.16241
6524.95,0.16268
6501.8,0.15067
6478.66,0.14058
6455.51,0.13404
6432.37,0.13776
6409.22,0.15957
6386.08,0.17669
6362.93,0.18204
6339.79,0.19332
6316.64,0.20072
6293.5,0.20637
6270.35,0.21862
6247.21,0.23033
6224.06,0.23567
6200.92,0.24097
6177.77,0.24264
6154.63,0.24564
6131.48,0.25035
6108.34,0.24850
6085.19,0.24526
6062.05,0.23300
6038.9,0.20250
6015.76,0.16977
5992.61,0.15675
5969.47,0.14064
5946.32,0.13372
5923.18,0.14714
5900.03,0.15219
5876.89,0.14728
5853.74,0.14963
5830.6,0.15229
5807.45,0.15058
5784.31,0.15442
5761.16,0.16122
5738.02,0.17207
5714.87,0.17910
5691.73,0.18601
5668.58,0.19308
5645.44,0.19165
5622.29,0.18099
5599.15,0.17642
5576,0.17727
5552.86,0.18187
5529.71,0.18086
5506.57,0.17492
5483.42,0.17076
5460.28,0.16775
5437.13,0.16716
5413.99,0.16148
5390.84,0.15603
5367.7,0.15878
5344.55,0.15902
5321.41,0.15233
5298.26,0.14322
5275.12,0.12665
5251.97,0.11619
5228.83,0.11658
5205.68,0.12457
5182.54,0.12979
5159.39,0.12781
5136.25,0.12197
5113.1,0.12013
5089.96,0.12447
5066.81,0.12510
5043.67,0.12339
5020.52,0.12141
4997.38,0.11765
4974.23,0.11490
4951.09,0.11199
4927.94,0.10924
4904.8,0.10712
4881.65,0.10402
4858.51,0.10266
4835.36,0.10020
4812.22,0.09651
4789.07,0.09510
4765.93,0.08990
4742.78,0.08445
4719.64,0.08171
4696.49,0.07685
4673.35,0.07331
4650.2,0.07264
4627.06,0.06906
4603.92,0.06562
4580.77,0.06199
4557.63,0.06068
4534.48,0.05897
4511.34,0.05720
4488.19,0.05599
4465.05,0.05380
4441.9,0.05340
4418.76,0.05360
4395.61,0.05322
4372.47,0.05377
4349.32,0.05464
4326.18,0.05457
4303.03,0.05427
4279.89,0.05497
4256.74,0.05457
4233.6,0.05431
4210.45,0.05404
4187.31,0.05483
4164.16,0.05435
4141.02,0.05380
4117.87,0.05425
4094.73,0.05420
4071.58,0.05498
4048.44,0.05502
4025.29,0.05496
4002.15,0.05478
3979,0.05474
3955.86,0.05537
3932.71,0.05450
3909.57,0.05364
3886.42,0.05435
3863.28,0.05318
3840.13,0.05433
3816.99,0.05391
3793.84,0.05419
3770.7,0.05383
3747.55,0.05314
3724.41,0.05394
3701.26,0.05302
3678.12,0.05320
3654.97,0.05243
3631.83,0.05461
3608.68,0.05361
3585.54,0.05262
3562.39,0.05306
3539.25,0.05763
3516.1,0.05849
3492.96,0.06397
3469.81,0.07311
3446.67,0.06678
3423.52,0.05476
3400.38,0.05375
3377.23,0.05643
3354.09,0.05400
3330.94,0.05348
3307.8,0.05331
3284.65,0.05311
3261.51,0.05217
3238.36,0.05311
3215.22,0.05268
3192.07,0.05375
3168.93,0.05305
3145.78,0.05352
3122.64,0.05236
3099.49,0.05265
3076.35,0.05249
3053.2,0.05147
3030.06,0.04901
3006.91,0.04815
2983.77,0.04980
2960.62,0.04835
2937.48,0.05205
2914.33,0.05414
2891.19,0.05279
2868.04,0.05324
2844.9,0.05392
2821.75,0.05359
2798.61,0.05442
2775.46,0.05454
2752.32,0.05512
2729.17,0.05540
2706.03,0.05563
2682.88,0.05541
2659.74,0.05479
2636.59,0.05370
2613.45,0.05395
2590.3,0.05371
2567.16,0.05342
2544.02,0.05360
2520.87,0.05325
2497.73,0.05362
2474.58,0.05376
2451.44,0.05301
2428.29,0.05277
2405.15,0.05256
2382,0.05236
2358.86,0.05187
2335.71,0.05193
2312.57,0.05186
2289.42,0.05152
2266.28,0.05166
2243.13,0.05129
2219.99,0.05076
2196.84,0.05043
2173.7,0.05035
2150.55,0.04978
2127.41,0.04987
2104.26,0.04946
2081.12,0.04968
2057.97,0.04905
2034.83,0.04894
2011.68,0.04876
1988.54,0.04822
1965.39,0.04839
1942.25,0.04826
1919.1,0.04825
1895.96,0.04754
1872.81,0.04699
1849.67,0.04613
1826.52,0.04501
1803.38,0.04363
1780.23,0.04059
1757.09,0.03211
1733.94,0.05678
1710.8,0.07043
1687.65,0.05748
1664.51,0.05407
1641.36,0.05226
1618.22,0.05173
1595.07,0.05082
1571.93,0.04946
1548.78,0.04794
1525.64,0.04654
1502.49,0.04378
1479.35,0.04521
1456.2,0.04541
1433.06,0.05458
1409.91,0.05053
1386.77,0.04916
1363.62,0.04901
1340.48,0.04680
1317.33,0.04399
1294.19,0.03910
1271.04,0.04128
1247.9,0.04361
1224.75,0.05001
1201.61,0.03812
1178.46,0.05173
1155.32,0.05918
1132.17,0.08409
1109.03,0.07469
1085.88,0.07365
1062.74,0.07368
1039.59,0.08594
1016.45,0.07199
993.304,0.05786
970.159,0.06183
947.014,0.06315
923.869,0.06110
900.724,0.06216
877.579,0.06522
854.434,0.06331
831.289,0.06802
808.144,0.07148
784.999,0.06958
761.854,0.06353
738.709,0.07005
715.565,0.06649
692.42,0.06468
669.275,0.06830
646.13,0.06527
622.985,0.06521
599.84,0.06980

File: Corian_Countertop_IS_T_221003_R5.dpt
7497.03,0.02864
7473.89,0.03042
7450.74,0.02792
7427.6,0.02485
7404.45,0.02428
7381.31,0.02018
7358.16,0.02279
7335.02,0.02642
7311.87,0.02737
7288.73,0.02918
7265.58,0.02040
7242.44,0.01671
7219.29,0.02201
7196.15,0.01874
7173,0.03105
7149.86,0.02016
7126.71,0.02624
7103.57,0.02518
7080.42,0.01719
7057.28,0.01967
7034.13,0.02807
7010.99,0.01875
6987.84,0.01852
6964.7,0.03244
6941.55,0.02133
6918.41,0.02518
6895.26,0.01782
6872.12,0.02431
6848.97,0.01837
6825.83,0.02284
6802.68,0.02246
6779.54,0.02359
6756.39,0.02264
6733.25,0.02134
6710.1,0.02323
6686.96,0.02535
6663.82,0.02472
6640.67,0.02042
6617.53,0.02344
6594.38,0.02708
6571.24,0.02259
6548.09,0.02378
6524.95,0.02068
6501.8,0.02182
6478.66,0.02516
6455.51,0.02290
6432.37,0.02222
6409.22,0.02339
6386.08,0.02493
6362.93,0.02251
6339.79,0.02255
6316.64,0.02185
6293.5,0.02284
6270.35,0.02640
6247.21,0.02513
6224.06,0.02175
6200.92,0.02235
6177.77,0.02387
6154.63,0.02043
6131.48,0.01882
6108.34,0.02250
6085.19,0.02308
6062.05,0.02374
6038.9,0.02320
6015.76,0.02314
5992.61,0.01942
5969.47,0.02279
5946.32,0.02258
5923.18,0.02108
5900.03,0.02153
5876.89,0.02143
5853.74,0.01972
5830.6,0.02282
5807.45,0.02185
5784.31,0.02084
5761.16,0.02103
5738.02,0.02218
5714.87,0.02115
5691.73,0.02182
5668.58,0.02197
5645.44,0.02178
5622.29,0.02106
5599.15,0.02129
5576,0.02284
5552.86,0.02280
5529.71,0.02217
5506.57,0.02123
5483.42,0.02087
5460.28,0.02240
5437.13,0.02232
5413.99,0.02262
5390.84,0.02345
5367.7,0.02466
5344.55,0.02277
5321.41,0.02267
5298.26,0.02251
5275.12,0.02179
5251.97,0.02154
5228.83,0.02118
5205.68,0.02129
5182.54,0.02119
5159.39,0.02309
5136.25,0.02237
5113.1,0.02238
5089.96,0.02152
5066.81,0.02092
5043.67,0.02152
5020.52,0.02283
4997.38,0.02321
4974.23,0.02245
4951.09,0.02322
4927.94,0.02240
4904.8,0.02195
4881.65,0.02253
4858.51,0.02234
4835.36,0.02195
4812.22,0.02242
4789.07,0.02386
4765.93,0.02235
4742.78,0.02252
4719.64,0.02242
4696.49,0.02237
4673.35,0.02327
4650.2,0.02130
4627.06,0.02284
4603.92,0.02247
4580.77,0.02245
4557.63,0.02208
4534.48,0.02168
4511.34,0.02283
4488.19,0.02212
4465.05,0.02274
4441.9,0.02227
4418.76,0.02208
4395.61,0.02257
4372.47,0.02203
4349.32,0.02236
4326.18,0.02225
4303.03,0.02303
4279.89,0.02318
4256.74,0.02251
4233.6,0.02272
4210.45,0.02249
4187.31,0.02196
4164.16,0.02247
4141.02,0.02241
4117.87,0.02258
4094.73,0.02293
4071.58,0.02242
4048.44,0.02235
4025.29,0.02268
4002.15,0.02271
3979,0.02275
3955.86,0.02259
3932.71,0.02278
3909.57,0.02256
3886.42,0.02292
3863.28,0.02251
3840.13,0.02222
3816.99,0.02231
3793.84,0.02243
3770.7,0.02243
3747.55,0.02327
3724.41,0.02265
3701.26,0.02283
3678.12,0.02232
3654.97,0.02204
3631.83,0.02170
3608.68,0.02169
3585.54,0.02156
3562.39,0.02148
3539.25,0.02140
3516.1,0.02125
3492.96,0.02074
3469.81,0.02108
3446.67,0.02084
3423.52,0.02096
3400.38,0.01968
3377.23,0.02071
3354.09,0.02000
3330.94,0.02010
3307.8,0.02019
3284.65,0.02038
3261.51,0.02017
3238.36,0.02013
3215.22,0.02122
3192.07,0.02051
3168.93,0.02097
3145.78,0.02087
3122.64,0.02074
3099.49,0.02059
3076.35,0.02050
3053.2,0.02034
3030.06,0.02027
3006.91,0.02004
2983.77,0.01946
2960.62,0.01948
2937.48,0.01939
2914.33,0.02038
2891.19,0.02001
2868.04,0.02061
2844.9,0.02033
2821.75,0.02075
2798.61,0.02148
2775.46,0.02134
2752.32,0.02144
2729.17,0.02166
2706.03,0.02143
2682.88,0.02142
2659.74,0.02126
2636.59,0.02113
2613.45,0.02158
2590.3,0.02100
2567.16,0.02091
2544.02,0.02088
2520.87,0.02103
2497.73,0.02138
2474.58,0.02107
2451.44,0.02088
2428.29,0.02083
2405.15,0.02104
2382,0.02096
2358.86,0.02133
2335.71,0.02107
2312.57,0.02078
2289.42,0.02094
2266.28,0.02093
2243.13,0.02085
2219.99,0.02096
2196.84,0.02083
2173.7,0.02101
2150.55,0.02071
2127.41,0.02135
2104.26,0.02100
2081.12,0.02128
2057.97,0.02074
2034.83,0.02095
2011.68,0.02084
1988.54,0.02097
1965.39,0.02061
1942.25,0.02053
1919.1,0.02083
1895.96,0.02039
1872.81,0.02068
1849.67,0.02036
1826.52,0.01985
1803.38,0.01962
1780.23,0.01909
1757.09,0.01749
1733.94,0.01963
1710.8,0.02066
1687.65,0.01932
1664.51,0.01830
1641.36,0.01851
1618.22,0.01895
1595.07,0.01867
1571.93,0.01837
1548.78,0.01796
1525.64,0.01882
1502.49,0.01836
1479.35,0.01860
1456.2,0.01843
1433.06,0.01905
1409.91,0.01811
1386.77,0.01789
1363.62,0.01828
1340.48,0.01772
1317.33,0.01702
1294.19,0.01773
1271.04,0.01871
1247.9,0.02006
1224.75,0.01974
1201.61,0.01875
1178.46,0.01778
1155.32,0.01742
1132.17,0.01832
1109.03,0.01927
1085.88,0.01861
1062.74,0.01978
1039.59,0.01882
1016.45,0.01984
993.304,0.02118
970.159,0.02058
947.014,0.01984
923.869,0.01955
900.724,0.01911
877.579,0.01873
854.434,0.01898
831.289,0.01957
808.144,0.01919
784.999,0.01828
761.854,0.01787
738.709,0.01821
715.565,0.01716
692.42,0.01673
669.275,0.01711
646.13,0.01459
622.985,0.01514
599.84,0.01265