Folder: fsri_materials_database/01_Data/Black_PMMA/Cone (part 4)

File: Black_PMMA_HRRPUA_75.csv
Time after Ignition,Black_PMMA_R1,Black_PMMA_R2,Black_PMMA_R3,Black_PMMA_R4,Mean,Std. Dev.
0.0,48.6,78.7,45.7,-0.7,43.1,32.8
1.25,138.5,186.2,101.5,-0.4,106.4,79.2
2.5,261.5,272.8,186.3,-0.2,180.1,126.2
3.75,391.7,378.8,279.7,0.4,262.7,181.9
5.0,467.2,472.4,382.8,1.0,330.8,223.7
6.25,572.3,575.0,532.4,6.0,421.4,277.6
7.5,662.3,654.1,614.4,26.0,489.2,309.5
8.75,728.3,745.9,683.8,88.7,561.7,316.4
10.0,810.6,743.5,747.7,179.1,620.2,295.7
11.25,824.9,822.0,755.9,254.8,664.4,274.9
12.5,857.6,844.1,837.6,284.5,705.9,281.1
13.75,915.0,859.2,900.0,375.5,762.4,259.1
15.0,921.8,940.1,889.9,427.0,794.7,246.0
16.25,956.7,934.5,946.7,466.4,826.1,240.0
17.5,967.7,943.2,959.6,574.6,861.3,191.4
18.75,947.8,932.7,988.5,596.7,866.4,181.4
20.0,1011.3,964.5,960.0,618.7,888.6,181.4
21.25,1011.8,1002.9,975.3,714.5,926.1,141.9
22.5,980.4,1026.5,1014.6,739.3,940.2,135.4
23.75,1046.9,1063.0,1038.1,779.6,981.9,135.3
25.0,1025.9,999.9,1042.8,773.9,960.7,125.7
26.25,1000.9,1005.5,1018.0,805.2,957.4,101.7
27.5,1074.4,1007.6,1036.1,812.8,982.7,116.6
28.75,1166.0,1061.2,1076.4,833.5,1034.3,141.6
30.0,1023.9,1075.7,1094.3,841.9,1009.0,115.3
31.25,1045.3,1056.4,1092.1,871.5,1016.3,98.6
32.5,1052.6,1034.4,1133.9,973.5,1048.6,66.2
33.75,1041.3,1058.1,1110.8,908.2,1029.6,86.2
35.0,1078.5,1060.4,1072.6,895.4,1026.7,87.9
36.25,1085.8,1082.9,1152.7,908.7,1057.5,104.3
37.5,1093.3,1054.1,1074.9,905.5,1032.0,85.8
38.75,1047.8,1141.5,1100.4,970.0,1064.9,74.0
40.0,1104.8,1089.8,1100.6,964.8,1065.0,67.1
41.25,1093.3,1151.2,1117.0,983.4,1086.2,72.6
42.5,1063.4,1049.9,1166.4,933.2,1053.2,95.5
43.75,1125.0,1048.8,1158.4,920.5,1063.2,105.6
45.0,1127.8,1082.7,1086.1,978.2,1068.7,63.7
46.25,1115.8,1022.2,1082.5,942.9,1040.9,75.9
47.5,1060.6,1098.7,1052.9,969.8,1045.5,54.3
48.75,1130.8,1089.0,1089.4,1005.8,1078.7,52.5
50.0,1139.7,1141.6,1093.1,941.6,1079.0,94.3
51.25,1041.7,1082.6,1107.1,986.8,1054.5,52.6
52.5,1073.2,1133.7,1017.4,1036.7,1065.3,51.1
53.75,1175.7,1129.1,1078.5,972.3,1088.9,87.3
55.0,1091.1,1065.5,1124.8,1066.8,1087.0,27.8
56.25,1098.2,1138.1,1064.9,1000.4,1075.4,58.3
57.5,1100.6,1041.8,1107.9,1012.6,1065.7,46.2
58.75,1071.4,1058.5,1132.7,1031.1,1073.4,43.0
60.0,1151.0,1117.1,1067.8,998.2,1083.5,66.3
61.25,1130.5,1074.9,1149.5,983.8,1084.7,74.3
62.5,1118.1,1090.7,1165.6,983.6,1089.5,77.1
63.75,1070.5,1077.4,1160.2,1042.5,1087.6,50.6
65.0,1124.8,1070.7,1157.4,1027.4,1095.1,57.5
66.25,1068.1,1144.8,1143.1,992.7,1087.2,72.4
67.5,1022.0,1138.9,1132.3,1010.0,1075.8,69.3
68.75,1072.0,1121.4,1151.7,1070.8,1104.0,39.6
70.0,1071.5,1115.9,1141.2,991.2,1079.9,65.8
71.25,1107.0,1109.6,1172.6,1014.5,1100.9,65.1
72.5,1048.7,1083.7,1149.3,1031.7,1078.4,52.0
73.75,1102.6,1037.6,1110.8,1077.4,1082.1,32.9
75.0,1158.7,1101.8,1186.3,1075.7,1130.6,50.8
76.25,1117.3,1105.7,1200.1,1046.4,1117.4,63.3
77.5,1111.1,1151.3,1129.6,1084.4,1119.1,28.4
78.75,1139.7,1109.6,1201.8,1050.1,1125.3,63.1
80.0,1099.6,1042.2,1083.7,1048.0,1068.4,27.8
81.25,1159.0,1097.8,1078.9,1019.3,1088.8,57.5
82.5,1095.8,1113.3,1152.7,1018.2,1095.0,56.4
83.75,1144.9,1121.1,1170.4,1035.3,1117.9,58.6
85.0,1136.0,1120.1,1164.6,1029.1,1112.5,58.6
86.25,1113.0,1141.4,1133.9,1053.3,1110.4,39.9
87.5,1093.3,1132.9,1052.1,1023.6,1075.5,47.8
88.75,1145.0,1144.6,1181.4,1060.9,1133.0,51.1
90.0,1150.6,1084.9,1173.9,1024.6,1108.5,67.5
91.25,1088.5,1162.3,1144.7,1046.7,1110.5,52.9
92.5,1180.5,1095.1,1208.2,1026.0,1127.5,83.0
93.75,1116.5,1158.3,1109.4,1037.6,1105.4,50.1
95.0,1071.2,1141.3,1145.4,1102.5,1115.1,35.1
96.25,1155.8,1136.9,1237.5,1049.1,1144.8,77.3
97.5,1154.4,1090.8,1265.4,1037.8,1137.1,97.9
98.75,1124.1,1132.5,1142.0,1170.4,1142.2,20.1
100.0,1139.9,1138.2,1161.7,1041.3,1120.3,53.7
101.25,1060.7,1158.8,1107.3,1029.5,1089.1,56.4
102.5,1065.6,1147.1,1114.3,1079.9,1101.7,36.5
103.75,1155.5,1183.7,1167.7,1046.1,1138.3,62.5
105.0,1179.2,1150.0,1228.8,1054.7,1153.2,73.2
106.25,1137.4,1196.3,1219.9,1083.4,1159.2,61.3
107.5,1196.6,1118.1,1142.0,1062.1,1129.7,55.8
108.75,1128.6,1167.4,1193.7,1091.9,1145.4,44.6
110.0,1112.9,1154.9,1157.5,1076.8,1125.5,38.4
111.25,1107.4,1190.3,1142.2,1122.4,1140.6,36.1
112.5,1134.4,1247.5,1226.2,1133.5,1185.4,60.0
113.75,1138.5,1106.8,1148.3,1100.3,1123.5,23.5
115.0,1214.7,1185.3,1163.3,1111.9,1168.8,43.4
116.25,1111.7,1137.7,1173.1,1040.9,1115.9,55.9
117.5,1178.8,1188.1,1205.1,1145.9,1179.5,24.9
118.75,1184.9,1135.6,1189.0,1009.1,1129.7,83.9
120.0,1221.8,1180.8,1221.8,1092.9,1179.3,60.8
121.25,1177.7,1169.3,1272.4,1138.0,1189.3,57.9
122.5,1134.0,1220.0,1247.9,1129.3,1182.8,60.2
123.75,1200.5,1129.4,1206.2,1057.3,1148.3,70.0
125.0,1198.5,1130.1,1201.6,1002.5,1133.2,93.2
126.25,1139.6,1172.3,1189.4,1030.3,1132.9,71.5
127.5,1214.7,1209.8,1226.1,1150.3,1200.2,34.0
128.75,1191.0,1145.5,1194.0,1103.0,1158.4,43.1
130.0,1213.7,1163.8,1174.3,1214.1,1191.5,26.3
131.25,1145.0,1194.2,1250.2,1106.0,1173.9,62.4
132.5,1206.8,1308.5,1253.7,1018.4,1196.8,126.0
133.75,1185.5,1223.9,1193.2,1055.6,1164.5,74.5
135.0,1151.3,1225.4,1100.8,1118.2,1148.9,55.1
136.25,1184.5,1243.7,1224.0,1069.9,1180.5,77.7
137.5,1200.7,1239.2,1188.0,1193.1,1205.3,23.3
138.75,1172.5,1155.0,1240.1,1136.0,1175.9,45.3
140.0,1225.0,1222.6,1237.9,1149.9,1208.8,39.9
141.25,1200.4,1229.4,1242.7,1094.0,1191.6,67.5
142.5,1170.3,1217.9,1233.2,1119.6,1185.3,51.3
143.75,1208.8,1198.6,1257.9,1180.6,1211.4,33.1
145.0,1182.9,1281.8,1316.1,1167.2,1237.0,73.2
146.25,1242.2,1192.1,1316.7,1184.9,1233.9,60.7
147.5,1228.3,1183.6,1178.6,1241.0,1207.9,31.4
148.75,1303.9,1240.9,1278.9,1206.2,1257.5,42.9
150.0,1169.0,1270.7,1252.7,1265.9,1239.6,47.7
151.25,1239.8,1235.1,1298.0,1131.5,1226.1,69.3
152.5,1238.8,1271.0,1251.1,1152.7,1228.4,52.2
153.75,1180.6,1209.6,1206.6,1248.2,1211.3,27.9
155.0,1233.9,1223.2,1367.0,1079.4,1225.9,117.6
156.25,1243.4,1219.2,1301.7,1234.4,1249.7,36.1
157.5,1214.2,1213.9,1333.0,1200.1,1240.3,62.2
158.75,1186.7,1285.7,1273.7,1212.6,1239.7,47.6
160.0,1226.4,1230.7,1180.6,1192.6,1207.6,24.8
161.25,1211.2,1328.5,1269.3,1288.4,1274.3,48.8
162.5,1288.5,1245.8,1352.4,1114.3,1250.3,100.7
163.75,1232.5,1236.0,1229.6,1280.3,1244.6,23.9
165.0,1259.3,1306.6,1311.4,1336.0,1303.3,32.1
166.25,1268.1,1371.0,1240.7,1262.3,1285.5,58.2
167.5,1256.8,1265.4,1352.0,1220.8,1273.7,55.6
168.75,1256.5,1193.6,1346.9,1208.0,1251.3,69.2
170.0,1252.9,1307.8,1298.7,1237.5,1274.2,34.3
171.25,1206.0,1287.3,1208.0,1218.2,1229.9,38.7
172.5,1272.0,1254.9,1286.3,1203.9,1254.3,35.9
173.75,1241.5,1337.8,1295.6,1265.7,1285.1,41.5
175.0,1263.3,1339.4,1283.9,1273.9,1290.1,33.9
176.25,1254.2,1325.2,1354.3,1150.5,1271.0,90.7
177.5,1247.2,1315.7,1213.8,1255.4,1258.0,42.4
178.75,1308.3,1369.0,1305.4,1210.8,1298.4,65.3
180.0,1217.0,1321.9,1262.4,1226.6,1257.0,47.5
181.25,1255.2,1191.6,1251.1,1301.1,1249.8,44.9
182.5,1330.0,1325.2,1256.1,1217.0,1282.1,55.0
183.75,1289.9,1271.8,1393.3,1235.6,1297.6,67.7
185.0,1267.3,1383.7,1280.1,1288.5,1304.9,53.2
186.25,1181.0,1295.1,1337.6,1285.3,1274.8,66.5
187.5,1319.5,1370.5,1281.7,1277.7,1312.3,43.1
188.75,1279.8,1301.7,1362.7,1284.9,1307.3,38.1
190.0,1310.5,1284.2,1233.0,1200.7,1257.1,49.5
191.25,1328.4,1324.6,1238.9,1234.2,1281.5,52.0
192.5,1280.4,1342.5,1318.2,1315.0,1314.1,25.6
193.75,1221.9,1354.6,1241.4,1212.7,1257.6,65.7
195.0,1299.1,1378.9,1337.8,1288.2,1326.0,41.2
196.25,1330.6,1347.3,1302.8,1345.9,1331.7,20.7
197.5,1299.6,1296.7,1327.1,1241.4,1291.2,35.9
198.75,1254.4,1335.4,1375.9,1198.3,1291.0,79.8
200.0,1242.4,1251.7,1290.7,1244.7,1257.4,22.6
201.25,1256.4,1380.0,1321.2,1301.4,1314.8,51.3
202.5,1337.4,1323.0,1275.3,1304.7,1310.1,26.8
203.75,1292.6,1282.0,1290.2,1217.8,1270.7,35.5
205.0,1224.1,1300.3,1286.7,1314.4,1281.4,39.8
206.25,1286.4,1331.5,1294.1,1318.9,1307.7,21.0
207.5,1211.8,1272.2,1319.3,1296.5,1274.9,46.3
208.75,1328.2,1349.7,1286.4,1230.3,1298.7,52.6
210.0,1290.5,1275.2,1287.2,1392.9,1311.5,54.7
211.25,1290.9,1258.6,1263.9,1230.4,1261.0,24.8
212.5,1416.8,1387.3,1305.7,1299.4,1352.3,58.8
213.75,1265.7,1377.8,1406.5,1326.0,1344.0,61.9
215.0,1269.9,1245.2,1225.3,1316.7,1264.3,39.4
216.25,1363.2,1336.1,1323.4,1407.3,1357.5,37.1
217.5,1383.6,1289.3,1290.1,1283.2,1311.5,48.1
218.75,1404.4,1427.0,1472.5,1304.4,1402.1,71.0
220.0,1237.3,1306.2,1375.4,1351.2,1317.5,60.7
221.25,1280.7,1397.9,1358.1,1416.1,1363.2,60.1
222.5,1425.3,1359.2,1373.9,1351.8,1377.5,33.1
223.75,1257.9,1391.2,1488.4,1276.7,1353.6,107.5
225.0,1366.5,1321.2,1424.3,1317.3,1357.3,49.9
226.25,1291.8,1382.7,1424.0,1357.3,1363.9,55.4
227.5,1332.0,1386.7,1452.5,1363.1,1383.6,51.1
228.75,1431.0,1416.8,1448.7,1322.0,1404.6,56.6
230.0,1373.6,1459.0,1541.6,1434.1,1452.1,69.6
231.25,1423.4,1480.3,1502.6,1286.3,1423.1,97.2
232.5,1441.3,1422.3,1573.4,1429.8,1466.7,71.6
233.75,1407.8,1491.9,1622.2,1339.5,1465.4,121.7
235.0,1458.8,1535.2,1438.9,1423.9,1464.2,49.5
236.25,1367.4,1595.1,1530.3,1405.9,1474.7,106.2
237.5,1422.6,1480.4,1474.8,1531.6,1477.3,44.6
238.75,1511.0,1455.0,1386.1,1567.6,1479.9,77.6
240.0,1587.3,1378.8,1372.4,1575.4,1478.5,118.9
241.25,1588.7,1538.5,1312.3,1655.5,1523.7,148.9
242.5,1509.1,1434.5,1249.9,1714.9,1477.1,192.4
243.75,1567.0,1570.3,1126.3,1728.1,1497.9,258.9
245.0,1531.2,1538.7,1016.1,1748.2,1458.5,311.7
246.25,1515.0,1443.4,909.5,1723.7,1397.9,346.6
247.5,1540.0,1432.3,787.8,1659.9,1355.0,389.4
248.75,1444.2,1314.7,649.4,1572.1,1245.1,410.8
250.0,1427.3,1259.4,527.8,1464.1,1169.7,437.1
251.25,1408.7,1095.1,411.7,1328.9,1061.1,452.9
252.5,1293.9,1009.4,320.0,1172.9,949.1,435.3
253.75,1313.4,859.5,247.2,1002.8,855.7,447.7
255.0,1270.5,728.7,189.1,831.9,755.0,444.4
256.25,1159.0,570.8,148.3,684.4,640.6,415.5
257.5,1095.2,420.5,114.2,549.8,544.9,409.8
258.75,1009.9,316.9,,419.6,582.1,374.0
260.0,907.2,236.8,,305.5,483.2,368.8
261.25,790.1,170.6,,226.1,395.6,342.7
262.5,676.8,,,170.8,423.8,357.7
263.75,533.8,,,127.8,330.8,287.1
265.0,398.8,,,96.6,247.7,213.7
266.25,297.6,,,73.0,185.3,158.8
267.5,239.4,,,57.1,148.2,128.9
268.75,185.2,,,46.5,115.8,98.1
269.5,157.7,,,,157.7,