Folder: fsri_materials_database/01_Data/Cinder_Block/FTIR/IS

Note: README.md
# Materials and Products Database
### Repository of materials and products properties and fire test data to improve fire modeling and fire investigation.

This project was supported in part by Award No. 2019-DU-BX-0018, awarded by the National Institute of Justice, Office of Justice Programs, U.S. Department of Justice. The opinions, findings, and conclusions or recommendations expressed in this publication / program / exhibition are those of the author(s) and do not necessarily reflect those of the Department of Justice.

***
***

__Cite this database:__ "McKinnon, M., Weinschenk, C., Dow, N., DiDomizio, M., and Madrzykowski, D. Materials and Products Database (Version 1.0.0), Fire Safety Research Institute, UL Research Institutes. Columbia, MD 21045, 2023."

__Cite the Technical Reference Guide:__ "McKinnon, M., Weinschenk, C., and Madrzykowski, D. Materials and Products Database - Technical Reference Guide, Fire Safety Research Institute, UL Research Institutes. Columbia, MD 21045, 2023."

__Cite the User Guide:__ "McKinnon, M., and Weinschenk, C. Materials and Products Database - User Guide, Fire Safety Research Institute, UL Research Institutes. Columbia, MD 21045, 2023."

***
***

## Database Structure

## 01_Data/
Raw data generated from each apparatus are included here in plain-text format. The data is organized first by material, next by the short name of test apparatus used, and where applicable additional filtering by test settings.

### Test Apparatus and Data File Structure
- __Cone Calorimeter__ (Cone)
    + Data file structure includes the material, the short name for the apparatus, heat flux setting and scan/scalar, date of test, and replicate number. Scan is for the raw output data and scalar is for the initial conditions and high-level test parameters. 
        * Example: __MDF_Cone_HF25scalar_210323_R1__ stands for the first replicate of scalar data generated from a medium density fiber board test in cone calorimeter exposed to 25 kW/m<sup>2</sup> on March 23, 2021.
    + A _Cone_Notes.csv_ is generated for each material from the __plot_Cone_data.py__ script. For materials whose experiments deviated from typical behavior relevant pictures are included in the respective material directory.
- __Fourier Transform Infrared Spectrometer__ (FTIR)
    + The FTIR directory contains subdirectories for the Attenuated Total Reflectance method (ATR) and the Integrating Sphere (IS)
    + Data file structure for the ATR experiment files includes the material, the abbreviated name for the apparatus, date of test, and replicate number. 
        * Example: __MDF_ATR_210323_R5__ stands for the fifth replicate of data collected with the ATR accessory conducted on June 8, 2021.
    + Data file structure for the IS experiment files includes the material, the abbreviated name for the apparatus, the measurand, whether the test is a sample measurement or standard reference, date of test, and replicate number.
        * Example: __OSB_IS_REFLECT_MEAS_2

File: Cinder_Block_IS_S_221214_R1.dpt
7497.03,0.18839
7473.89,0.18797
7450.74,0.19702
7427.6,0.18598
7404.45,0.19356
7381.31,0.19413
7358.16,0.19138
7335.02,0.19302
7311.87,0.19587
7288.73,0.18880
7265.58,0.19000
7242.44,0.18948
7219.29,0.20017
7196.15,0.19295
7173,0.18603
7149.86,0.18965
7126.71,0.18569
7103.57,0.18891
7080.42,0.18715
7057.28,0.18850
7034.13,0.18764
7010.99,0.19190
6987.84,0.19568
6964.7,0.20187
6941.55,0.19502
6918.41,0.19420
6895.26,0.19510
6872.12,0.18553
6848.97,0.19065
6825.83,0.19546
6802.68,0.19913
6779.54,0.19301
6756.39,0.19137
6733.25,0.19607
6710.1,0.19589
6686.96,0.19309
6663.82,0.19721
6640.67,0.19623
6617.53,0.19449
6594.38,0.19488
6571.24,0.19374
6548.09,0.19985
6524.95,0.19986
6501.8,0.19227
6478.66,0.19496
6455.51,0.20031
6432.37,0.19450
6409.22,0.19729
6386.08,0.19798
6362.93,0.19346
6339.79,0.19646
6316.64,0.19387
6293.5,0.19745
6270.35,0.20030
6247.21,0.19880
6224.06,0.19792
6200.92,0.19366
6177.77,0.19116
6154.63,0.19595
6131.48,0.19754
6108.34,0.19604
6085.19,0.19838
6062.05,0.19377
6038.9,0.19658
6015.76,0.19759
5992.61,0.20020
5969.47,0.19536
5946.32,0.19430
5923.18,0.19681
5900.03,0.19805
5876.89,0.19822
5853.74,0.19585
5830.6,0.19589
5807.45,0.19565
5784.31,0.19898
5761.16,0.19855
5738.02,0.19788
5714.87,0.19693
5691.73,0.19726
5668.58,0.19900
5645.44,0.19754
5622.29,0.19784
5599.15,0.19775
5576,0.19762
5552.86,0.19769
5529.71,0.19774
5506.57,0.19835
5483.42,0.19807
5460.28,0.19760
5437.13,0.19854
5413.99,0.19799
5390.84,0.19735
5367.7,0.19788
5344.55,0.19788
5321.41,0.19513
5298.26,0.19549
5275.12,0.19300
5251.97,0.18913
5228.83,0.18896
5205.68,0.18664
5182.54,0.18583
5159.39,0.18653
5136.25,0.18702
5113.1,0.18769
5089.96,0.18726
5066.81,0.18787
5043.67,0.19032
5020.52,0.19032
4997.38,0.19014
4974.23,0.19177
4951.09,0.19284
4927.94,0.19192
4904.8,0.19209
4881.65,0.19220
4858.51,0.19329
4835.36,0.19334
4812.22,0.19262
4789.07,0.19382
4765.93,0.19336
4742.78,0.19351
4719.64,0.19500
4696.49,0.19353
4673.35,0.19522
4650.2,0.19371
4627.06,0.19405
4603.92,0.19532
4580.77,0.19412
4557.63,0.19315
4534.48,0.19291
4511.34,0.19090
4488.19,0.19145
4465.05,0.19190
4441.9,0.19117
4418.76,0.19065
4395.61,0.18999
4372.47,0.18955
4349.32,0.18909
4326.18,0.18731
4303.03,0.18636
4279.89,0.18313
4256.74,0.18428
4233.6,0.18617
4210.45,0.18691
4187.31,0.18721
4164.16,0.18564
4141.02,0.18408
4117.87,0.18255
4094.73,0.18015
4071.58,0.17896
4048.44,0.17595
4025.29,0.17363
4002.15,0.17126
3979,0.17132
3955.86,0.16795
3932.71,0.16801
3909.57,0.17301
3886.42,0.17559
3863.28,0.17526
3840.13,0.17529
3816.99,0.17333
3793.84,0.17174
3770.7,0.16957
3747.55,0.16425
3724.41,0.15161
3701.26,0.13019
3678.12,0.10825
3654.97,0.08457
3631.83,0.06715
3608.68,0.05972
3585.54,0.05729
3562.39,0.05516
3539.25,0.05287
3516.1,0.05129
3492.96,0.04997
3469.81,0.05017
3446.67,0.04837
3423.52,0.04783
3400.38,0.04732
3377.23,0.04850
3354.09,0.04840
3330.94,0.04930
3307.8,0.04981
3284.65,0.05069
3261.51,0.05189
3238.36,0.05259
3215.22,0.05427
3192.07,0.05541
3168.93,0.05778
3145.78,0.06008
3122.64,0.06230
3099.49,0.06367
3076.35,0.06498
3053.2,0.06623
3030.06,0.06684
3006.91,0.06522
2983.77,0.05876
2960.62,0.05926
2937.48,0.05936
2914.33,0.06017
2891.19,0.06103
2868.04,0.05792
2844.9,0.06581
2821.75,0.07912
2798.61,0.08455
2775.46,0.08933
2752.32,0.09259
2729.17,0.09483
2706.03,0.09663
2682.88,0.09784
2659.74,0.09666
2636.59,0.09056
2613.45,0.07827
2590.3,0.07168
2567.16,0.06979
2544.02,0.06507
2520.87,0.05229
2497.73,0.06131
2474.58,0.08294
2451.44,0.09632
2428.29,0.10120
2405.15,0.10351
2382,0.10403
2358.86,0.10288
2335.71,0.10256
2312.57,0.10027
2289.42,0.09934
2266.28,0.09707
2243.13,0.09492
2219.99,0.09218
2196.84,0.09122
2173.7,0.08993
2150.55,0.08369
2127.41,0.08420
2104.26,0.08893
2081.12,0.08943
2057.97,0.08809
2034.83,0.08531
2011.68,0.08267
1988.54,0.08058
1965.39,0.07833
1942.25,0.07737
1919.1,0.07557
1895.96,0.07071
1872.81,0.06639
1849.67,0.06432
1826.52,0.05688
1803.38,0.03930
1780.23,0.04539
1757.09,0.04647
1733.94,0.04246
1710.8,0.04085
1687.65,0.03487
1664.51,0.03345
1641.36,0.03319
1618.22,0.03588
1595.07,0.04209
1571.93,0.05864
1548.78,0.08167
1525.64,0.09176
1502.49,0.09072
1479.35,0.08997
1456.2,0.08912
1433.06,0.09053
1409.91,0.10334
1386.77,0.08767
1363.62,0.08314
1340.48,0.08507
1317.33,0.08309
1294.19,0.08739
1271.04,0.08557
1247.9,0.08275
1224.75,0.07822
1201.61,0.06909
1178.46,0.06224
1155.32,0.06042
1132.17,0.06071
1109.03,0.05558
1085.88,0.05110
1062.74,0.04908
1039.59,0.04742
1016.45,0.04660
993.304,0.04601
970.159,0.04580
947.014,0.04666
923.869,0.04518
900.724,0.04651
877.579,0.05253
854.434,0.04881
831.289,0.04512
808.144,0.04352
784.999,0.04226
761.854,0.04073
738.709,0.03844
715.565,0.03208
692.42,0.03868
669.275,0.03908
646.13,0.03398
622.985,0.03474
599.84,0.03486

File: Cinder_Block_IS_S_221214_R2.dpt
7497.03,0.19621
7473.89,0.17801
7450.74,0.19429
7427.6,0.20035
7404.45,0.20337
7381.31,0.19887
7358.16,0.18913
7335.02,0.19248
7311.87,0.19153
7288.73,0.18808
7265.58,0.20092
7242.44,0.19324
7219.29,0.19258
7196.15,0.19272
7173,0.19267
7149.86,0.18797
7126.71,0.18947
7103.57,0.18806
7080.42,0.19212
7057.28,0.19421
7034.13,0.19268
7010.99,0.18842
6987.84,0.19368
6964.7,0.19563
6941.55,0.19352
6918.41,0.19824
6895.26,0.18575
6872.12,0.18984
6848.97,0.19878
6825.83,0.19240
6802.68,0.19941
6779.54,0.19697
6756.39,0.19956
6733.25,0.20105
6710.1,0.18994
6686.96,0.19248
6663.82,0.19246
6640.67,0.19440
6617.53,0.19448
6594.38,0.19421
6571.24,0.19627
6548.09,0.19534
6524.95,0.19349
6501.8,0.19519
6478.66,0.19360
6455.51,0.19653
6432.37,0.19494
6409.22,0.19503
6386.08,0.19350
6362.93,0.19776
6339.79,0.19593
6316.64,0.19806
6293.5,0.19534
6270.35,0.19620
6247.21,0.19582
6224.06,0.19546
6200.92,0.19725
6177.77,0.19668
6154.63,0.19626
6131.48,0.19667
6108.34,0.19465
6085.19,0.19617
6062.05,0.19594
6038.9,0.19716
6015.76,0.19587
5992.61,0.19651
5969.47,0.19575
5946.32,0.19601
5923.18,0.19897
5900.03,0.19638
5876.89,0.19644
5853.74,0.19623
5830.6,0.19903
5807.45,0.19784
5784.31,0.19671
5761.16,0.19731
5738.02,0.19991
5714.87,0.19667
5691.73,0.19611
5668.58,0.19753
5645.44,0.19622
5622.29,0.19870
5599.15,0.19774
5576,0.19786
5552.86,0.19786
5529.71,0.19842
5506.57,0.19867
5483.42,0.19697
5460.28,0.19917
5437.13,0.19776
5413.99,0.19845
5390.84,0.19776
5367.7,0.19657
5344.55,0.19872
5321.41,0.19773
5298.26,0.19521
5275.12,0.19387
5251.97,0.18937
5228.83,0.18724
5205.68,0.18630
5182.54,0.18512
5159.39,0.18590
5136.25,0.18750
5113.1,0.18791
5089.96,0.18859
5066.81,0.18860
5043.67,0.19027
5020.52,0.19022
4997.38,0.19072
4974.23,0.19042
4951.09,0.19202
4927.94,0.19290
4904.8,0.19289
4881.65,0.19312
4858.51,0.19313
4835.36,0.19325
4812.22,0.19346
4789.07,0.19292
4765.93,0.19392
4742.78,0.19401
4719.64,0.19436
4696.49,0.19354
4673.35,0.19483
4650.2,0.19382
4627.06,0.19353
4603.92,0.19326
4580.77,0.19392
4557.63,0.19302
4534.48,0.19225
4511.34,0.19194
4488.19,0.19104
4465.05,0.19082
4441.9,0.19149
4418.76,0.19057
4395.61,0.18958
4372.47,0.18980
4349.32,0.18902
4326.18,0.18742
4303.03,0.18554
4279.89,0.18341
4256.74,0.18466
4233.6,0.18642
4210.45,0.18770
4187.31,0.18679
4164.16,0.18585
4141.02,0.18426
4117.87,0.18247
4094.73,0.18042
4071.58,0.17920
4048.44,0.17685
4025.29,0.17378
4002.15,0.17177
3979,0.17096
3955.86,0.16838
3932.71,0.16848
3909.57,0.17342
3886.42,0.17553
3863.28,0.17607
3840.13,0.17576
3816.99,0.17442
3793.84,0.17265
3770.7,0.16976
3747.55,0.16451
3724.41,0.15231
3701.26,0.13155
3678.12,0.10853
3654.97,0.08447
3631.83,0.06804
3608.68,0.06051
3585.54,0.05781
3562.39,0.05534
3539.25,0.05432
3516.1,0.05195
3492.96,0.05100
3469.81,0.05014
3446.67,0.04917
3423.52,0.04803
3400.38,0.04780
3377.23,0.04885
3354.09,0.04903
3330.94,0.04903
3307.8,0.05010
3284.65,0.05058
3261.51,0.05192
3238.36,0.05342
3215.22,0.05568
3192.07,0.05631
3168.93,0.05841
3145.78,0.06148
3122.64,0.06251
3099.49,0.06408
3076.35,0.06542
3053.2,0.06623
3030.06,0.06690
3006.91,0.06602
2983.77,0.05869
2960.62,0.05928
2937.48,0.05997
2914.33,0.06043
2891.19,0.06002
2868.04,0.05832
2844.9,0.06594
2821.75,0.07926
2798.61,0.08439
2775.46,0.08961
2752.32,0.09263
2729.17,0.09526
2706.03,0.09652
2682.88,0.09734
2659.74,0.09635
2636.59,0.09037
2613.45,0.07836
2590.3,0.07238
2567.16,0.06974
2544.02,0.06518
2520.87,0.05212
2497.73,0.06087
2474.58,0.08267
2451.44,0.09634
2428.29,0.10159
2405.15,0.10417
2382,0.10433
2358.86,0.10408
2335.71,0.10251
2312.57,0.10033
2289.42,0.09965
2266.28,0.09759
2243.13,0.09493
2219.99,0.09235
2196.84,0.09181
2173.7,0.08979
2150.55,0.08431
2127.41,0.08449
2104.26,0.08977
2081.12,0.08971
2057.97,0.08841
2034.83,0.08598
2011.68,0.08288
1988.54,0.08105
1965.39,0.07832
1942.25,0.07781
1919.1,0.07574
1895.96,0.07059
1872.81,0.06640
1849.67,0.06444
1826.52,0.05702
1803.38,0.03933
1780.23,0.04517
1757.09,0.04615
1733.94,0.04244
1710.8,0.04096
1687.65,0.03526
1664.51,0.03327
1641.36,0.03305
1618.22,0.03567
1595.07,0.04203
1571.93,0.05851
1548.78,0.08129
1525.64,0.09161
1502.49,0.09048
1479.35,0.08980
1456.2,0.08861
1433.06,0.09031
1409.91,0.10335
1386.77,0.08749
1363.62,0.08276
1340.48,0.08500
1317.33,0.08276
1294.19,0.08701
1271.04,0.08520
1247.9,0.08264
1224.75,0.07812
1201.61,0.06912
1178.46,0.06169
1155.32,0.06032
1132.17,0.06070
1109.03,0.05528
1085.88,0.05080
1062.74,0.04867
1039.59,0.04755
1016.45,0.04629
993.304,0.04564
970.159,0.04543
947.014,0.04673
923.869,0.04626
900.724,0.04661
877.579,0.05200
854.434,0.04918
831.289,0.04516
808.144,0.04416
784.999,0.04289
761.854,0.04142
738.709,0.03902
715.565,0.03352
692.42,0.03930
669.275,0.03916
646.13,0.03488
622.985,0.03390
599.84,0.03563

File: Cinder_Block_IS_S_221214_R3.dpt
7497.03,0.19425
7473.89,0.18445
7450.74,0.19082
7427.6,0.20071
7404.45,0.19666
7381.31,0.18950
7358.16,0.19396
7335.02,0.18373
7311.87,0.19250
7288.73,0.19513
7265.58,0.18539
7242.44,0.19260
7219.29,0.19930
7196.15,0.18413
7173,0.18841
7149.86,0.19545
7126.71,0.19236
7103.57,0.19165
7080.42,0.19272
7057.28,0.18687
7034.13,0.19619
7010.99,0.19387
6987.84,0.19400
6964.7,0.19417
6941.55,0.19525
6918.41,0.19537
6895.26,0.19764
6872.12,0.18959
6848.97,0.19489
6825.83,0.19636
6802.68,0.19653
6779.54,0.19312
6756.39,0.19403
6733.25,0.19734
6710.1,0.19525
6686.96,0.19310
6663.82,0.18831
6640.67,0.19293
6617.53,0.19841
6594.38,0.19779
6571.24,0.19506
6548.09,0.19738
6524.95,0.19431
6501.8,0.19337
6478.66,0.19475
6455.51,0.19607
6432.37,0.19285
6409.22,0.19706
6386.08,0.19777
6362.93,0.19463
6339.79,0.19443
6316.64,0.19773
6293.5,0.19822
6270.35,0.19921
6247.21,0.19557
6224.06,0.19496
6200.92,0.19670
6177.77,0.19674
6154.63,0.19689
6131.48,0.19863
6108.34,0.19516
6085.19,0.19470
6062.05,0.19674
6038.9,0.19773
6015.76,0.19931
5992.61,0.19532
5969.47,0.19707
5946.32,0.19748
5923.18,0.19645
5900.03,0.19909
5876.89,0.19997
5853.74,0.19793
5830.6,0.19757
5807.45,0.19750
5784.31,0.19518
5761.16,0.19882
5738.02,0.19748
5714.87,0.19797
5691.73,0.19634
5668.58,0.19858
5645.44,0.19746
5622.29,0.19853
5599.15,0.19947
5576,0.19889
5552.86,0.19898
5529.71,0.19687
5506.57,0.19913
5483.42,0.19784
5460.28,0.19717
5437.13,0.19842
5413.99,0.19933
5390.84,0.19776
5367.7,0.19812
5344.55,0.19744
5321.41,0.19820
5298.26,0.19427
5275.12,0.19432
5251.97,0.19157
5228.83,0.18778
5205.68,0.18874
5182.54,0.18811
5159.39,0.18711
5136.25,0.18830
5113.1,0.18883
5089.96,0.18958
5066.81,0.18949
5043.67,0.19016
5020.52,0.19097
4997.38,0.19288
4974.23,0.19127
4951.09,0.19239
4927.94,0.19290
4904.8,0.19460
4881.65,0.19497
4858.51,0.19334
4835.36,0.19479
4812.22,0.19405
4789.07,0.19432
4765.93,0.19441
4742.78,0.19466
4719.64,0.19513
4696.49,0.19480
4673.35,0.19537
4650.2,0.19528
4627.06,0.19427
4603.92,0.19469
4580.77,0.19451
4557.63,0.19518
4534.48,0.19256
4511.34,0.19232
4488.19,0.19160
4465.05,0.19170
4441.9,0.19231
4418.76,0.19092
4395.61,0.19115
4372.47,0.19081
4349.32,0.18894
4326.18,0.18795
4303.03,0.18698
4279.89,0.18534
4256.74,0.18463
4233.6,0.18646
4210.45,0.18818
4187.31,0.18635
4164.16,0.18615
4141.02,0.18484
4117.87,0.18320
4094.73,0.18168
4071.58,0.17871
4048.44,0.17749
4025.29,0.17480
4002.15,0.17282
3979,0.17151
3955.86,0.16970
3932.71,0.16916
3909.57,0.17424
3886.42,0.17672
3863.28,0.17640
3840.13,0.17598
3816.99,0.17451
3793.84,0.17311
3770.7,0.17077
3747.55,0.16534
3724.41,0.15303
3701.26,0.13143
3678.12,0.10946
3654.97,0.08506
3631.83,0.06883
3608.68,0.06058
3585.54,0.05853
3562.39,0.05537
3539.25,0.05363
3516.1,0.05192
3492.96,0.05089
3469.81,0.05090
3446.67,0.04917
3423.52,0.04916
3400.38,0.04865
3377.23,0.04917
3354.09,0.04876
3330.94,0.04957
3307.8,0.05028
3284.65,0.05069
3261.51,0.05190
3238.36,0.05348
3215.22,0.05504
3192.07,0.05708
3168.93,0.06002
3145.78,0.06165
3122.64,0.06260
3099.49,0.06448
3076.35,0.06584
3053.2,0.06672
3030.06,0.06712
3006.91,0.06657
2983.77,0.05858
2960.62,0.05945
2937.48,0.05959
2914.33,0.06043
2891.19,0.06071
2868.04,0.05803
2844.9,0.06649
2821.75,0.08023
2798.61,0.08508
2775.46,0.09007
2752.32,0.09323
2729.17,0.09532
2706.03,0.09726
2682.88,0.09811
2659.74,0.09686
2636.59,0.09053
2613.45,0.07831
2590.3,0.07214
2567.16,0.07000
2544.02,0.06545
2520.87,0.05220
2497.73,0.06068
2474.58,0.08323
2451.44,0.09661
2428.29,0.10202
2405.15,0.10458
2382,0.10474
2358.86,0.10407
2335.71,0.10340
2312.57,0.10121
2289.42,0.10074
2266.28,0.09838
2243.13,0.09529
2219.99,0.09319
2196.84,0.09218
2173.7,0.09034
2150.55,0.08430
2127.41,0.08529
2104.26,0.09000
2081.12,0.09043
2057.97,0.08915
2034.83,0.08615
2011.68,0.08345
1988.54,0.08114
1965.39,0.07861
1942.25,0.07826
1919.1,0.07574
1895.96,0.07111
1872.81,0.06675
1849.67,0.06482
1826.52,0.05721
1803.38,0.03944
1780.23,0.04543
1757.09,0.04625
1733.94,0.04232
1710.8,0.04112
1687.65,0.03538
1664.51,0.03354
1641.36,0.03339
1618.22,0.03601
1595.07,0.04239
1571.93,0.05858
1548.78,0.08149
1525.64,0.09176
1502.49,0.09089
1479.35,0.08958
1456.2,0.08904
1433.06,0.08988
1409.91,0.10303
1386.77,0.08754
1363.62,0.08298
1340.48,0.08525
1317.33,0.08332
1294.19,0.08739
1271.04,0.08544
1247.9,0.08293
1224.75,0.07841
1201.61,0.06937
1178.46,0.06177
1155.32,0.06039
1132.17,0.06022
1109.03,0.05582
1085.88,0.05057
1062.74,0.04914
1039.59,0.04690
1016.45,0.04637
993.304,0.04639
970.159,0.04571
947.014,0.04667
923.869,0.04586
900.724,0.04674
877.579,0.05155
854.434,0.04945
831.289,0.04465
808.144,0.04406
784.999,0.04220
761.854,0.04083
738.709,0.03850
715.565,0.03242
692.42,0.03952
669.275,0.03934
646.13,0.03407
622.985,0.03340
599.84,0.03592

File: Cinder_Block_IS_S_221214_R4.dpt
7497.03,0.19259
7473.89,0.19269
7450.74,0.19844
7427.6,0.19055
7404.45,0.19206
7381.31,0.18939
7358.16,0.19190
7335.02,0.18613
7311.87,0.19157
7288.73,0.19074
7265.58,0.19877
7242.44,0.19395
7219.29,0.19920
7196.15,0.19369
7173,0.19727
7149.86,0.19253
7126.71,0.19607
7103.57,0.19579
7080.42,0.19567
7057.28,0.19063
7034.13,0.19626
7010.99,0.18652
6987.84,0.19908
6964.7,0.19839
6941.55,0.19126
6918.41,0.19688
6895.26,0.19160
6872.12,0.19122
6848.97,0.19507
6825.83,0.19277
6802.68,0.19358
6779.54,0.19432
6756.39,0.19204
6733.25,0.19737
6710.1,0.19356
6686.96,0.19941
6663.82,0.19815
6640.67,0.19418
6617.53,0.19519
6594.38,0.19628
6571.24,0.19325
6548.09,0.19434
6524.95,0.19142
6501.8,0.19674
6478.66,0.19780
6455.51,0.19743
6432.37,0.20216
6409.22,0.19467
6386.08,0.19575
6362.93,0.19503
6339.79,0.19437
6316.64,0.19680
6293.5,0.19523
6270.35,0.19428
6247.21,0.19748
6224.06,0.19870
6200.92,0.19442
6177.77,0.19956
6154.63,0.19654
6131.48,0.19442
6108.34,0.19733
6085.19,0.19919
6062.05,0.19688
6038.9,0.19782
6015.76,0.19830
5992.61,0.19858
5969.47,0.19922
5946.32,0.19740
5923.18,0.19931
5900.03,0.19530
5876.89,0.20005
5853.74,0.19983
5830.6,0.19650
5807.45,0.19860
5784.31,0.19827
5761.16,0.20018
5738.02,0.19816
5714.87,0.19871
5691.73,0.20063
5668.58,0.19877
5645.44,0.19794
5622.29,0.19980
5599.15,0.19931
5576,0.19760
5552.86,0.19779
5529.71,0.19829
5506.57,0.19898
5483.42,0.20091
5460.28,0.19909
5437.13,0.19919
5413.99,0.19861
5390.84,0.20014
5367.7,0.20067
5344.55,0.19960
5321.41,0.19858
5298.26,0.19733
5275.12,0.19580
5251.97,0.19253
5228.83,0.19051
5205.68,0.18933
5182.54,0.18964
5159.39,0.18728
5136.25,0.18936
5113.1,0.18925
5089.96,0.19019
5066.81,0.19050
5043.67,0.19078
5020.52,0.19165
4997.38,0.19263
4974.23,0.19314
4951.09,0.19443
4927.94,0.19538
4904.8,0.19437
4881.65,0.19555
4858.51,0.19455
4835.36,0.19682
4812.22,0.19521
4789.07,0.19495
4765.93,0.19563
4742.78,0.19575
4719.64,0.19609
4696.49,0.19548
4673.35,0.19709
4650.2,0.19560
4627.06,0.19562
4603.92,0.19623
4580.77,0.19462
4557.63,0.19406
4534.48,0.19330
4511.34,0.19317
4488.19,0.19260
4465.05,0.19288
4441.9,0.19314
4418.76,0.19217
4395.61,0.19199
4372.47,0.19100
4349.32,0.19048
4326.18,0.18910
4303.03,0.18838
4279.89,0.18522
4256.74,0.18590
4233.6,0.18769
4210.45,0.18896
4187.31,0.18749
4164.16,0.18736
4141.02,0.18665
4117.87,0.18504
4094.73,0.18186
4071.58,0.18093
4048.44,0.17730
4025.29,0.17568
4002.15,0.17321
3979,0.17308
3955.86,0.17019
3932.71,0.17008
3909.57,0.17559
3886.42,0.17743
3863.28,0.17721
3840.13,0.17726
3816.99,0.17621
3793.84,0.17424
3770.7,0.17173
3747.55,0.16651
3724.41,0.15328
3701.26,0.13167
3678.12,0.10939
3654.97,0.08643
3631.83,0.06812
3608.68,0.06169
3585.54,0.05818
3562.39,0.05666
3539.25,0.05433
3516.1,0.05296
3492.96,0.05141
3469.81,0.05036
3446.67,0.04997
3423.52,0.05019
3400.38,0.04876
3377.23,0.04950
3354.09,0.04930
3330.94,0.05032
3307.8,0.05075
3284.65,0.05159
3261.51,0.05254
3238.36,0.05446
3215.22,0.05570
3192.07,0.05719
3168.93,0.05962
3145.78,0.06233
3122.64,0.06367
3099.49,0.06486
3076.35,0.06570
3053.2,0.06712
3030.06,0.06777
3006.91,0.06668
2983.77,0.05885
2960.62,0.05926
2937.48,0.05951
2914.33,0.06088
2891.19,0.06150
2868.04,0.05836
2844.9,0.06637
2821.75,0.07990
2798.61,0.08547
2775.46,0.09047
2752.32,0.09301
2729.17,0.09516
2706.03,0.09769
2682.88,0.09845
2659.74,0.09813
2636.59,0.09088
2613.45,0.07849
2590.3,0.07273
2567.16,0.07000
2544.02,0.06571
2520.87,0.05222
2497.73,0.06095
2474.58,0.08359
2451.44,0.09730
2428.29,0.10272
2405.15,0.10487
2382,0.10535
2358.86,0.10450
2335.71,0.10365
2312.57,0.10152
2289.42,0.10071
2266.28,0.09850
2243.13,0.09616
2219.99,0.09358
2196.84,0.09261
2173.7,0.09100
2150.55,0.08515
2127.41,0.08580
2104.26,0.09088
2081.12,0.09080
2057.97,0.08981
2034.83,0.08674
2011.68,0.08386
1988.54,0.08158
1965.39,0.07919
1942.25,0.07881
1919.1,0.07617
1895.96,0.07122
1872.81,0.06720
1849.67,0.06500
1826.52,0.05738
1803.38,0.03951
1780.23,0.04596
1757.09,0.04650
1733.94,0.04264
1710.8,0.04071
1687.65,0.03562
1664.51,0.03394
1641.36,0.03346
1618.22,0.03629
1595.07,0.04199
1571.93,0.05891
1548.78,0.08180
1525.64,0.09209
1502.49,0.09127
1479.35,0.08985
1456.2,0.08931
1433.06,0.09042
1409.91,0.10356
1386.77,0.08767
1363.62,0.08331
1340.48,0.08533
1317.33,0.08347
1294.19,0.08781
1271.04,0.08588
1247.9,0.08286
1224.75,0.07838
1201.61,0.06935
1178.46,0.06145
1155.32,0.06066
1132.17,0.06045
1109.03,0.05584
1085.88,0.05152
1062.74,0.04856
1039.59,0.04699
1016.45,0.04688
993.304,0.04634
970.159,0.04580
947.014,0.04598
923.869,0.04563
900.724,0.04708
877.579,0.05218
854.434,0.04963
831.289,0.04525
808.144,0.04405
784.999,0.04251
761.854,0.04046
738.709,0.03879
715.565,0.03333
692.42,0.03932
669.275,0.03904
646.13,0.03600
622.985,0.03277
599.84,0.03608