Folder: fsri_materials_database/01_Data/Cinder_Block/FTIR/IS (part 2)

File: Cinder_Block_IS_S_221214_R5.dpt
7497.03,0.19549
7473.89,0.18992
7450.74,0.19643
7427.6,0.20727
7404.45,0.19443
7381.31,0.19429
7358.16,0.19630
7335.02,0.18972
7311.87,0.19571
7288.73,0.19304
7265.58,0.19796
7242.44,0.19918
7219.29,0.19210
7196.15,0.19597
7173,0.20037
7149.86,0.19473
7126.71,0.20147
7103.57,0.19210
7080.42,0.19973
7057.28,0.19548
7034.13,0.19484
7010.99,0.19395
6987.84,0.18922
6964.7,0.19711
6941.55,0.18919
6918.41,0.19370
6895.26,0.19822
6872.12,0.19356
6848.97,0.19393
6825.83,0.19449
6802.68,0.19562
6779.54,0.19005
6756.39,0.19198
6733.25,0.19880
6710.1,0.19451
6686.96,0.19604
6663.82,0.19556
6640.67,0.19423
6617.53,0.19517
6594.38,0.19788
6571.24,0.19751
6548.09,0.19848
6524.95,0.19279
6501.8,0.19436
6478.66,0.19897
6455.51,0.19516
6432.37,0.19472
6409.22,0.19977
6386.08,0.19895
6362.93,0.19128
6339.79,0.19235
6316.64,0.19641
6293.5,0.19295
6270.35,0.19612
6247.21,0.19598
6224.06,0.19533
6200.92,0.19876
6177.77,0.19789
6154.63,0.20195
6131.48,0.19387
6108.34,0.19498
6085.19,0.19782
6062.05,0.19709
6038.9,0.19642
6015.76,0.19785
5992.61,0.19374
5969.47,0.19885
5946.32,0.19704
5923.18,0.19846
5900.03,0.19629
5876.89,0.19919
5853.74,0.19660
5830.6,0.19827
5807.45,0.19526
5784.31,0.19845
5761.16,0.19717
5738.02,0.19810
5714.87,0.19799
5691.73,0.19841
5668.58,0.19645
5645.44,0.19874
5622.29,0.19557
5599.15,0.19749
5576,0.19734
5552.86,0.19739
5529.71,0.19768
5506.57,0.19814
5483.42,0.19643
5460.28,0.19827
5437.13,0.19727
5413.99,0.19781
5390.84,0.19641
5367.7,0.19785
5344.55,0.19883
5321.41,0.19733
5298.26,0.19498
5275.12,0.19309
5251.97,0.19225
5228.83,0.18959
5205.68,0.18785
5182.54,0.18576
5159.39,0.18782
5136.25,0.18797
5113.1,0.18972
5089.96,0.18980
5066.81,0.19105
5043.67,0.19103
5020.52,0.19089
4997.38,0.19339
4974.23,0.19162
4951.09,0.19287
4927.94,0.19333
4904.8,0.19276
4881.65,0.19421
4858.51,0.19448
4835.36,0.19187
4812.22,0.19489
4789.07,0.19502
4765.93,0.19390
4742.78,0.19382
4719.64,0.19492
4696.49,0.19445
4673.35,0.19518
4650.2,0.19547
4627.06,0.19323
4603.92,0.19360
4580.77,0.19334
4557.63,0.19289
4534.48,0.19260
4511.34,0.19187
4488.19,0.19142
4465.05,0.19165
4441.9,0.19144
4418.76,0.19022
4395.61,0.19008
4372.47,0.18909
4349.32,0.18924
4326.18,0.18778
4303.03,0.18546
4279.89,0.18444
4256.74,0.18381
4233.6,0.18658
4210.45,0.18753
4187.31,0.18705
4164.16,0.18607
4141.02,0.18420
4117.87,0.18296
4094.73,0.18121
4071.58,0.17911
4048.44,0.17706
4025.29,0.17441
4002.15,0.17266
3979,0.17145
3955.86,0.16895
3932.71,0.16870
3909.57,0.17403
3886.42,0.17533
3863.28,0.17656
3840.13,0.17605
3816.99,0.17575
3793.84,0.17323
3770.7,0.17092
3747.55,0.16564
3724.41,0.15285
3701.26,0.13139
3678.12,0.10899
3654.97,0.08602
3631.83,0.06821
3608.68,0.06119
3585.54,0.05835
3562.39,0.05616
3539.25,0.05389
3516.1,0.05287
3492.96,0.05145
3469.81,0.05102
3446.67,0.04978
3423.52,0.04898
3400.38,0.04827
3377.23,0.04938
3354.09,0.05014
3330.94,0.04984
3307.8,0.05029
3284.65,0.05169
3261.51,0.05228
3238.36,0.05375
3215.22,0.05549
3192.07,0.05741
3168.93,0.05960
3145.78,0.06135
3122.64,0.06325
3099.49,0.06480
3076.35,0.06582
3053.2,0.06687
3030.06,0.06696
3006.91,0.06591
2983.77,0.05900
2960.62,0.06022
2937.48,0.05970
2914.33,0.06105
2891.19,0.06036
2868.04,0.05767
2844.9,0.06577
2821.75,0.07961
2798.61,0.08445
2775.46,0.09013
2752.32,0.09260
2729.17,0.09494
2706.03,0.09682
2682.88,0.09786
2659.74,0.09689
2636.59,0.09037
2613.45,0.07779
2590.3,0.07219
2567.16,0.06962
2544.02,0.06471
2520.87,0.05191
2497.73,0.06116
2474.58,0.08287
2451.44,0.09692
2428.29,0.10178
2405.15,0.10417
2382,0.10464
2358.86,0.10397
2335.71,0.10305
2312.57,0.10171
2289.42,0.10067
2266.28,0.09820
2243.13,0.09552
2219.99,0.09302
2196.84,0.09217
2173.7,0.09064
2150.55,0.08473
2127.41,0.08532
2104.26,0.09025
2081.12,0.09052
2057.97,0.08906
2034.83,0.08626
2011.68,0.08334
1988.54,0.08105
1965.39,0.07884
1942.25,0.07812
1919.1,0.07597
1895.96,0.07055
1872.81,0.06651
1849.67,0.06464
1826.52,0.05681
1803.38,0.03925
1780.23,0.04538
1757.09,0.04624
1733.94,0.04268
1710.8,0.04066
1687.65,0.03567
1664.51,0.03376
1641.36,0.03326
1618.22,0.03594
1595.07,0.04189
1571.93,0.05875
1548.78,0.08116
1525.64,0.09150
1502.49,0.09031
1479.35,0.08920
1456.2,0.08840
1433.06,0.08959
1409.91,0.10257
1386.77,0.08703
1363.62,0.08273
1340.48,0.08440
1317.33,0.08275
1294.19,0.08695
1271.04,0.08538
1247.9,0.08268
1224.75,0.07792
1201.61,0.06930
1178.46,0.06193
1155.32,0.06039
1132.17,0.06027
1109.03,0.05522
1085.88,0.05085
1062.74,0.04873
1039.59,0.04724
1016.45,0.04598
993.304,0.04598
970.159,0.04567
947.014,0.04577
923.869,0.04619
900.724,0.04680
877.579,0.05124
854.434,0.04974
831.289,0.04532
808.144,0.04430
784.999,0.04258
761.854,0.04151
738.709,0.03854
715.565,0.03215
692.42,0.03963
669.275,0.03814
646.13,0.03492
622.985,0.03305
599.84,0.03508

File: Cinder_Block_IS_S_221214_R6.dpt
7497.03,0.19830
7473.89,0.19496
7450.74,0.19123
7427.6,0.19154
7404.45,0.18767
7381.31,0.18653
7358.16,0.19656
7335.02,0.19496
7311.87,0.20003
7288.73,0.19721
7265.58,0.19525
7242.44,0.19396
7219.29,0.19301
7196.15,0.18715
7173,0.19739
7149.86,0.19399
7126.71,0.20044
7103.57,0.19084
7080.42,0.18874
7057.28,0.19519
7034.13,0.19483
7010.99,0.19710
6987.84,0.19269
6964.7,0.19270
6941.55,0.19138
6918.41,0.19513
6895.26,0.19456
6872.12,0.19862
6848.97,0.19824
6825.83,0.19143
6802.68,0.19495
6779.54,0.19917
6756.39,0.19640
6733.25,0.19485
6710.1,0.19285
6686.96,0.19656
6663.82,0.19528
6640.67,0.19331
6617.53,0.19570
6594.38,0.19569
6571.24,0.19626
6548.09,0.19989
6524.95,0.19461
6501.8,0.19161
6478.66,0.19528
6455.51,0.19285
6432.37,0.19849
6409.22,0.19808
6386.08,0.19848
6362.93,0.19665
6339.79,0.19804
6316.64,0.19127
6293.5,0.19647
6270.35,0.19706
6247.21,0.19815
6224.06,0.19767
6200.92,0.20037
6177.77,0.19911
6154.63,0.19471
6131.48,0.19929
6108.34,0.19540
6085.19,0.19525
6062.05,0.19974
6038.9,0.19996
6015.76,0.19827
5992.61,0.19816
5969.47,0.19692
5946.32,0.19635
5923.18,0.19791
5900.03,0.19786
5876.89,0.19870
5853.74,0.19732
5830.6,0.19722
5807.45,0.19784
5784.31,0.19683
5761.16,0.19984
5738.02,0.19648
5714.87,0.19707
5691.73,0.19870
5668.58,0.19863
5645.44,0.19862
5622.29,0.19783
5599.15,0.19847
5576,0.19729
5552.86,0.20036
5529.71,0.19829
5506.57,0.19843
5483.42,0.19922
5460.28,0.19644
5437.13,0.19843
5413.99,0.19919
5390.84,0.20051
5367.7,0.19865
5344.55,0.19766
5321.41,0.19555
5298.26,0.19596
5275.12,0.19295
5251.97,0.19177
5228.83,0.18955
5205.68,0.18904
5182.54,0.18863
5159.39,0.18740
5136.25,0.18852
5113.1,0.18892
5089.96,0.19022
5066.81,0.19094
5043.67,0.19015
5020.52,0.19215
4997.38,0.19265
4974.23,0.19381
4951.09,0.19354
4927.94,0.19401
4904.8,0.19465
4881.65,0.19429
4858.51,0.19431
4835.36,0.19418
4812.22,0.19484
4789.07,0.19382
4765.93,0.19483
4742.78,0.19437
4719.64,0.19611
4696.49,0.19530
4673.35,0.19468
4650.2,0.19537
4627.06,0.19460
4603.92,0.19485
4580.77,0.19436
4557.63,0.19519
4534.48,0.19364
4511.34,0.19207
4488.19,0.19264
4465.05,0.19229
4441.9,0.19193
4418.76,0.19222
4395.61,0.19138
4372.47,0.18995
4349.32,0.18872
4326.18,0.18809
4303.03,0.18733
4279.89,0.18540
4256.74,0.18561
4233.6,0.18756
4210.45,0.18827
4187.31,0.18835
4164.16,0.18677
4141.02,0.18547
4117.87,0.18365
4094.73,0.18128
4071.58,0.18053
4048.44,0.17787
4025.29,0.17512
4002.15,0.17349
3979,0.17260
3955.86,0.16927
3932.71,0.16968
3909.57,0.17486
3886.42,0.17725
3863.28,0.17725
3840.13,0.17695
3816.99,0.17540
3793.84,0.17432
3770.7,0.17204
3747.55,0.16586
3724.41,0.15296
3701.26,0.13195
3678.12,0.10977
3654.97,0.08577
3631.83,0.06962
3608.68,0.06091
3585.54,0.05804
3562.39,0.05605
3539.25,0.05434
3516.1,0.05340
3492.96,0.05172
3469.81,0.05049
3446.67,0.04968
3423.52,0.04910
3400.38,0.04845
3377.23,0.04896
3354.09,0.05061
3330.94,0.05000
3307.8,0.05092
3284.65,0.05217
3261.51,0.05266
3238.36,0.05418
3215.22,0.05609
3192.07,0.05792
3168.93,0.05965
3145.78,0.06201
3122.64,0.06380
3099.49,0.06499
3076.35,0.06634
3053.2,0.06724
3030.06,0.06777
3006.91,0.06652
2983.77,0.05919
2960.62,0.05950
2937.48,0.06017
2914.33,0.06039
2891.19,0.06127
2868.04,0.05778
2844.9,0.06590
2821.75,0.08014
2798.61,0.08485
2775.46,0.09056
2752.32,0.09287
2729.17,0.09566
2706.03,0.09708
2682.88,0.09861
2659.74,0.09730
2636.59,0.09082
2613.45,0.07861
2590.3,0.07231
2567.16,0.06981
2544.02,0.06507
2520.87,0.05227
2497.73,0.06078
2474.58,0.08305
2451.44,0.09709
2428.29,0.10245
2405.15,0.10494
2382,0.10503
2358.86,0.10470
2335.71,0.10357
2312.57,0.10199
2289.42,0.10089
2266.28,0.09868
2243.13,0.09587
2219.99,0.09347
2196.84,0.09309
2173.7,0.09072
2150.55,0.08500
2127.41,0.08554
2104.26,0.09050
2081.12,0.09087
2057.97,0.08950
2034.83,0.08678
2011.68,0.08387
1988.54,0.08147
1965.39,0.07918
1942.25,0.07862
1919.1,0.07638
1895.96,0.07112
1872.81,0.06667
1849.67,0.06467
1826.52,0.05674
1803.38,0.03922
1780.23,0.04566
1757.09,0.04632
1733.94,0.04236
1710.8,0.04067
1687.65,0.03572
1664.51,0.03404
1641.36,0.03326
1618.22,0.03597
1595.07,0.04247
1571.93,0.05842
1548.78,0.08124
1525.64,0.09184
1502.49,0.09055
1479.35,0.08960
1456.2,0.08860
1433.06,0.09014
1409.91,0.10324
1386.77,0.08683
1363.62,0.08278
1340.48,0.08515
1317.33,0.08309
1294.19,0.08716
1271.04,0.08503
1247.9,0.08271
1224.75,0.07845
1201.61,0.06892
1178.46,0.06155
1155.32,0.06047
1132.17,0.06034
1109.03,0.05509
1085.88,0.05090
1062.74,0.04821
1039.59,0.04691
1016.45,0.04564
993.304,0.04606
970.159,0.04575
947.014,0.04564
923.869,0.04592
900.724,0.04643
877.579,0.05170
854.434,0.04920
831.289,0.04523
808.144,0.04267
784.999,0.04263
761.854,0.04158
738.709,0.03895
715.565,0.03298
692.42,0.03948
669.275,0.03671
646.13,0.03533
622.985,0.03298
599.84,0.03473

File: Cinder_Block_IS_S_221214_R8.dpt
7497.03,0.19740
7473.89,0.19708
7450.74,0.19887
7427.6,0.19325
7404.45,0.18869
7381.31,0.19201
7358.16,0.19666
7335.02,0.19259
7311.87,0.19771
7288.73,0.19838
7265.58,0.19909
7242.44,0.19286
7219.29,0.19055
7196.15,0.18203
7173,0.19317
7149.86,0.19331
7126.71,0.19914
7103.57,0.19462
7080.42,0.19479
7057.28,0.18918
7034.13,0.19204
7010.99,0.19170
6987.84,0.19513
6964.7,0.19525
6941.55,0.19615
6918.41,0.19452
6895.26,0.19495
6872.12,0.19167
6848.97,0.19045
6825.83,0.20097
6802.68,0.19935
6779.54,0.19382
6756.39,0.19212
6733.25,0.19524
6710.1,0.19112
6686.96,0.19932
6663.82,0.19904
6640.67,0.19592
6617.53,0.19310
6594.38,0.19414
6571.24,0.19415
6548.09,0.19770
6524.95,0.19876
6501.8,0.19617
6478.66,0.19347
6455.51,0.19640
6432.37,0.19744
6409.22,0.19981
6386.08,0.19511
6362.93,0.19515
6339.79,0.19613
6316.64,0.19643
6293.5,0.19768
6270.35,0.19701
6247.21,0.19628
6224.06,0.19593
6200.92,0.19496
6177.77,0.19358
6154.63,0.20101
6131.48,0.19611
6108.34,0.19850
6085.19,0.19671
6062.05,0.19876
6038.9,0.19626
6015.76,0.19765
5992.61,0.19706
5969.47,0.19856
5946.32,0.19891
5923.18,0.19623
5900.03,0.19789
5876.89,0.19636
5853.74,0.19779
5830.6,0.19683
5807.45,0.19718
5784.31,0.19763
5761.16,0.19598
5738.02,0.19737
5714.87,0.20058
5691.73,0.19790
5668.58,0.19902
5645.44,0.20049
5622.29,0.19810
5599.15,0.19916
5576,0.19916
5552.86,0.19916
5529.71,0.20001
5506.57,0.19989
5483.42,0.20038
5460.28,0.20066
5437.13,0.20014
5413.99,0.19856
5390.84,0.19918
5367.7,0.19920
5344.55,0.19767
5321.41,0.19828
5298.26,0.19726
5275.12,0.19585
5251.97,0.19389
5228.83,0.19178
5205.68,0.18753
5182.54,0.18926
5159.39,0.18804
5136.25,0.19057
5113.1,0.19024
5089.96,0.19091
5066.81,0.19132
5043.67,0.19194
5020.52,0.19217
4997.38,0.19194
4974.23,0.19316
4951.09,0.19472
4927.94,0.19535
4904.8,0.19514
4881.65,0.19549
4858.51,0.19669
4835.36,0.19356
4812.22,0.19463
4789.07,0.19654
4765.93,0.19524
4742.78,0.19598
4719.64,0.19613
4696.49,0.19574
4673.35,0.19626
4650.2,0.19589
4627.06,0.19594
4603.92,0.19622
4580.77,0.19580
4557.63,0.19489
4534.48,0.19421
4511.34,0.19377
4488.19,0.19304
4465.05,0.19294
4441.9,0.19277
4418.76,0.19275
4395.61,0.19158
4372.47,0.19156
4349.32,0.18957
4326.18,0.18930
4303.03,0.18824
4279.89,0.18655
4256.74,0.18614
4233.6,0.18807
4210.45,0.18939
4187.31,0.18905
4164.16,0.18812
4141.02,0.18654
4117.87,0.18458
4094.73,0.18249
4071.58,0.18079
4048.44,0.17839
4025.29,0.17654
4002.15,0.17484
3979,0.17294
3955.86,0.17074
3932.71,0.17080
3909.57,0.17642
3886.42,0.17770
3863.28,0.17779
3840.13,0.17806
3816.99,0.17665
3793.84,0.17556
3770.7,0.17279
3747.55,0.16675
3724.41,0.15364
3701.26,0.13315
3678.12,0.10967
3654.97,0.08632
3631.83,0.06913
3608.68,0.06189
3585.54,0.05936
3562.39,0.05666
3539.25,0.05487
3516.1,0.05260
3492.96,0.05221
3469.81,0.05094
3446.67,0.04960
3423.52,0.04976
3400.38,0.04884
3377.23,0.04926
3354.09,0.04969
3330.94,0.05094
3307.8,0.05110
3284.65,0.05210
3261.51,0.05330
3238.36,0.05382
3215.22,0.05569
3192.07,0.05804
3168.93,0.06027
3145.78,0.06202
3122.64,0.06388
3099.49,0.06569
3076.35,0.06696
3053.2,0.06795
3030.06,0.06828
3006.91,0.06708
2983.77,0.05904
2960.62,0.06006
2937.48,0.06007
2914.33,0.06076
2891.19,0.06150
2868.04,0.05867
2844.9,0.06603
2821.75,0.08045
2798.61,0.08562
2775.46,0.09092
2752.32,0.09420
2729.17,0.09626
2706.03,0.09787
2682.88,0.09896
2659.74,0.09822
2636.59,0.09124
2613.45,0.07863
2590.3,0.07241
2567.16,0.07034
2544.02,0.06556
2520.87,0.05258
2497.73,0.06094
2474.58,0.08396
2451.44,0.09755
2428.29,0.10272
2405.15,0.10544
2382,0.10616
2358.86,0.10569
2335.71,0.10394
2312.57,0.10219
2289.42,0.10119
2266.28,0.09938
2243.13,0.09643
2219.99,0.09429
2196.84,0.09310
2173.7,0.09155
2150.55,0.08555
2127.41,0.08620
2104.26,0.09123
2081.12,0.09171
2057.97,0.09025
2034.83,0.08738
2011.68,0.08431
1988.54,0.08192
1965.39,0.07946
1942.25,0.07924
1919.1,0.07674
1895.96,0.07130
1872.81,0.06725
1849.67,0.06526
1826.52,0.05761
1803.38,0.03931
1780.23,0.04569
1757.09,0.04620
1733.94,0.04300
1710.8,0.04120
1687.65,0.03579
1664.51,0.03399
1641.36,0.03377
1618.22,0.03608
1595.07,0.04220
1571.93,0.05877
1548.78,0.08181
1525.64,0.09209
1502.49,0.09083
1479.35,0.09014
1456.2,0.08920
1433.06,0.09047
1409.91,0.10350
1386.77,0.08724
1363.62,0.08312
1340.48,0.08513
1317.33,0.08331
1294.19,0.08778
1271.04,0.08586
1247.9,0.08361
1224.75,0.07819
1201.61,0.06963
1178.46,0.06149
1155.32,0.06031
1132.17,0.06015
1109.03,0.05524
1085.88,0.05151
1062.74,0.04878
1039.59,0.04652
1016.45,0.04607
993.304,0.04562
970.159,0.04613
947.014,0.04703
923.869,0.04580
900.724,0.04585
877.579,0.05220
854.434,0.04926
831.289,0.04560
808.144,0.04316
784.999,0.04257
761.854,0.04077
738.709,0.03935
715.565,0.03237
692.42,0.03928
669.275,0.03852
646.13,0.03544
622.985,0.03410
599.84,0.03467

File: Cinder_Block_IS_T_221214_R3.dpt
7497.03,0.03203
7473.89,0.02719
7450.74,0.02367
7427.6,0.02652
7404.45,0.02780
7381.31,0.02853
7358.16,0.02108
7335.02,0.02007
7311.87,0.03412
7288.73,0.02780
7265.58,0.02881
7242.44,0.01789
7219.29,0.02244
7196.15,0.02362
7173,0.01840
7149.86,0.02269
7126.71,0.02771
7103.57,0.02710
7080.42,0.02162
7057.28,0.02087
7034.13,0.03029
7010.99,0.02274
6987.84,0.02492
6964.7,0.02501
6941.55,0.02147
6918.41,0.01987
6895.26,0.02241
6872.12,0.02382
6848.97,0.02572
6825.83,0.02368
6802.68,0.01943
6779.54,0.02745
6756.39,0.02910
6733.25,0.02519
6710.1,0.02479
6686.96,0.02007
6663.82,0.02407
6640.67,0.02102
6617.53,0.02381
6594.38,0.02388
6571.24,0.02291
6548.09,0.02421
6524.95,0.02418
6501.8,0.02032
6478.66,0.01995
6455.51,0.02563
6432.37,0.02601
6409.22,0.02558
6386.08,0.02333
6362.93,0.02102
6339.79,0.02176
6316.64,0.02354
6293.5,0.02302
6270.35,0.02321
6247.21,0.02649
6224.06,0.02267
6200.92,0.02115
6177.77,0.02346
6154.63,0.02087
6131.48,0.02232
6108.34,0.02223
6085.19,0.02338
6062.05,0.02186
6038.9,0.02653
6015.76,0.02445
5992.61,0.02122
5969.47,0.02221
5946.32,0.02398
5923.18,0.02469
5900.03,0.01869
5876.89,0.02051
5853.74,0.02055
5830.6,0.02504
5807.45,0.02314
5784.31,0.02114
5761.16,0.02335
5738.02,0.02030
5714.87,0.02427
5691.73,0.02216
5668.58,0.02294
5645.44,0.02305
5622.29,0.02225
5599.15,0.02391
5576,0.02437
5552.86,0.02444
5529.71,0.02334
5506.57,0.02290
5483.42,0.02434
5460.28,0.02390
5437.13,0.02556
5413.99,0.02366
5390.84,0.02232
5367.7,0.02207
5344.55,0.02464
5321.41,0.02269
5298.26,0.02284
5275.12,0.02381
5251.97,0.02166
5228.83,0.02419
5205.68,0.02299
5182.54,0.02321
5159.39,0.02325
5136.25,0.02454
5113.1,0.02193
5089.96,0.02383
5066.81,0.02314
5043.67,0.02450
5020.52,0.02365
4997.38,0.02359
4974.23,0.02347
4951.09,0.02431
4927.94,0.02460
4904.8,0.02446
4881.65,0.02488
4858.51,0.02334
4835.36,0.02484
4812.22,0.02337
4789.07,0.02450
4765.93,0.02334
4742.78,0.02411
4719.64,0.02458
4696.49,0.02249
4673.35,0.02395
4650.2,0.02391
4627.06,0.02478
4603.92,0.02338
4580.77,0.02353
4557.63,0.02430
4534.48,0.02388
4511.34,0.02301
4488.19,0.02380
4465.05,0.02421
4441.9,0.02356
4418.76,0.02342
4395.61,0.02398
4372.47,0.02397
4349.32,0.02308
4326.18,0.02385
4303.03,0.02451
4279.89,0.02433
4256.74,0.02452
4233.6,0.02354
4210.45,0.02396
4187.31,0.02367
4164.16,0.02460
4141.02,0.02450
4117.87,0.02416
4094.73,0.02370
4071.58,0.02388
4048.44,0.02424
4025.29,0.02412
4002.15,0.02405
3979,0.02375
3955.86,0.02475
3932.71,0.02464
3909.57,0.02405
3886.42,0.02426
3863.28,0.02503
3840.13,0.02375
3816.99,0.02388
3793.84,0.02434
3770.7,0.02379
3747.55,0.02441
3724.41,0.02435
3701.26,0.02410
3678.12,0.02484
3654.97,0.02372
3631.83,0.02390
3608.68,0.02412
3585.54,0.02335
3562.39,0.02323
3539.25,0.02217
3516.1,0.02181
3492.96,0.02247
3469.81,0.02259
3446.67,0.02232
3423.52,0.02233
3400.38,0.02237
3377.23,0.02258
3354.09,0.02193
3330.94,0.02163
3307.8,0.02157
3284.65,0.02123
3261.51,0.02209
3238.36,0.02237
3215.22,0.02237
3192.07,0.02287
3168.93,0.02228
3145.78,0.02275
3122.64,0.02247
3099.49,0.02281
3076.35,0.02241
3053.2,0.02249
3030.06,0.02272
3006.91,0.02260
2983.77,0.02206
2960.62,0.02107
2937.48,0.02142
2914.33,0.02177
2891.19,0.02263
2868.04,0.02292
2844.9,0.02281
2821.75,0.02323
2798.61,0.02323
2775.46,0.02324
2752.32,0.02289
2729.17,0.02334
2706.03,0.02374
2682.88,0.02365
2659.74,0.02315
2636.59,0.02359
2613.45,0.02374
2590.3,0.02343
2567.16,0.02307
2544.02,0.02356
2520.87,0.02331
2497.73,0.02341
2474.58,0.02371
2451.44,0.02363
2428.29,0.02308
2405.15,0.02352
2382,0.02342
2358.86,0.02361
2335.71,0.02382
2312.57,0.02360
2289.42,0.02354
2266.28,0.02375
2243.13,0.02358
2219.99,0.02323
2196.84,0.02354
2173.7,0.02329
2150.55,0.02354
2127.41,0.02351
2104.26,0.02325
2081.12,0.02325
2057.97,0.02301
2034.83,0.02341
2011.68,0.02334
1988.54,0.02328
1965.39,0.02277
1942.25,0.02307
1919.1,0.02311
1895.96,0.02300
1872.81,0.02285
1849.67,0.02277
1826.52,0.02311
1803.38,0.02212
1780.23,0.02150
1757.09,0.01979
1733.94,0.02179
1710.8,0.02262
1687.65,0.02114
1664.51,0.02079
1641.36,0.02031
1618.22,0.02103
1595.07,0.02130
1571.93,0.02007
1548.78,0.02053
1525.64,0.02052
1502.49,0.02049
1479.35,0.02070
1456.2,0.02055
1433.06,0.02071
1409.91,0.02041
1386.77,0.01999
1363.62,0.02026
1340.48,0.01921
1317.33,0.01870
1294.19,0.01945
1271.04,0.02127
1247.9,0.02187
1224.75,0.02140
1201.61,0.02066
1178.46,0.02006
1155.32,0.01975
1132.17,0.01922
1109.03,0.02103
1085.88,0.02086
1062.74,0.02134
1039.59,0.02208
1016.45,0.02163
993.304,0.02379
970.159,0.02210
947.014,0.02217
923.869,0.02233
900.724,0.02160
877.579,0.02060
854.434,0.02091
831.289,0.02143
808.144,0.02142
784.999,0.02111
761.854,0.02033
738.709,0.02015
715.565,0.02011
692.42,0.02064
669.275,0.01881
646.13,0.01899
622.985,0.01863
599.84,0.01804

File: Cinder_Block_IS_T_221214_R6.dpt
7497.03,0.03081
7473.89,0.02647
7450.74,0.02367
7427.6,0.03053
7404.45,0.02399
7381.31,0.02595
7358.16,0.02418
7335.02,0.02236
7311.87,0.03190
7288.73,0.02909
7265.58,0.03088
7242.44,0.03116
7219.29,0.01943
7196.15,0.02925
7173,0.02611
7149.86,0.03318
7126.71,0.03118
7103.57,0.02788
7080.42,0.02402
7057.28,0.01420
7034.13,0.02502
7010.99,0.02573
6987.84,0.02278
6964.7,0.02378
6941.55,0.01937
6918.41,0.02650
6895.26,0.02814
6872.12,0.02141
6848.97,0.02070
6825.83,0.02193
6802.68,0.02684
6779.54,0.02410
6756.39,0.01859
6733.25,0.02798
6710.1,0.02190
6686.96,0.02051
6663.82,0.02178
6640.67,0.02331
6617.53,0.02276
6594.38,0.02542
6571.24,0.01877
6548.09,0.02518
6524.95,0.02263
6501.8,0.02783
6478.66,0.02368
6455.51,0.02699
6432.37,0.02139
6409.22,0.02335
6386.08,0.02505
6362.93,0.02173
6339.79,0.02593
6316.64,0.02076
6293.5,0.02634
6270.35,0.02185
6247.21,0.02430
6224.06,0.02022
6200.92,0.02311
6177.77,0.02397
6154.63,0.02455
6131.48,0.02313
6108.34,0.02115
6085.19,0.02319
6062.05,0.02313
6038.9,0.02459
6015.76,0.02336
5992.61,0.02305
5969.47,0.02104
5946.32,0.02254
5923.18,0.02105
5900.03,0.02435
5876.89,0.02289
5853.74,0.02415
5830.6,0.02574
5807.45,0.02276
5784.31,0.02380
5761.16,0.02225
5738.02,0.02152
5714.87,0.02452
5691.73,0.02167
5668.58,0.02129
5645.44,0.02259
5622.29,0.02365
5599.15,0.02246
5576,0.02258
5552.86,0.02296
5529.71,0.02447
5506.57,0.02159
5483.42,0.02246
5460.28,0.02408
5437.13,0.02315
5413.99,0.02378
5390.84,0.02454
5367.7,0.02226
5344.55,0.02200
5321.41,0.02424
5298.26,0.02282
5275.12,0.02316
5251.97,0.02214
5228.83,0.02470
5205.68,0.02379
5182.54,0.02412
5159.39,0.02324
5136.25,0.02210
5113.1,0.02288
5089.96,0.02362
5066.81,0.02381
5043.67,0.02306
5020.52,0.02324
4997.38,0.02462
4974.23,0.02322
4951.09,0.02294
4927.94,0.02310
4904.8,0.02384
4881.65,0.02248
4858.51,0.02429
4835.36,0.02450
4812.22,0.02361
4789.07,0.02313
4765.93,0.02308
4742.78,0.02395
4719.64,0.02298
4696.49,0.02373
4673.35,0.02385
4650.2,0.02431
4627.06,0.02415
4603.92,0.02347
4580.77,0.02387
4557.63,0.02403
4534.48,0.02379
4511.34,0.02420
4488.19,0.02318
4465.05,0.02357
4441.9,0.02391
4418.76,0.02353
4395.61,0.02373
4372.47,0.02359
4349.32,0.02359
4326.18,0.02357
4303.03,0.02361
4279.89,0.02352
4256.74,0.02354
4233.6,0.02337
4210.45,0.02429
4187.31,0.02394
4164.16,0.02360
4141.02,0.02425
4117.87,0.02409
4094.73,0.02433
4071.58,0.02380
4048.44,0.02403
4025.29,0.02365
4002.15,0.02420
3979,0.02360
3955.86,0.02404
3932.71,0.02366
3909.57,0.02412
3886.42,0.02398
3863.28,0.02466
3840.13,0.02494
3816.99,0.02458
3793.84,0.02415
3770.7,0.02359
3747.55,0.02364
3724.41,0.02408
3701.26,0.02424
3678.12,0.02405
3654.97,0.02390
3631.83,0.02338
3608.68,0.02330
3585.54,0.02330
3562.39,0.02245
3539.25,0.02205
3516.1,0.02237
3492.96,0.02226
3469.81,0.02161
3446.67,0.02213
3423.52,0.02171
3400.38,0.02171
3377.23,0.02150
3354.09,0.02129
3330.94,0.02203
3307.8,0.02136
3284.65,0.02202
3261.51,0.02153
3238.36,0.02193
3215.22,0.02192
3192.07,0.02213
3168.93,0.02188
3145.78,0.02239
3122.64,0.02251
3099.49,0.02260
3076.35,0.02298
3053.2,0.02268
3030.06,0.02206
3006.91,0.02220
2983.77,0.02164
2960.62,0.02093
2937.48,0.02140
2914.33,0.02178
2891.19,0.02199
2868.04,0.02194
2844.9,0.02265
2821.75,0.02287
2798.61,0.02324
2775.46,0.02308
2752.32,0.02238
2729.17,0.02279
2706.03,0.02327
2682.88,0.02250
2659.74,0.02315
2636.59,0.02310
2613.45,0.02330
2590.3,0.02317
2567.16,0.02305
2544.02,0.02310
2520.87,0.02335
2497.73,0.02311
2474.58,0.02301
2451.44,0.02321
2428.29,0.02328
2405.15,0.02338
2382,0.02325
2358.86,0.02339
2335.71,0.02328
2312.57,0.02330
2289.42,0.02307
2266.28,0.02319
2243.13,0.02307
2219.99,0.02338
2196.84,0.02304
2173.7,0.02284
2150.55,0.02311
2127.41,0.02325
2104.26,0.02306
2081.12,0.02271
2057.97,0.02317
2034.83,0.02266
2011.68,0.02283
1988.54,0.02309
1965.39,0.02259
1942.25,0.02303
1919.1,0.02264
1895.96,0.02269
1872.81,0.02273
1849.67,0.02241
1826.52,0.02212
1803.38,0.02177
1780.23,0.02133
1757.09,0.01960
1733.94,0.02161
1710.8,0.02259
1687.65,0.02130
1664.51,0.02022
1641.36,0.02077
1618.22,0.02072
1595.07,0.02102
1571.93,0.02010
1548.78,0.02026
1525.64,0.02083
1502.49,0.02038
1479.35,0.02027
1456.2,0.02038
1433.06,0.02017
1409.91,0.01989
1386.77,0.01995
1363.62,0.01985
1340.48,0.01954
1317.33,0.01879
1294.19,0.01976
1271.04,0.02092
1247.9,0.02176
1224.75,0.02133
1201.61,0.02100
1178.46,0.01981
1155.32,0.01899
1132.17,0.01985
1109.03,0.02031
1085.88,0.01955
1062.74,0.02186
1039.59,0.02136
1016.45,0.02112
993.304,0.02345
970.159,0.02267
947.014,0.02183
923.869,0.02177
900.724,0.02119
877.579,0.02183
854.434,0.02096
831.289,0.02074
808.144,0.02133
784.999,0.02111
761.854,0.01976
738.709,0.02043
715.565,0.02002
692.42,0.01933
669.275,0.02015
646.13,0.01810
622.985,0.01932
599.84,0.01865