Folder: fsri_materials_database/01_Data/Gypsum_Wallboard/Cone

Note: README.md
# Materials and Products Database
### Repository of materials and products properties and fire test data to improve fire modeling and fire investigation.

This project was supported in part by Award No. 2019-DU-BX-0018, awarded by the National Institute of Justice, Office of Justice Programs, U.S. Department of Justice. The opinions, findings, and conclusions or recommendations expressed in this publication / program / exhibition are those of the author(s) and do not necessarily reflect those of the Department of Justice.

***
***

__Cite this database:__ "McKinnon, M., Weinschenk, C., Dow, N., DiDomizio, M., and Madrzykowski, D. Materials and Products Database (Version 1.0.0), Fire Safety Research Institute, UL Research Institutes. Columbia, MD 21045, 2023."

__Cite the Technical Reference Guide:__ "McKinnon, M., Weinschenk, C., and Madrzykowski, D. Materials and Products Database - Technical Reference Guide, Fire Safety Research Institute, UL Research Institutes. Columbia, MD 21045, 2023."

__Cite the User Guide:__ "McKinnon, M., and Weinschenk, C. Materials and Products Database - User Guide, Fire Safety Research Institute, UL Research Institutes. Columbia, MD 21045, 2023."

***
***

## Database Structure

## 01_Data/
Raw data generated from each apparatus are included here in plain-text format. The data is organized first by material, next by the short name of test apparatus used, and where applicable additional filtering by test settings.

### Test Apparatus and Data File Structure
- __Cone Calorimeter__ (Cone)
    + Data file structure includes the material, the short name for the apparatus, heat flux setting and scan/scalar, date of test, and replicate number. Scan is for the raw output data and scalar is for the initial conditions and high-level test parameters. 
        * Example: __MDF_Cone_HF25scalar_210323_R1__ stands for the first replicate of scalar data generated from a medium density fiber board test in cone calorimeter exposed to 25 kW/m<sup>2</sup> on March 23, 2021.
    + A _Cone_Notes.csv_ is generated for each material from the __plot_Cone_data.py__ script. For materials whose experiments deviated from typical behavior relevant pictures are included in the respective material directory.
- __Fourier Transform Infrared Spectrometer__ (FTIR)
    + The FTIR directory contains subdirectories for the Attenuated Total Reflectance method (ATR) and the Integrating Sphere (IS)
    + Data file structure for the ATR experiment files includes the material, the abbreviated name for the apparatus, date of test, and replicate number. 
        * Example: __MDF_ATR_210323_R5__ stands for the fifth replicate of data collected with the ATR accessory conducted on June 8, 2021.
    + Data file structure for the IS experiment files includes the material, the abbreviated name for the apparatus, the measurand, whether the test is a sample measurement or standard reference, date of test, and replicate number.
        * Example: __OSB_IS_REFLECT_MEAS_2

File: Gypsum_Wallboard_HRRPUA_50.csv
Time after Ignition,Gypsum_Wallboard_R1,Gypsum_Wallboard_R2,Gypsum_Wallboard_R3,Mean,Std. Dev.
0.0,23.7,99.0,26.7,49.8,42.6
0.25,32.8,104.3,31.4,56.2,41.7
0.5,41.3,111.3,36.9,63.2,41.7
0.75,49.1,116.8,46.2,70.7,39.9
1.0,60.7,124.3,54.5,79.9,38.6
1.25,70.4,128.9,62.0,87.1,36.4
1.5,79.1,134.7,69.6,94.5,35.2
1.75,88.4,139.7,78.4,102.2,32.9
2.0,98.8,145.0,87.0,110.3,30.7
2.25,105.8,148.1,93.5,115.8,28.6
2.5,114.4,151.2,101.8,122.5,25.6
2.75,120.1,152.2,106.8,126.4,23.4
3.0,125.8,156.1,113.7,131.9,21.9
3.25,129.7,158.5,120.5,136.2,19.8
3.5,135.3,159.7,126.1,140.4,17.4
3.75,142.7,163.6,130.8,145.7,16.6
4.0,147.1,167.2,137.3,150.5,15.2
4.25,149.2,165.1,142.9,152.4,11.5
4.5,154.2,167.7,147.4,156.4,10.4
4.75,155.4,165.9,149.8,157.0,8.2
5.0,159.1,168.4,156.3,161.3,6.3
5.25,162.1,169.0,153.5,161.5,7.7
5.5,163.0,170.7,156.3,163.3,7.2
5.75,164.8,166.2,161.9,164.3,2.2
6.0,167.9,166.2,161.6,165.2,3.3
6.25,168.8,164.5,165.3,166.2,2.3
6.5,171.6,162.9,166.2,166.9,4.4
6.75,167.5,161.4,166.5,165.1,3.3
7.0,173.5,160.0,168.8,167.4,6.9
7.25,171.0,159.8,167.6,166.1,5.7
7.5,171.0,158.1,178.5,169.2,10.3
7.75,172.4,154.7,174.1,167.1,10.7
8.0,170.9,152.3,171.3,164.8,10.8
8.25,166.9,147.9,172.0,162.3,12.7
8.5,165.4,145.6,169.5,160.2,12.8
8.75,160.1,140.8,173.3,158.0,16.4
9.0,155.9,136.8,167.0,153.2,15.3
9.25,156.2,134.9,167.3,152.8,16.5
9.5,152.9,130.5,164.3,149.2,17.2
9.75,149.9,125.5,163.5,146.3,19.2
10.0,149.1,123.0,160.0,144.0,19.0
10.25,147.0,118.1,158.9,141.4,21.0
10.5,142.6,115.0,157.0,138.2,21.3
10.75,139.9,110.8,154.9,135.2,22.4
11.0,136.2,106.9,152.1,131.7,22.9
11.25,132.0,101.2,149.6,127.6,24.5
11.5,128.2,99.7,147.4,125.1,24.0
11.75,123.8,95.4,140.8,120.0,22.9
12.0,120.5,91.8,139.3,117.2,24.0
12.25,116.4,88.3,136.9,113.9,24.4
12.5,114.0,84.3,133.4,110.6,24.7
12.75,108.1,81.4,130.7,106.7,24.6
13.0,106.2,79.6,126.3,104.1,23.4
13.25,103.0,76.4,122.6,100.7,23.2
13.5,97.9,74.0,118.3,96.7,22.2
13.75,93.9,71.6,115.6,93.7,22.0
14.0,89.9,69.3,110.6,90.0,20.6
14.25,85.8,68.3,106.0,86.7,18.9
14.5,84.6,65.6,101.9,84.0,18.2
14.75,81.1,63.8,98.3,81.1,17.3
15.0,77.5,62.2,93.4,77.7,15.6
15.25,75.4,60.6,88.9,75.0,14.2
15.5,73.0,61.3,86.1,73.5,12.4
15.75,70.6,,83.2,76.9,8.9

File: Gypsum_Wallboard_HRRPUA_75.csv
Time after Ignition,Gypsum_Wallboard_R1,Gypsum_Wallboard_R2,Gypsum_Wallboard_R3,Mean,Std. Dev.
0.0,27.8,26.6,21.9,25.4,3.1
0.25,32.7,34.2,23.5,30.1,5.8
0.5,37.2,40.3,25.0,34.2,8.1
0.75,40.5,47.3,26.4,38.1,10.7
1.0,44.7,51.0,27.9,41.2,11.9
1.25,53.0,61.9,29.0,48.0,17.0
1.5,59.5,70.2,29.8,53.2,21.0
1.75,65.6,76.8,31.6,58.0,23.5
2.0,71.6,82.6,31.6,61.9,26.8
2.25,82.7,89.5,32.5,68.2,31.2
2.5,91.3,96.5,32.6,73.5,35.5
2.75,97.5,103.1,32.5,77.7,39.2
3.0,102.7,110.4,32.3,81.8,43.0
3.25,112.3,118.9,31.9,87.7,48.5
3.5,120.7,127.5,32.0,93.4,53.3
3.75,125.8,130.8,31.2,96.0,56.1
4.0,132.0,136.6,30.2,99.6,60.1
4.25,140.0,144.5,29.3,104.6,65.2
4.5,141.1,150.9,28.8,107.0,67.8
4.75,146.1,153.2,28.3,109.2,70.2
5.0,151.7,162.1,27.0,113.6,75.2
5.25,157.0,163.0,26.4,115.5,77.2
5.5,158.0,167.5,25.0,116.8,79.7
5.75,162.4,168.3,24.3,118.3,81.5
6.0,165.5,171.0,23.7,120.1,83.5
6.25,166.2,174.1,22.5,120.9,85.3
6.5,168.9,176.8,21.8,122.5,87.3
6.75,170.5,180.3,21.2,124.0,89.1
7.0,174.3,183.9,20.7,126.3,91.6
7.25,172.6,184.6,19.8,125.7,91.9
7.5,174.0,184.1,19.1,125.7,92.5
7.75,176.3,186.1,18.3,126.9,94.1
8.0,175.1,184.9,18.0,126.0,93.7
8.25,179.0,190.0,17.3,128.8,96.7
8.5,180.4,186.8,16.7,128.0,96.4
8.75,180.4,187.3,15.9,127.9,97.0
9.0,176.1,188.3,15.6,126.7,96.4
9.25,176.8,187.6,15.3,126.5,96.5
9.5,178.1,187.9,14.8,126.9,97.2
9.75,177.7,185.6,14.7,126.0,96.5
10.0,176.1,186.0,14.2,125.4,96.4
10.25,174.8,182.4,13.9,123.7,95.2
10.5,172.8,182.4,13.6,123.0,94.8
10.75,172.2,177.4,13.4,121.0,93.2
11.0,171.7,179.0,13.1,121.3,93.8
11.25,169.1,175.8,12.9,119.3,92.1
11.5,163.5,172.8,12.8,116.4,89.8
11.75,159.1,170.6,12.6,114.1,88.1
12.0,152.9,168.3,12.5,111.2,85.8
12.25,148.3,166.3,11.9,108.8,84.4
12.5,142.7,165.6,11.7,106.7,83.1
12.75,138.7,162.6,11.4,104.2,81.3
13.0,131.8,158.6,11.0,100.5,78.6
13.25,124.6,154.8,11.0,96.8,75.8
13.5,118.7,154.2,11.0,94.6,74.6
13.75,117.4,148.7,10.9,92.3,72.2
14.0,111.8,146.6,10.6,89.7,70.6
14.25,107.5,144.7,11.4,87.9,68.8
14.5,102.9,143.0,11.6,85.8,67.3
14.75,99.7,134.6,12.3,82.2,63.0