Folder: fsri_materials_database/01_Data/Gypsum_Wallboard_Paper/MCC

Note: README.md
# Materials and Products Database
### Repository of materials and products properties and fire test data to improve fire modeling and fire investigation.

This project was supported in part by Award No. 2019-DU-BX-0018, awarded by the National Institute of Justice, Office of Justice Programs, U.S. Department of Justice. The opinions, findings, and conclusions or recommendations expressed in this publication / program / exhibition are those of the author(s) and do not necessarily reflect those of the Department of Justice.

***
***

__Cite this database:__ "McKinnon, M., Weinschenk, C., Dow, N., DiDomizio, M., and Madrzykowski, D. Materials and Products Database (Version 1.0.0), Fire Safety Research Institute, UL Research Institutes. Columbia, MD 21045, 2023."

__Cite the Technical Reference Guide:__ "McKinnon, M., Weinschenk, C., and Madrzykowski, D. Materials and Products Database - Technical Reference Guide, Fire Safety Research Institute, UL Research Institutes. Columbia, MD 21045, 2023."

__Cite the User Guide:__ "McKinnon, M., and Weinschenk, C. Materials and Products Database - User Guide, Fire Safety Research Institute, UL Research Institutes. Columbia, MD 21045, 2023."

***
***

## Database Structure

## 01_Data/
Raw data generated from each apparatus are included here in plain-text format. The data is organized first by material, next by the short name of test apparatus used, and where applicable additional filtering by test settings.

### Test Apparatus and Data File Structure
- __Cone Calorimeter__ (Cone)
    + Data file structure includes the material, the short name for the apparatus, heat flux setting and scan/scalar, date of test, and replicate number. Scan is for the raw output data and scalar is for the initial conditions and high-level test parameters. 
        * Example: __MDF_Cone_HF25scalar_210323_R1__ stands for the first replicate of scalar data generated from a medium density fiber board test in cone calorimeter exposed to 25 kW/m<sup>2</sup> on March 23, 2021.
    + A _Cone_Notes.csv_ is generated for each material from the __plot_Cone_data.py__ script. For materials whose experiments deviated from typical behavior relevant pictures are included in the respective material directory.
- __Fourier Transform Infrared Spectrometer__ (FTIR)
    + The FTIR directory contains subdirectories for the Attenuated Total Reflectance method (ATR) and the Integrating Sphere (IS)
    + Data file structure for the ATR experiment files includes the material, the abbreviated name for the apparatus, date of test, and replicate number. 
        * Example: __MDF_ATR_210323_R5__ stands for the fifth replicate of data collected with the ATR accessory conducted on June 8, 2021.
    + Data file structure for the IS experiment files includes the material, the abbreviated name for the apparatus, the measurand, whether the test is a sample measurement or standard reference, date of test, and replicate number.
        * Example: __OSB_IS_REFLECT_MEAS_2

File: Gypsum_Wallboard_Paper_MCC_30K_min_211001_R1.txt
Sample ID:	C:\MCC\MCC Cal\Test\Gypsum_Wallboard_Paper_211001_R1.txt
Sample Weight (mg):	4.69
Heating Rate (C/s):	0.5
Combustor Temp (C):	900
N2 Flow Rate (cc/min):	80
O2 Flow Rate (cc/min):	20
Calibration File:	C:\MCC\MCC Cal\Coeff1 JN10440_30_210304.txt.txt
T Correction Coefficients:	0	1.024463	0
Time Shift (s):	14
*
Time (s)	Temperature (C)	N2 flow rate (cc/min)	O2 flow rate (cc/min)	Flow Rate (cc/min)	Oxygen (%)	HRR (W/g)	Heating rate (C/s)
0.000	106.427	79.999	19.996	100.530	20.094	-0.265	-0.019
8.000	106.476	80.001	19.996	100.527	20.092	-0.074	0.041
16.000	106.455	80.001	19.995	100.534	20.097	-0.424	-0.000
24.000	106.479	80.001	19.995	100.558	20.087	0.209	0.004
32.000	106.730	80.000	19.995	100.681	20.074	1.119	0.056
40.001	107.444	79.999	19.995	100.746	20.055	2.348	0.101
48.001	108.721	79.998	19.996	100.733	20.052	2.572	0.176
56.000	110.241	79.999	19.997	100.730	20.054	2.450	0.176
64.000	112.073	80.001	19.995	100.749	20.052	2.588	0.251
72.000	114.196	80.000	19.996	100.773	20.042	3.237	0.262
80.000	116.640	80.000	19.995	100.805	20.040	3.399	0.336
88.000	119.351	80.000	19.996	100.802	20.037	3.601	0.383
96.001	122.381	80.002	19.993	100.796	20.037	3.554	0.404
104.000	125.655	79.998	19.995	100.809	20.043	3.155	0.428
112.000	129.130	79.999	19.995	100.809	20.040	3.410	0.465
120.000	132.652	80.000	19.996	100.808	20.047	2.946	0.453
128.000	136.332	80.000	19.994	100.797	20.044	3.121	0.445
136.000	140.089	79.999	19.994	100.794	20.045	3.043	0.483
144.000	143.912	80.000	19.996	100.782	20.049	2.763	0.452
152.000	147.775	80.000	19.995	100.771	20.051	2.640	0.499
160.000	151.738	80.001	19.994	100.782	20.049	2.791	0.518
168.000	155.553	80.000	19.995	100.770	20.054	2.441	0.476
176.000	159.371	80.002	19.996	100.765	20.054	2.441	0.486
184.000	163.072	79.998	19.997	100.763	20.056	2.279	0.448
192.000	166.881	79.999	19.995	100.762	20.055	2.383	0.460
200.000	170.688	80.002	19.995	100.753	20.056	2.327	0.495
208.000	174.436	80.000	19.996	100.769	20.052	2.594	0.469
216.000	178.172	79.999	19.994	100.760	20.050	2.715	0.455
224.000	181.985	80.000	19.995	100.771	20.050	2.710	0.477
232.000	185.857	79.999	19.995	100.760	20.054	2.434	0.510
240.000	189.750	79.999	19.995	100.767	20.046	2.952	0.465
248.000	193.637	80.002	19.995	100.766	20.050	2.710	0.446
256.000	197.518	80.001	19.994	100.742	20.051	2.652	0.479
264.000	201.456	80.000	19.995	100.745	20.048	2.821	0.478
272.000	205.414	79.998	19.997	100.739	20.045	3.026	0.495
280.000	209.318	80.000	19.994	100.735	20.050	2.693	0.477
288.000	213.188	79.999	19.995	100.751	20.051	2.641	0.455
296.000	217.197	79.998	19.995	100.750	20.046	2.956	0.472
304.000	221.202	79.998	19.994	100.762	20.042	3.278	0.502
312.000	225.310	80.001	19.994	100.757	20.039	3.437	0.529
320.000	229.367	80.002	19.994	100.759	20.032	3.917	0.507
328.000	233.416	80.002	19.995	100.755	20.035	3.684	0.504
336.000	237.580	80.002	19.994	100.748	20.030	4.037	0.588
344.000	241.530	80.002	19.995	100.727	20.021	4.675	0.498
352.000	245.496	79.998	19.995	100.737	20.010	5.366	0.516
360.000	249.469	79.999	19.996	100.751	20.003	5.877	0.502
368.000	253.414	79.998	19.994	100.737	19.993	6.564	0.489
376.000	257.324	79.999	19.995	100.759	19.981	7.306	0.458
384.000	261.311	79.998	19.995	100.760	19.967	8.292	0.491
392.000	265.237	80.000	19.995	100.768	19.955	9.089	0.475
400.000	269.263	80.002	19.995	100.767	19.935	10.414	0.507
408.000	273.269	80.001	19.994	100.769	19.913	11.902	0.448
416.000	277.141	80.001	19.994	100.771	19.889	13.517	0.444
424.000	281.051	80.000	19.995	100.796	19.863	15.245	0.470
432.000	284.975	79.998	19.995	100.802	19.836	17.032	0.482
440.000	288.926	79.999	19.995	100.809	19.807	19.004	0.494
448.000	292.851	80.000	19.995	100.821	19.778	20.988	0.483
456.000	296.806	79.998	19.996	100.817	19.748	22.998	0.510
464.000	300.754	79.999	19.995	100.841	19.711	25.485	0.542
472.000	304.754	80.001	19.995	100.863	19.673	28.042	0.511
480.000	308.885	80.001	19.995	100.866	19.636	30.478	0.506
488.000	312.999	79.999	19.995	100.874	19.593	33.404	0.498
496.000	317.105	80.001	19.994	100.886	19.550	36.256	0.523
504.000	321.124	80.002	19.995	100.900	19.512	38.813	0.515
512.001	325.016	79.999	19.995	100.901	19.472	41.522	0.471
520.000	329.022	80.001	19.997	100.924	19.423	44.848	0.506
528.000	333.048	80.000	19.994	100.962	19.367	48.575	0.502
536.001	337.170	80.000	19.996	100.970	19.311	52.408	0.529
544.000	341.233	79.998	19.997	101.003	19.241	57.110	0.510
552.000	345.361	80.000	19.995	101.016	19.166	62.108	0.555
560.000	349.361	80.001	19.993	101.041	19.087	67.432	0.502
568.000	353.391	80.001	19.994	101.040	19.026	71.529	0.522
576.000	357.324	80.001	19.994	101.044	18.995	73.608	0.493
584.000	361.383	80.002	19.993	101.001	19.005	72.878	0.538
592.000	365.362	80.000	19.995	100.947	19.068	68.591	0.504
600.000	369.538	80.001	19.994	100.884	19.191	60.330	0.377
608.000	373.539	79.998	19.995	100.809	19.369	48.351	0.473
616.000	377.726	79.999	19.995	100.748	19.565	35.202	0.553
624.000	381.946	79.998	19.995	100.700	19.743	23.301	0.533
632.000	386.126	80.000	19.997	100.683	19.869	14.837	0.525
640.000	390.144	80.001	19.995	100.666	19.939	10.137	0.530
648.000	394.166	80.001	19.995	100.669	19.967	8.259	0.490
656.000	398.047	80.001	19.995	100.681	19.976	7.693	0.500
664.000	402.001	80.003	19.996	100.680	19.980	7.369	0.467
672.000	405.904	80.000	19.995	100.689	19.982	7.240	0.496
680.000	409.957	79.998	19.995	100.691	19.986	6.986	0.490
688.000	414.137	79.998	19.996	100.690	19.986	6.998	0.504
696.000	418.361	79.999	19.995	100.694	19.986	6.982	0.527
704.000	422.548	79.999	19.997	100.689	19.985	7.095	0.509
712.000	426.908	79.999	19.995	100.689	19.988	6.832	0.562
720.000	431.290	80.001	19.995	100.688	19.990	6.723	0.588
728.000	435.713	80.000	19.995	100.684	19.997	6.269	0.556
736.000	440.040	79.999	19.996	100.687	20.002	5.907	0.577
744.000	444.283	80.003	19.995	100.683	20.008	5.547	0.530
752.000	448.457	80.001	19.994	100.668	20.009	5.482	0.549
760.001	452.524	80.000	19.995	100.670	20.013	5.174	0.544
768.000	456.475	80.000	19.995	100.658	20.019	4.779	0.489
776.000	460.468	80.000	19.995	100.650	20.021	4.637	0.467
784.000	464.394	79.999	19.995	100.668	20.025	4.350	0.479
792.001	468.409	79.999	19.996	100.666	20.026	4.343	0.528
800.000	472.435	80.001	19.997	100.667	20.031	4.004	0.489
808.000	476.636	80.000	19.996	100.679	20.033	3.844	0.530
816.000	480.929	80.000	19.996	100.665	20.030	4.074	0.532
824.000	485.082	80.001	19.996	100.665	20.031	3.957	0.520
832.000	489.229	80.002	19.997	100.664	20.032	3.879	0.510
840.000	493.392	80.000	19.994	100.661	20.032	3.907	0.529
848.000	497.494	80.000	19.995	100.666	20.039	3.474	0.491
856.000	501.565	80.002	19.996	100.663	20.034	3.789	0.502
864.000	505.630	80.000	19.996	100.661	20.041	3.283	0.511
872.000	509.625	80.000	19.995	100.664	20.036	3.665	0.502
880.001	513.697	80.000	19.995	100.665	20.039	3.432	0.499
888.000	517.734	80.002	19.995	100.659	20.041	3.326	0.540
896.000	521.750	80.001	19.996	100.668	20.042	3.212	0.498
904.000	525.863	80.001	19.995	100.652	20.046	2.998	0.524
912.000	529.905	80.002	19.996	100.652	20.040	3.398	0.527
920.000	533.912	80.000	19.998	100.662	20.041	3.302	0.514
928.000	537.890	80.000	19.994	100.653	20.044	3.142	0.491
936.000	541.776	80.000	19.995	100.660	20.040	3.346	0.489
944.000	545.692	79.999	19.995	100.656	20.046	2.974	0.470
952.000	549.634	80.000	19.995	100.656	20.044	3.117	0.516
960.000	553.633	80.000	19.994	100.661	20.039	3.421	0.514
968.000	557.676	80.003	19.995	100.669	20.035	3.720	0.517
976.000	561.813	79.999	19.994	100.652	20.040	3.403	0.529
984.000	565.832	80.002	19.996	100.655	20.040	3.401	0.537
992.000	569.859	80.003	19.995	100.658	20.035	3.721	0.496
1000.000	573.898	79.999	19.995	100.660	20.035	3.712	0.490
1008.000	577.973	79.998	19.995	100.656	20.034	3.785	0.527
1016.000	581.960	80.000	19.994	100.654	20.034	3.780	0.471
1024.000	586.001	80.000	19.995	100.661	20.034	3.764	0.478
1032.000	590.001	80.000	19.997	100.649	20.033	3.820	0.509
1040.000	594.070	80.001	19.997	100.666	20.030	4.018	0.520
1048.000	598.181	80.001	19.994	100.661	20.034	3.781	0.517
1056.000	602.462	80.002	19.994	100.665	20.036	3.677	0.540
1064.000	606.783	80.001	19.995	100.666	20.036	3.620	0.539
1072.001	611.235	80.002	19.996	100.668	20.034	3.791	0.562
1080.000	615.607	80.001	19.996	100.656	20.035	3.688	0.535
1088.000	619.973	80.002	19.994	100.667	20.034	3.809	0.537
1096.000	624.334	80.000	19.996	100.662	20.033	3.862	0.502
1104.000	628.631	79.999	19.997	100.663	20.030	4.036	0.557
1112.001	632.879	80.000	19.995	100.659	20.034	3.751	0.535
1120.000	637.133	80.000	19.994	100.650	20.030	4.018	0.535
1128.000	641.303	80.001	19.995	100.662	20.028	4.162	0.512
1136.001	645.453	80.001	19.995	100.657	20.024	4.438	0.523
1144.000	649.483	79.999	19.994	100.653	20.028	4.211	0.510
1152.000	653.595	80.001	19.995	100.655	20.029	4.090	0.498
1160.000	657.691	80.003	19.995	100.656	20.029	4.112	0.510
1168.000	661.731	80.002	19.996	100.650	20.030	4.054	0.517
1176.000	665.715	79.999	19.994	100.653	20.027	4.249	0.496
1184.000	669.769	80.001	19.995	100.651	20.027	4.267	0.526
1192.000	673.786	80.001	19.996	100.656	20.024	4.442	0.515
1200.000	677.753	79.998	19.997	100.649	20.027	4.263	0.464
1208.000	681.854	80.000	19.995	100.655	20.029	4.088	0.474
1216.000	685.953	80.002	19.995	100.652	20.028	4.213	0.520
1224.000	689.970	80.002	19.995	100.648	20.024	4.476	0.502
1232.000	694.078	80.001	19.995	100.648	20.019	4.802	0.481
1240.000	698.116	80.004	19.995	100.648	20.026	4.308	0.492
1248.000	702.085	80.002	19.995	100.648	20.026	4.283	0.505
1256.000	706.178	80.001	19.995	100.649	20.023	4.523	0.482
1264.000	710.100	80.000	19.995	100.652	20.022	4.595	0.474
1272.001	714.084	80.001	19.994	100.648	20.024	4.444	0.519
1280.000	718.080	80.001	19.995	100.659	20.020	4.716	0.493
1288.000	722.109	79.999	19.997	100.649	20.027	4.225	0.496
1296.000	726.122	80.003	19.995	100.646	20.023	4.501	0.518
1304.000	730.174	80.003	19.995	100.647	20.018	4.816	0.505
1312.001	734.128	80.002	19.994	100.646	20.021	4.647	0.467
1320.000	737.852	80.001	19.993	100.644	20.015	5.027	0.474
1328.000	741.517	80.002	19.994	100.643	20.018	4.819	0.432
1334.000	744.186	80.002	19.994	100.648	20.013	5.204	0.438

File: Gypsum_Wallboard_Paper_MCC_30K_min_211001_R2.txt
Sample ID:	C:\MCC\MCC Cal\Test\Gypsum_Wallboard_Paper_211001_R2.txt
Sample Weight (mg):	4.81
Heating Rate (C/s):	0.5
Combustor Temp (C):	900
N2 Flow Rate (cc/min):	80
O2 Flow Rate (cc/min):	20
Calibration File:	C:\MCC\MCC Cal\Coeff1 JN10440_30_210304.txt.txt
T Correction Coefficients:	0	1.024463	0
Time Shift (s):	14
*
Time (s)	Temperature (C)	N2 flow rate (cc/min)	O2 flow rate (cc/min)	Flow Rate (cc/min)	Oxygen (%)	HRR (W/g)	Heating rate (C/s)
0.000	108.918	80.002	19.993	100.581	19.936	0.248	-0.009
8.000	108.861	80.003	19.995	100.585	19.938	0.165	0.016
16.000	108.858	80.002	19.995	100.614	19.933	0.456	0.000
24.000	108.937	80.001	19.993	100.678	19.922	1.213	0.026
32.000	109.397	80.002	19.995	100.736	19.904	2.340	0.054
40.000	110.294	80.003	19.994	100.775	19.897	2.838	0.115
48.001	111.509	80.001	19.995	100.791	19.892	3.179	0.181
56.000	113.199	80.001	19.994	100.802	19.887	3.492	0.228
64.000	115.186	80.002	19.995	100.802	19.890	3.255	0.263
72.000	117.425	80.001	19.996	100.805	19.888	3.404	0.327
80.001	119.940	80.003	19.996	100.803	19.888	3.415	0.346
88.001	122.578	80.005	19.994	100.813	19.886	3.544	0.318
96.000	125.413	80.004	19.995	100.810	19.886	3.567	0.354
104.000	128.459	80.001	19.994	100.826	19.888	3.386	0.367
112.000	131.661	80.000	19.994	100.840	19.885	3.616	0.404
120.000	135.005	80.002	19.994	100.836	19.883	3.750	0.419
128.000	138.496	80.001	19.995	100.838	19.882	3.835	0.470
136.000	141.980	80.001	19.995	100.838	19.883	3.752	0.421
144.001	145.662	80.002	19.996	100.828	19.881	3.901	0.464
152.000	149.324	80.001	19.994	100.810	19.877	4.137	0.448
160.000	153.099	80.002	19.994	100.815	19.877	4.119	0.470
168.000	156.807	80.002	19.994	100.811	19.881	3.869	0.473
176.000	160.740	80.004	19.995	100.803	19.881	3.864	0.491
184.001	164.713	80.001	19.995	100.803	19.880	3.959	0.556
192.000	168.688	80.002	19.995	100.804	19.885	3.638	0.486
200.000	172.626	80.002	19.993	100.800	19.881	3.886	0.508
208.000	176.596	80.001	19.994	100.799	19.878	4.067	0.475
216.000	180.557	80.001	19.996	100.798	19.882	3.828	0.471
224.000	184.555	80.002	19.994	100.780	19.877	4.133	0.517
232.000	188.609	80.003	19.995	100.766	19.883	3.734	0.490
240.001	192.545	80.002	19.995	100.763	19.885	3.637	0.526
248.001	196.511	80.003	19.995	100.763	19.884	3.665	0.489
256.000	200.473	80.004	19.995	100.762	19.881	3.869	0.498
264.000	204.326	80.003	19.994	100.765	19.879	3.970	0.482
272.000	208.254	80.000	19.996	100.763	19.881	3.897	0.535
280.000	212.120	79.999	19.994	100.765	19.882	3.815	0.473
288.000	216.002	80.001	19.993	100.769	19.879	3.977	0.453
296.000	219.940	80.001	19.994	100.764	19.874	4.352	0.517
304.000	223.793	80.000	19.994	100.763	19.871	4.528	0.479
312.000	227.754	80.003	19.994	100.754	19.871	4.536	0.495
320.000	231.735	80.003	19.994	100.762	19.865	4.938	0.491
328.000	235.636	80.003	19.995	100.764	19.853	5.722	0.519
336.000	239.521	80.003	19.995	100.769	19.848	6.026	0.514
344.000	243.523	80.004	19.994	100.779	19.840	6.523	0.533
352.000	247.631	80.001	19.994	100.772	19.833	7.029	0.557
360.000	251.887	80.001	19.995	100.768	19.827	7.410	0.550
368.000	255.997	80.000	19.996	100.770	19.816	8.104	0.538
376.000	260.161	80.001	19.994	100.773	19.795	9.468	0.521
384.000	264.220	80.001	19.994	100.788	19.781	10.403	0.527
392.000	268.258	80.000	19.995	100.785	19.763	11.584	0.487
400.000	272.307	80.003	19.994	100.804	19.743	12.900	0.528
408.000	276.296	80.002	19.993	100.803	19.720	14.418	0.515
416.000	280.190	80.001	19.993	100.806	19.695	16.050	0.492
424.000	284.056	80.003	19.995	100.805	19.672	17.539	0.497
432.000	287.802	80.002	19.994	100.802	19.643	19.416	0.514
440.000	291.605	80.000	19.995	100.843	19.610	21.629	0.503
448.000	295.457	80.002	19.995	100.861	19.580	23.572	0.476
456.000	299.568	80.000	19.995	100.876	19.542	26.093	0.542
464.000	303.742	80.000	19.994	100.888	19.498	28.975	0.523
472.000	308.002	80.001	19.995	100.909	19.459	31.492	0.541
480.000	312.331	80.002	19.994	100.923	19.414	34.422	0.563
488.000	316.696	80.003	19.994	100.935	19.367	37.506	0.551
496.000	320.970	80.001	19.995	100.950	19.320	40.633	0.551
504.000	325.222	80.003	19.993	100.961	19.269	43.943	0.513
512.000	329.465	80.005	19.994	100.987	19.216	47.471	0.523
520.000	333.672	80.002	19.994	100.997	19.151	51.690	0.516
528.000	337.822	80.002	19.996	101.025	19.091	55.643	0.513
536.000	341.904	80.003	19.994	101.039	19.017	60.548	0.516
544.000	345.891	80.003	19.995	101.070	18.947	65.134	0.494
552.000	349.842	80.001	19.994	101.075	18.880	69.525	0.513
560.000	353.776	80.000	19.996	101.074	18.828	72.917	0.528
568.000	357.508	80.003	19.996	101.035	18.813	73.872	0.426
576.000	361.144	80.004	19.995	101.023	18.849	71.417	0.436
584.000	364.840	80.003	19.993	100.955	18.935	65.796	0.410
592.000	368.595	80.005	19.994	100.896	19.075	56.561	0.451
600.000	372.540	80.003	19.993	100.823	19.252	44.972	0.518
608.000	376.563	80.002	19.995	100.769	19.445	32.329	0.497
616.000	380.689	80.000	19.994	100.732	19.606	21.835	0.531
624.001	384.868	80.001	19.995	100.724	19.719	14.469	0.512
632.000	389.010	80.002	19.995	100.718	19.781	10.421	0.530
640.000	393.195	80.001	19.995	100.708	19.801	9.077	0.488
648.000	397.325	80.002	19.995	100.704	19.813	8.280	0.498
656.000	401.320	80.002	19.994	100.685	19.816	8.097	0.535
664.000	405.207	80.003	19.996	100.699	19.828	7.359	0.468
672.000	409.053	80.001	19.994	100.696	19.825	7.527	0.501
680.000	412.905	80.004	19.993	100.701	19.828	7.321	0.475
688.000	416.624	80.001	19.993	100.693	19.834	6.909	0.463
696.000	420.377	80.001	19.995	100.687	19.838	6.667	0.449
704.000	424.177	80.003	19.994	100.684	19.835	6.893	0.485
712.000	427.969	80.002	19.995	100.700	19.839	6.581	0.495
720.001	431.969	80.001	19.994	100.706	19.838	6.650	0.512
728.000	436.179	80.000	19.995	100.712	19.849	5.951	0.536
736.000	440.562	80.001	19.994	100.697	19.849	5.953	0.553
744.000	444.867	80.003	19.994	100.687	19.854	5.624	0.534
752.000	449.160	80.002	19.994	100.699	19.856	5.504	0.567
760.000	453.579	80.005	19.994	100.686	19.859	5.289	0.570
768.000	458.014	80.005	19.995	100.685	19.861	5.191	0.545
776.000	462.387	80.002	19.994	100.685	19.866	4.879	0.522
784.001	466.757	80.003	19.995	100.685	19.872	4.452	0.555
792.000	471.121	80.001	19.994	100.681	19.869	4.651	0.555
800.000	475.540	80.002	19.994	100.680	19.877	4.130	0.554
808.000	479.798	80.001	19.994	100.688	19.879	3.966	0.537
816.000	484.048	80.000	19.995	100.685	19.882	3.776	0.557
824.000	488.246	80.003	19.996	100.660	19.881	3.880	0.515
832.000	492.398	80.003	19.994	100.675	19.886	3.524	0.517
840.001	496.606	80.003	19.995	100.677	19.898	2.763	0.517
848.000	500.774	80.004	19.995	100.676	19.891	3.212	0.548
856.000	504.878	80.002	19.995	100.666	19.894	3.050	0.489
864.000	508.919	80.002	19.994	100.677	19.897	2.812	0.498
872.000	512.922	80.001	19.993	100.670	19.895	2.935	0.491
880.000	516.967	80.004	19.995	100.675	19.904	2.371	0.485
888.000	521.072	80.003	19.995	100.675	19.903	2.441	0.536
896.000	525.056	80.003	19.992	100.660	19.910	1.955	0.485
904.000	529.085	80.004	19.994	100.660	19.907	2.165	0.515
912.000	533.116	80.001	19.996	100.671	19.909	2.038	0.501
920.000	537.065	80.004	19.994	100.660	19.911	1.885	0.470
928.000	541.021	80.005	19.992	100.656	19.907	2.152	0.479
936.000	544.897	80.002	19.995	100.660	19.914	1.716	0.497
944.000	548.812	80.000	19.995	100.663	19.908	2.084	0.495
952.000	552.665	80.001	19.994	100.661	19.914	1.720	0.474
960.000	556.551	80.004	19.994	100.652	19.910	1.984	0.489
968.000	560.635	80.001	19.997	100.683	19.912	1.875	0.549
976.001	564.874	80.003	19.994	100.669	19.914	1.713	0.543
984.000	569.305	80.003	19.994	100.678	19.911	1.891	0.561
992.000	573.748	80.003	19.994	100.676	19.919	1.363	0.540
1000.000	578.322	80.001	19.995	100.677	19.914	1.697	0.544
1008.000	582.782	80.004	19.996	100.665	19.916	1.609	0.531
1016.000	587.216	80.005	19.996	100.668	19.916	1.572	0.556
1024.000	591.602	80.002	19.995	100.675	19.917	1.504	0.521
1032.000	595.987	79.999	19.995	100.657	19.916	1.554	0.555
1040.000	600.124	80.003	19.993	100.653	19.918	1.438	0.527
1048.000	604.031	80.001	19.995	100.641	19.921	1.229	0.502
1056.000	607.838	80.001	19.997	100.649	19.922	1.175	0.471
1064.000	611.676	80.001	19.994	100.661	19.918	1.437	0.503
1072.000	615.820	80.003	19.995	100.669	19.920	1.301	0.554
1080.000	619.988	80.003	19.993	100.667	19.922	1.162	0.521
1088.000	624.376	80.005	19.994	100.657	19.926	0.936	0.547
1096.000	628.715	80.007	19.994	100.672	19.927	0.878	0.556
1104.000	633.104	80.002	19.995	100.651	19.928	0.816	0.540
1112.000	637.494	80.004	19.995	100.656	19.926	0.948	0.536
1120.000	641.807	80.001	19.995	100.665	19.931	0.586	0.560
1128.000	646.052	80.001	19.996	100.653	19.928	0.823	0.533
1136.000	650.269	80.002	19.995	100.651	19.927	0.849	0.504
1144.000	654.371	80.003	19.995	100.656	19.925	1.000	0.511
1152.000	658.420	80.003	19.994	100.659	19.934	0.376	0.500
1160.000	662.294	80.003	19.995	100.641	19.932	0.550	0.499
1168.000	665.871	80.006	19.995	100.646	19.935	0.325	0.443
1176.001	669.448	80.005	19.994	100.644	19.935	0.332	0.468
1184.000	673.113	80.002	19.995	100.649	19.938	0.151	0.457
1192.000	676.823	80.002	19.995	100.649	19.935	0.360	0.428
1200.000	680.499	80.003	19.995	100.647	19.942	-0.093	0.447
1208.000	684.250	80.000	19.994	100.655	19.940	0.033	0.473
1216.000	688.180	80.000	19.996	100.653	19.936	0.278	0.499
1224.000	692.127	80.002	19.994	100.650	19.936	0.280	0.468
1232.000	696.145	80.005	19.994	100.654	19.940	0.023	0.501
1240.000	700.296	80.005	19.994	100.646	19.939	0.069	0.518
1248.000	704.521	80.003	19.994	100.650	19.941	-0.032	0.501
1256.000	708.704	80.004	19.992	100.648	19.944	-0.236	0.533
1264.000	713.006	80.002	19.993	100.657	19.943	-0.204	0.557
1272.000	717.334	80.002	19.993	100.651	19.940	0.009	0.546
1280.000	721.470	80.004	19.995	100.645	19.946	-0.345	0.520
1288.000	725.576	80.002	19.996	100.644	19.945	-0.325	0.530
1296.000	729.669	80.001	19.995	100.645	19.939	0.062	0.505
1304.000	733.709	80.004	19.996	100.644	19.946	-0.382	0.519
1312.000	737.638	80.002	19.996	100.642	19.942	-0.116	0.533
1320.000	741.455	80.004	19.996	100.647	19.945	-0.297	0.462
1325.000	743.865	80.003	19.993	100.648	19.948	-0.520	0.472