Folder: fsri_materials_database/01_Data/Gypsum_Wallboard_Paper/MCC (part 2)

File: Gypsum_Wallboard_Paper_MCC_30K_min_211001_R3.txt
Sample ID:	C:\MCC\MCC Cal\Test\Gypsum_Wallboard_Paper_211001_R3.txt
Sample Weight (mg):	4.55
Heating Rate (C/s):	0.5
Combustor Temp (C):	900
N2 Flow Rate (cc/min):	80
O2 Flow Rate (cc/min):	20
Calibration File:	C:\MCC\MCC Cal\Coeff1 JN10440_30_210304.txt.txt
T Correction Coefficients:	0	1.024463	0
Time Shift (s):	14
*
Time (s)	Temperature (C)	N2 flow rate (cc/min)	O2 flow rate (cc/min)	Flow Rate (cc/min)	Oxygen (%)	HRR (W/g)	Heating rate (C/s)
0.000	109.722	80.001	19.997	100.563	20.081	-0.492	-0.007
8.000	109.704	80.001	19.995	100.550	20.077	-0.271	-0.002
16.000	109.707	80.000	19.994	100.568	20.069	0.288	0.011
24.000	109.701	79.999	19.994	100.631	20.064	0.639	0.010
32.000	110.010	80.001	19.995	100.678	20.056	1.182	0.083
40.000	110.633	79.999	19.995	100.647	20.057	1.155	0.100
48.000	111.340	80.000	19.995	100.679	20.048	1.775	0.113
56.000	112.389	80.000	19.994	100.737	20.039	2.395	0.156
64.000	113.716	80.001	19.995	100.768	20.036	2.591	0.147
72.001	115.454	79.999	19.996	100.766	20.032	2.885	0.231
80.000	117.613	80.001	19.993	100.765	20.032	2.839	0.296
88.000	119.943	80.002	19.996	100.785	20.029	3.055	0.317
96.001	122.627	79.999	19.995	100.801	20.027	3.206	0.355
104.000	125.445	79.998	19.994	100.806	20.023	3.506	0.368
112.000	128.510	80.000	19.995	100.809	20.029	3.106	0.377
120.000	131.869	79.999	19.994	100.821	20.026	3.262	0.405
128.000	135.413	79.999	19.996	100.828	20.028	3.134	0.444
136.000	139.029	79.998	19.995	100.818	20.024	3.422	0.459
144.000	142.860	80.001	19.995	100.817	20.025	3.345	0.502
152.000	146.699	79.999	19.996	100.809	20.023	3.513	0.452
160.000	150.731	79.999	19.995	100.807	20.024	3.453	0.509
168.000	154.662	80.001	19.994	100.800	20.024	3.437	0.496
176.000	158.686	80.001	19.994	100.802	20.025	3.327	0.485
184.000	162.767	79.998	19.995	100.797	20.022	3.554	0.542
192.000	166.814	80.000	19.995	100.783	20.026	3.263	0.480
200.000	170.865	80.001	19.994	100.788	20.027	3.200	0.484
208.000	174.935	80.000	19.995	100.783	20.028	3.116	0.510
216.000	178.900	79.999	19.995	100.772	20.028	3.121	0.497
224.000	182.974	80.001	19.995	100.769	20.029	3.086	0.488
232.000	186.947	79.999	19.995	100.764	20.028	3.169	0.527
240.000	190.917	80.000	19.995	100.766	20.029	3.106	0.483
248.000	194.851	80.000	19.995	100.766	20.031	2.916	0.506
256.000	198.772	80.001	19.996	100.765	20.031	2.912	0.518
264.000	202.709	79.999	19.995	100.762	20.028	3.163	0.482
272.000	206.634	79.998	19.994	100.763	20.026	3.297	0.497
280.000	210.545	80.000	19.995	100.757	20.023	3.474	0.475
288.000	214.540	80.001	19.995	100.756	20.020	3.681	0.481
296.000	218.421	79.999	19.994	100.760	20.015	4.027	0.477
304.000	222.364	80.000	19.994	100.757	20.008	4.492	0.491
312.000	226.236	79.998	19.996	100.766	20.009	4.438	0.484
320.000	230.283	80.000	19.994	100.765	20.007	4.606	0.499
328.000	234.227	80.000	19.995	100.759	20.000	5.043	0.524
336.000	238.191	80.002	19.994	100.759	19.994	5.493	0.502
344.000	242.188	80.001	19.996	100.761	19.993	5.572	0.544
352.000	246.161	79.999	19.996	100.754	19.979	6.521	0.491
360.000	250.201	79.999	19.993	100.758	19.968	7.275	0.504
368.000	254.145	80.000	19.994	100.765	19.955	8.204	0.467
376.000	258.090	79.998	19.995	100.765	19.943	8.984	0.485
384.000	262.033	79.999	19.994	100.771	19.933	9.709	0.475
392.000	266.012	80.001	19.994	100.767	19.918	10.732	0.501
400.000	270.069	80.000	19.995	100.791	19.894	12.372	0.494
408.000	274.062	80.000	19.993	100.794	19.879	13.447	0.486
416.000	278.055	80.001	19.993	100.796	19.853	15.268	0.511
424.000	281.964	80.001	19.995	100.800	19.829	16.892	0.488
432.000	285.738	80.000	19.994	100.803	19.803	18.704	0.458
440.000	289.540	79.999	19.995	100.811	19.774	20.678	0.461
448.000	293.351	79.999	19.996	100.830	19.747	22.579	0.469
456.000	297.165	80.000	19.995	100.840	19.715	24.756	0.467
464.000	301.014	80.001	19.993	100.850	19.677	27.425	0.449
472.001	304.908	80.001	19.995	100.861	19.648	29.400	0.468
480.000	308.913	80.001	19.994	100.880	19.608	32.192	0.506
488.000	312.881	80.001	19.995	100.886	19.574	34.521	0.465
496.000	316.912	80.002	19.994	100.898	19.536	37.190	0.508
504.000	320.888	80.001	19.994	100.917	19.488	40.503	0.516
512.000	324.817	80.000	19.994	100.922	19.442	43.729	0.451
520.000	328.772	80.000	19.995	100.932	19.402	46.517	0.499
528.000	332.531	80.000	19.996	100.958	19.351	50.060	0.473
536.000	336.717	80.000	19.997	100.980	19.287	54.478	0.514
544.000	340.755	79.999	19.995	101.003	19.223	58.957	0.480
552.000	344.807	80.001	19.995	101.027	19.153	63.799	0.481
560.000	348.925	80.000	19.994	101.039	19.080	68.801	0.514
568.000	352.979	80.000	19.995	101.043	19.023	72.761	0.528
576.000	357.034	80.002	19.997	101.039	18.990	75.027	0.546
584.000	361.069	80.003	19.996	100.998	18.998	74.432	0.531
592.000	365.130	80.001	19.995	100.951	19.070	69.390	0.507
600.000	369.232	80.000	19.996	100.872	19.206	59.955	0.530
608.000	373.250	80.001	19.995	100.779	19.387	47.428	0.484
616.000	377.439	80.001	19.994	100.727	19.578	34.179	0.550
624.000	381.528	79.999	19.996	100.693	19.739	23.071	0.514
632.000	385.688	79.999	19.996	100.690	19.853	15.230	0.526
640.000	389.862	80.001	19.994	100.687	19.912	11.118	0.534
648.000	394.016	80.000	19.995	100.687	19.936	9.506	0.538
656.000	398.099	80.001	19.995	100.687	19.948	8.647	0.509
664.000	402.215	80.002	19.995	100.684	19.953	8.332	0.543
672.000	406.341	80.002	19.994	100.685	19.953	8.325	0.521
680.001	410.450	80.001	19.995	100.686	19.949	8.591	0.501
688.000	414.547	80.000	19.995	100.688	19.956	8.106	0.533
696.000	418.571	80.000	19.995	100.690	19.957	8.045	0.531
704.000	422.681	79.999	19.994	100.687	19.956	8.109	0.509
712.000	426.686	80.000	19.995	100.686	19.959	7.875	0.474
720.000	430.702	80.001	19.996	100.684	19.963	7.633	0.540
728.000	434.816	80.001	19.995	100.683	19.966	7.429	0.502
736.000	438.841	80.001	19.996	100.685	19.973	6.904	0.512
744.000	442.827	80.002	19.993	100.687	19.976	6.757	0.475
752.000	446.850	80.002	19.994	100.673	19.983	6.212	0.486
760.000	450.791	79.999	19.995	100.679	19.985	6.130	0.480
768.000	454.734	79.999	19.994	100.673	19.987	5.959	0.481
776.000	458.695	80.000	19.994	100.681	19.992	5.609	0.500
784.000	462.686	79.999	19.996	100.682	19.992	5.637	0.477
792.000	466.638	79.999	19.996	100.671	20.000	5.075	0.487
800.000	470.562	80.001	19.995	100.666	20.002	4.962	0.491
808.000	474.513	80.001	19.996	100.657	20.001	4.972	0.515
816.000	478.481	80.000	19.996	100.681	20.002	4.924	0.506
824.000	482.588	80.001	19.995	100.679	20.000	5.043	0.523
832.000	486.903	80.003	19.994	100.674	19.995	5.435	0.534
840.000	491.215	80.000	19.995	100.680	20.005	4.723	0.521
848.000	495.748	80.000	19.995	100.670	20.004	4.806	0.575
856.000	500.223	80.001	19.995	100.675	20.006	4.635	0.562
864.000	504.620	80.002	19.994	100.673	20.008	4.545	0.534
872.000	509.066	80.001	19.995	100.656	20.007	4.615	0.533
880.000	513.353	80.001	19.995	100.655	20.007	4.599	0.527
888.000	517.561	80.002	19.995	100.652	20.017	3.872	0.521
896.000	521.628	80.000	19.996	100.652	20.012	4.220	0.509
904.000	525.720	80.000	19.995	100.658	20.010	4.367	0.536
912.000	529.647	80.001	19.996	100.649	20.014	4.110	0.472
920.000	533.585	79.999	19.995	100.650	20.012	4.214	0.514
928.000	537.543	79.999	19.995	100.667	20.016	4.000	0.495
936.000	541.509	80.000	19.995	100.655	20.016	3.986	0.473
944.000	545.443	80.001	19.994	100.666	20.015	4.066	0.473
952.000	549.470	79.999	19.995	100.664	20.011	4.308	0.527
960.000	553.474	80.000	19.995	100.668	20.013	4.153	0.488
968.000	557.569	80.002	19.994	100.670	20.018	3.826	0.534
976.000	561.622	80.000	19.995	100.657	20.013	4.183	0.518
984.000	565.706	80.002	19.994	100.669	20.014	4.114	0.514
992.000	569.791	80.002	19.994	100.661	20.011	4.341	0.516
1000.000	573.926	80.000	19.996	100.662	20.014	4.121	0.536
1008.000	577.990	79.999	19.998	100.657	20.009	4.453	0.527
1016.000	582.065	79.999	19.995	100.663	20.012	4.213	0.495
1024.000	586.129	79.998	19.995	100.666	20.004	4.770	0.489
1032.000	590.224	79.997	19.994	100.663	20.008	4.507	0.523
1040.001	594.308	80.000	19.996	100.661	20.010	4.408	0.492
1048.000	598.444	80.001	19.996	100.660	20.012	4.231	0.512
1056.000	602.455	80.001	19.995	100.673	20.011	4.340	0.515
1064.000	606.382	80.001	19.995	100.649	20.010	4.407	0.480
1072.000	610.362	80.003	19.996	100.645	20.014	4.127	0.507
1080.001	614.350	80.002	19.994	100.654	20.011	4.311	0.496
1088.000	618.344	79.998	19.994	100.650	20.014	4.099	0.509
1096.000	622.358	79.999	19.996	100.654	20.010	4.409	0.527
1104.001	626.374	79.999	19.996	100.648	20.012	4.270	0.497
1112.001	630.414	80.001	19.996	100.651	20.009	4.480	0.508
1120.000	634.558	80.000	19.995	100.649	20.013	4.197	0.512
1128.000	638.710	80.003	19.994	100.648	20.014	4.134	0.551
1136.001	642.738	80.003	19.995	100.655	20.017	3.900	0.516
1144.000	646.866	80.001	19.995	100.652	20.015	4.058	0.514
1152.000	650.979	80.005	19.994	100.653	20.018	3.859	0.471
1160.001	655.151	80.003	19.995	100.650	20.007	4.593	0.530
1168.000	659.210	80.001	19.998	100.659	20.010	4.402	0.490
1176.000	663.220	80.000	19.994	100.651	20.015	4.058	0.511
1184.000	667.242	80.000	19.995	100.653	20.013	4.140	0.497
1192.000	671.357	79.999	19.996	100.647	20.018	3.814	0.528
1200.001	675.429	80.000	19.996	100.655	20.022	3.565	0.539
1208.000	679.530	80.000	19.996	100.647	20.016	3.967	0.546
1216.000	683.633	80.000	19.994	100.648	20.020	3.712	0.508
1224.000	687.655	80.000	19.995	100.648	20.015	4.009	0.496
1232.000	691.723	80.003	19.995	100.637	20.012	4.229	0.514
1240.000	695.809	80.002	19.994	100.644	20.012	4.234	0.530
1248.000	699.830	80.000	19.995	100.640	20.013	4.143	0.522
1256.000	703.880	80.001	19.996	100.628	20.014	4.115	0.462
1264.000	707.769	80.000	19.995	100.638	20.008	4.494	0.493
1272.000	711.685	80.001	19.995	100.628	20.014	4.128	0.481
1280.000	715.495	79.998	19.996	100.620	20.011	4.307	0.458
1288.000	719.423	79.999	19.997	100.649	20.018	3.847	0.497
1296.000	723.265	80.003	19.995	100.638	20.020	3.710	0.471
1304.000	727.220	80.001	19.994	100.646	20.016	3.992	0.525
1312.000	731.161	80.002	19.994	100.642	20.015	4.058	0.485
1320.001	735.181	80.001	19.995	100.653	20.017	3.891	0.501
1328.000	739.361	80.001	19.995	100.653	20.014	4.104	0.539
1335.001	743.152	80.001	19.994	100.650	20.018	3.808	0.547