Folder: fsri_materials_database/01_Data/Composite_Deck_Board/FTIR/IS (part 2)

File: Composite_Deck_Board_IS_S_220928_R5.dpt
7497.03,0.39806
7473.89,0.40340
7450.74,0.38768
7427.6,0.38878
7404.45,0.38515
7381.31,0.39226
7358.16,0.38714
7335.02,0.38623
7311.87,0.39027
7288.73,0.39077
7265.58,0.38238
7242.44,0.38469
7219.29,0.38439
7196.15,0.37911
7173,0.36493
7149.86,0.36708
7126.71,0.36872
7103.57,0.36566
7080.42,0.35836
7057.28,0.35492
7034.13,0.34927
7010.99,0.34445
6987.84,0.33754
6964.7,0.33459
6941.55,0.33050
6918.41,0.32776
6895.26,0.33748
6872.12,0.32757
6848.97,0.33482
6825.83,0.33688
6802.68,0.33057
6779.54,0.33305
6756.39,0.33654
6733.25,0.33174
6710.1,0.33946
6686.96,0.33601
6663.82,0.34143
6640.67,0.34223
6617.53,0.34363
6594.38,0.34629
6571.24,0.34764
6548.09,0.35033
6524.95,0.34888
6501.8,0.34826
6478.66,0.34787
6455.51,0.34623
6432.37,0.35017
6409.22,0.35158
6386.08,0.35477
6362.93,0.35260
6339.79,0.35559
6316.64,0.35235
6293.5,0.35451
6270.35,0.35266
6247.21,0.35332
6224.06,0.35683
6200.92,0.35645
6177.77,0.35999
6154.63,0.36168
6131.48,0.36392
6108.34,0.36451
6085.19,0.36406
6062.05,0.36083
6038.9,0.36346
6015.76,0.35614
5992.61,0.35678
5969.47,0.35340
5946.32,0.35093
5923.18,0.34683
5900.03,0.34072
5876.89,0.33732
5853.74,0.32243
5830.6,0.31176
5807.45,0.29809
5784.31,0.27863
5761.16,0.28859
5738.02,0.31488
5714.87,0.32288
5691.73,0.31609
5668.58,0.30304
5645.44,0.31737
5622.29,0.32224
5599.15,0.32433
5576,0.32622
5552.86,0.32269
5529.71,0.32404
5506.57,0.32491
5483.42,0.32296
5460.28,0.32722
5437.13,0.32917
5413.99,0.33363
5390.84,0.33534
5367.7,0.33708
5344.55,0.33619
5321.41,0.33247
5298.26,0.32568
5275.12,0.31223
5251.97,0.29219
5228.83,0.27695
5205.68,0.27246
5182.54,0.27139
5159.39,0.27535
5136.25,0.28262
5113.1,0.28755
5089.96,0.29239
5066.81,0.29628
5043.67,0.30080
5020.52,0.30442
4997.38,0.30469
4974.23,0.30205
4951.09,0.29748
4927.94,0.29041
4904.8,0.28156
4881.65,0.27184
4858.51,0.26381
4835.36,0.25822
4812.22,0.25327
4789.07,0.25011
4765.93,0.24915
4742.78,0.24903
4719.64,0.24897
4696.49,0.24969
4673.35,0.25333
4650.2,0.25826
4627.06,0.26161
4603.92,0.26569
4580.77,0.26713
4557.63,0.27007
4534.48,0.26952
4511.34,0.26868
4488.19,0.26213
4465.05,0.24945
4441.9,0.23274
4418.76,0.21849
4395.61,0.20857
4372.47,0.20345
4349.32,0.19089
4326.18,0.16549
4303.03,0.19194
4279.89,0.19017
4256.74,0.17400
4233.6,0.18552
4210.45,0.18315
4187.31,0.17777
4164.16,0.17908
4141.02,0.17902
4117.87,0.17661
4094.73,0.17232
4071.58,0.17310
4048.44,0.16876
4025.29,0.16599
4002.15,0.16750
3979,0.16923
3955.86,0.17232
3932.71,0.17445
3909.57,0.17739
3886.42,0.18011
3863.28,0.18442
3840.13,0.18768
3816.99,0.18883
3793.84,0.18953
3770.7,0.18873
3747.55,0.18564
3724.41,0.17956
3701.26,0.16737
3678.12,0.14650
3654.97,0.12229
3631.83,0.10574
3608.68,0.09171
3585.54,0.08236
3562.39,0.07420
3539.25,0.06870
3516.1,0.06494
3492.96,0.06174
3469.81,0.05990
3446.67,0.05865
3423.52,0.05814
3400.38,0.05801
3377.23,0.05762
3354.09,0.05772
3330.94,0.05822
3307.8,0.06100
3284.65,0.06127
3261.51,0.06445
3238.36,0.06627
3215.22,0.06942
3192.07,0.07279
3168.93,0.07538
3145.78,0.07869
3122.64,0.08085
3099.49,0.08321
3076.35,0.08482
3053.2,0.08540
3030.06,0.08443
3006.91,0.07914
2983.77,0.07012
2960.62,0.05288
2937.48,0.04340
2914.33,0.05289
2891.19,0.05472
2868.04,0.05626
2844.9,0.06024
2821.75,0.08029
2798.61,0.08839
2775.46,0.09300
2752.32,0.09450
2729.17,0.09530
2706.03,0.09727
2682.88,0.09924
2659.74,0.10017
2636.59,0.10175
2613.45,0.10519
2590.3,0.10733
2567.16,0.10988
2544.02,0.11091
2520.87,0.11259
2497.73,0.11589
2474.58,0.11835
2451.44,0.12067
2428.29,0.12327
2405.15,0.12692
2382,0.12991
2358.86,0.13093
2335.71,0.13068
2312.57,0.13226
2289.42,0.13274
2266.28,0.13192
2243.13,0.12946
2219.99,0.13054
2196.84,0.12888
2173.7,0.12334
2150.55,0.11831
2127.41,0.11795
2104.26,0.11954
2081.12,0.11981
2057.97,0.11858
2034.83,0.11870
2011.68,0.12196
1988.54,0.12630
1965.39,0.12553
1942.25,0.12538
1919.1,0.12864
1895.96,0.12711
1872.81,0.12884
1849.67,0.12527
1826.52,0.11833
1803.38,0.10750
1780.23,0.09079
1757.09,0.06323
1733.94,0.05819
1710.8,0.06589
1687.65,0.06957
1664.51,0.06336
1641.36,0.06355
1618.22,0.06049
1595.07,0.05621
1571.93,0.06819
1548.78,0.07132
1525.64,0.06427
1502.49,0.05504
1479.35,0.05241
1456.2,0.04658
1433.06,0.05048
1409.91,0.05307
1386.77,0.05066
1363.62,0.04998
1340.48,0.04974
1317.33,0.04952
1294.19,0.05082
1271.04,0.04686
1247.9,0.04713
1224.75,0.04806
1201.61,0.04918
1178.46,0.04656
1155.32,0.04550
1132.17,0.04250
1109.03,0.04372
1085.88,0.04438
1062.74,0.05045
1039.59,0.05382
1016.45,0.05780
993.304,0.06052
970.159,0.06529
947.014,0.07096
923.869,0.06815
900.724,0.06193
877.579,0.06414
854.434,0.06422
831.289,0.06130
808.144,0.05684
784.999,0.05917
761.854,0.05708
738.709,0.05230
715.565,0.05005
692.42,0.04989
669.275,0.04723
646.13,0.04610
622.985,0.04339
599.84,0.04483

File: Composite_Deck_Board_IS_S_220928_R6.dpt
7497.03,0.39729
7473.89,0.40270
7450.74,0.40254
7427.6,0.38965
7404.45,0.39513
7381.31,0.38901
7358.16,0.39046
7335.02,0.38880
7311.87,0.39223
7288.73,0.39233
7265.58,0.37575
7242.44,0.38712
7219.29,0.38356
7196.15,0.38316
7173,0.38102
7149.86,0.37259
7126.71,0.37505
7103.57,0.37241
7080.42,0.36666
7057.28,0.34978
7034.13,0.34713
7010.99,0.34826
6987.84,0.33879
6964.7,0.33648
6941.55,0.33450
6918.41,0.33612
6895.26,0.33325
6872.12,0.33512
6848.97,0.33082
6825.83,0.33558
6802.68,0.34006
6779.54,0.33361
6756.39,0.33501
6733.25,0.33657
6710.1,0.33863
6686.96,0.33931
6663.82,0.34323
6640.67,0.34206
6617.53,0.34726
6594.38,0.35027
6571.24,0.34953
6548.09,0.34935
6524.95,0.35020
6501.8,0.34620
6478.66,0.34955
6455.51,0.35315
6432.37,0.35003
6409.22,0.35254
6386.08,0.35033
6362.93,0.35192
6339.79,0.35030
6316.64,0.35437
6293.5,0.35517
6270.35,0.35643
6247.21,0.35829
6224.06,0.35944
6200.92,0.36388
6177.77,0.36147
6154.63,0.36781
6131.48,0.36437
6108.34,0.36481
6085.19,0.36459
6062.05,0.36537
6038.9,0.36240
6015.76,0.36052
5992.61,0.35886
5969.47,0.35659
5946.32,0.35481
5923.18,0.34943
5900.03,0.34451
5876.89,0.33892
5853.74,0.32568
5830.6,0.31352
5807.45,0.29891
5784.31,0.27906
5761.16,0.29436
5738.02,0.31567
5714.87,0.32274
5691.73,0.31655
5668.58,0.30434
5645.44,0.31840
5622.29,0.32384
5599.15,0.32799
5576,0.32800
5552.86,0.32731
5529.71,0.32673
5506.57,0.32539
5483.42,0.32667
5460.28,0.32931
5437.13,0.33226
5413.99,0.33642
5390.84,0.33838
5367.7,0.34007
5344.55,0.33852
5321.41,0.33738
5298.26,0.32720
5275.12,0.31640
5251.97,0.29727
5228.83,0.28091
5205.68,0.27454
5182.54,0.27491
5159.39,0.27963
5136.25,0.28583
5113.1,0.29117
5089.96,0.29520
5066.81,0.30102
5043.67,0.30387
5020.52,0.30766
4997.38,0.30713
4974.23,0.30473
4951.09,0.29898
4927.94,0.29224
4904.8,0.28296
4881.65,0.27434
4858.51,0.26543
4835.36,0.26084
4812.22,0.25451
4789.07,0.25367
4765.93,0.25177
4742.78,0.25018
4719.64,0.25036
4696.49,0.25209
4673.35,0.25518
4650.2,0.25977
4627.06,0.26379
4603.92,0.26779
4580.77,0.27022
4557.63,0.27111
4534.48,0.27190
4511.34,0.27076
4488.19,0.26397
4465.05,0.25032
4441.9,0.23499
4418.76,0.21981
4395.61,0.21038
4372.47,0.20468
4349.32,0.19308
4326.18,0.16687
4303.03,0.19346
4279.89,0.19012
4256.74,0.17552
4233.6,0.18685
4210.45,0.18421
4187.31,0.17982
4164.16,0.18141
4141.02,0.18157
4117.87,0.17777
4094.73,0.17323
4071.58,0.17447
4048.44,0.17033
4025.29,0.16689
4002.15,0.16899
3979,0.17052
3955.86,0.17423
3932.71,0.17586
3909.57,0.17838
3886.42,0.18133
3863.28,0.18608
3840.13,0.18931
3816.99,0.18993
3793.84,0.19146
3770.7,0.18996
3747.55,0.18791
3724.41,0.18102
3701.26,0.16850
3678.12,0.14808
3654.97,0.12376
3631.83,0.10677
3608.68,0.09292
3585.54,0.08207
3562.39,0.07532
3539.25,0.06926
3516.1,0.06523
3492.96,0.06229
3469.81,0.06024
3446.67,0.05886
3423.52,0.05859
3400.38,0.05796
3377.23,0.05787
3354.09,0.05771
3330.94,0.05835
3307.8,0.06020
3284.65,0.06182
3261.51,0.06412
3238.36,0.06674
3215.22,0.07082
3192.07,0.07265
3168.93,0.07650
3145.78,0.07897
3122.64,0.08213
3099.49,0.08366
3076.35,0.08511
3053.2,0.08615
3030.06,0.08527
3006.91,0.07906
2983.77,0.07069
2960.62,0.05335
2937.48,0.04307
2914.33,0.05350
2891.19,0.05503
2868.04,0.05612
2844.9,0.06087
2821.75,0.08078
2798.61,0.08905
2775.46,0.09343
2752.32,0.09554
2729.17,0.09602
2706.03,0.09824
2682.88,0.10011
2659.74,0.10101
2636.59,0.10225
2613.45,0.10569
2590.3,0.10861
2567.16,0.11082
2544.02,0.11182
2520.87,0.11376
2497.73,0.11686
2474.58,0.11939
2451.44,0.12189
2428.29,0.12411
2405.15,0.12807
2382,0.13075
2358.86,0.13216
2335.71,0.13147
2312.57,0.13329
2289.42,0.13357
2266.28,0.13269
2243.13,0.13010
2219.99,0.13125
2196.84,0.12991
2173.7,0.12415
2150.55,0.11948
2127.41,0.11922
2104.26,0.12044
2081.12,0.12079
2057.97,0.11958
2034.83,0.11979
2011.68,0.12292
1988.54,0.12748
1965.39,0.12644
1942.25,0.12680
1919.1,0.12997
1895.96,0.12831
1872.81,0.13013
1849.67,0.12650
1826.52,0.11944
1803.38,0.10848
1780.23,0.09111
1757.09,0.06342
1733.94,0.05840
1710.8,0.06632
1687.65,0.06990
1664.51,0.06361
1641.36,0.06354
1618.22,0.06101
1595.07,0.05632
1571.93,0.06874
1548.78,0.07184
1525.64,0.06454
1502.49,0.05464
1479.35,0.05269
1456.2,0.04729
1433.06,0.05035
1409.91,0.05321
1386.77,0.05101
1363.62,0.04998
1340.48,0.05005
1317.33,0.04963
1294.19,0.05038
1271.04,0.04709
1247.9,0.04696
1224.75,0.04839
1201.61,0.04893
1178.46,0.04613
1155.32,0.04590
1132.17,0.04202
1109.03,0.04337
1085.88,0.04409
1062.74,0.05112
1039.59,0.05407
1016.45,0.05763
993.304,0.06004
970.159,0.06575
947.014,0.07154
923.869,0.06845
900.724,0.06159
877.579,0.06587
854.434,0.06457
831.289,0.06048
808.144,0.05617
784.999,0.06044
761.854,0.05662
738.709,0.05106
715.565,0.04977
692.42,0.04882
669.275,0.04666
646.13,0.04664
622.985,0.04459
599.84,0.04505

File: Composite_Deck_Board_IS_S_220928_R7.dpt
7497.03,0.39394
7473.89,0.40323
7450.74,0.40112
7427.6,0.39360
7404.45,0.39442
7381.31,0.38735
7358.16,0.39592
7335.02,0.39855
7311.87,0.39064
7288.73,0.39092
7265.58,0.38583
7242.44,0.38067
7219.29,0.38012
7196.15,0.37710
7173,0.37195
7149.86,0.37680
7126.71,0.37328
7103.57,0.36475
7080.42,0.36036
7057.28,0.35511
7034.13,0.34935
7010.99,0.33950
6987.84,0.33658
6964.7,0.34097
6941.55,0.33190
6918.41,0.33347
6895.26,0.33381
6872.12,0.33380
6848.97,0.33724
6825.83,0.33609
6802.68,0.33311
6779.54,0.33483
6756.39,0.33597
6733.25,0.33794
6710.1,0.33813
6686.96,0.33434
6663.82,0.34432
6640.67,0.34130
6617.53,0.34399
6594.38,0.34457
6571.24,0.34724
6548.09,0.34717
6524.95,0.35010
6501.8,0.35158
6478.66,0.34692
6455.51,0.35276
6432.37,0.35229
6409.22,0.35400
6386.08,0.35203
6362.93,0.35354
6339.79,0.35428
6316.64,0.35362
6293.5,0.35198
6270.35,0.35750
6247.21,0.35699
6224.06,0.35903
6200.92,0.36533
6177.77,0.36006
6154.63,0.36624
6131.48,0.36526
6108.34,0.36564
6085.19,0.36355
6062.05,0.36279
6038.9,0.36089
6015.76,0.36042
5992.61,0.35813
5969.47,0.35517
5946.32,0.35331
5923.18,0.34858
5900.03,0.34563
5876.89,0.33667
5853.74,0.32695
5830.6,0.31350
5807.45,0.30007
5784.31,0.27986
5761.16,0.29128
5738.02,0.31423
5714.87,0.32363
5691.73,0.31742
5668.58,0.30287
5645.44,0.31845
5622.29,0.32351
5599.15,0.32532
5576,0.32671
5552.86,0.32772
5529.71,0.32601
5506.57,0.32750
5483.42,0.32833
5460.28,0.33034
5437.13,0.33137
5413.99,0.33323
5390.84,0.33529
5367.7,0.33954
5344.55,0.33981
5321.41,0.33539
5298.26,0.32931
5275.12,0.31422
5251.97,0.29391
5228.83,0.28017
5205.68,0.27573
5182.54,0.27475
5159.39,0.27777
5136.25,0.28474
5113.1,0.29014
5089.96,0.29432
5066.81,0.29966
5043.67,0.30404
5020.52,0.30524
4997.38,0.30707
4974.23,0.30425
4951.09,0.29983
4927.94,0.29139
4904.8,0.28154
4881.65,0.27354
4858.51,0.26555
4835.36,0.25974
4812.22,0.25447
4789.07,0.25247
4765.93,0.24999
4742.78,0.24949
4719.64,0.25048
4696.49,0.25230
4673.35,0.25414
4650.2,0.25937
4627.06,0.26292
4603.92,0.26638
4580.77,0.26886
4557.63,0.27119
4534.48,0.27258
4511.34,0.27007
4488.19,0.26451
4465.05,0.25042
4441.9,0.23415
4418.76,0.22058
4395.61,0.21003
4372.47,0.20403
4349.32,0.19291
4326.18,0.16657
4303.03,0.19285
4279.89,0.18994
4256.74,0.17519
4233.6,0.18660
4210.45,0.18434
4187.31,0.17926
4164.16,0.18113
4141.02,0.18042
4117.87,0.17841
4094.73,0.17381
4071.58,0.17404
4048.44,0.16939
4025.29,0.16638
4002.15,0.16925
3979,0.16943
3955.86,0.17419
3932.71,0.17621
3909.57,0.17882
3886.42,0.18134
3863.28,0.18606
3840.13,0.19044
3816.99,0.19031
3793.84,0.19157
3770.7,0.18942
3747.55,0.18754
3724.41,0.18182
3701.26,0.16837
3678.12,0.14899
3654.97,0.12421
3631.83,0.10723
3608.68,0.09313
3585.54,0.08231
3562.39,0.07534
3539.25,0.06975
3516.1,0.06461
3492.96,0.06198
3469.81,0.06046
3446.67,0.05918
3423.52,0.05868
3400.38,0.05824
3377.23,0.05773
3354.09,0.05745
3330.94,0.05910
3307.8,0.06110
3284.65,0.06165
3261.51,0.06369
3238.36,0.06676
3215.22,0.06919
3192.07,0.07287
3168.93,0.07562
3145.78,0.07957
3122.64,0.08228
3099.49,0.08377
3076.35,0.08464
3053.2,0.08624
3030.06,0.08484
3006.91,0.07980
2983.77,0.07037
2960.62,0.05358
2937.48,0.04257
2914.33,0.05312
2891.19,0.05520
2868.04,0.05637
2844.9,0.06057
2821.75,0.08050
2798.61,0.08873
2775.46,0.09344
2752.32,0.09558
2729.17,0.09528
2706.03,0.09837
2682.88,0.10032
2659.74,0.10073
2636.59,0.10216
2613.45,0.10586
2590.3,0.10861
2567.16,0.11066
2544.02,0.11192
2520.87,0.11304
2497.73,0.11650
2474.58,0.11929
2451.44,0.12206
2428.29,0.12399
2405.15,0.12775
2382,0.13088
2358.86,0.13228
2335.71,0.13106
2312.57,0.13327
2289.42,0.13364
2266.28,0.13316
2243.13,0.13042
2219.99,0.13109
2196.84,0.12988
2173.7,0.12410
2150.55,0.11941
2127.41,0.11898
2104.26,0.11986
2081.12,0.12072
2057.97,0.11950
2034.83,0.11966
2011.68,0.12275
1988.54,0.12734
1965.39,0.12644
1942.25,0.12637
1919.1,0.12965
1895.96,0.12818
1872.81,0.12956
1849.67,0.12645
1826.52,0.11938
1803.38,0.10825
1780.23,0.09104
1757.09,0.06334
1733.94,0.05848
1710.8,0.06638
1687.65,0.06996
1664.51,0.06350
1641.36,0.06339
1618.22,0.06083
1595.07,0.05646
1571.93,0.06860
1548.78,0.07208
1525.64,0.06498
1502.49,0.05479
1479.35,0.05261
1456.2,0.04697
1433.06,0.05007
1409.91,0.05332
1386.77,0.05073
1363.62,0.04952
1340.48,0.04984
1317.33,0.05044
1294.19,0.05096
1271.04,0.04692
1247.9,0.04696
1224.75,0.04850
1201.61,0.04966
1178.46,0.04633
1155.32,0.04626
1132.17,0.04209
1109.03,0.04318
1085.88,0.04363
1062.74,0.05031
1039.59,0.05430
1016.45,0.05767
993.304,0.06009
970.159,0.06509
947.014,0.07112
923.869,0.06834
900.724,0.06212
877.579,0.06497
854.434,0.06472
831.289,0.06123
808.144,0.05638
784.999,0.05933
761.854,0.05642
738.709,0.05274
715.565,0.04963
692.42,0.04910
669.275,0.04662
646.13,0.04707
622.985,0.04305
599.84,0.04625