Folder: fsri_materials_database/01_Data/Composite_Deck_Board/FTIR/IS

Note: README.md
# Materials and Products Database
### Repository of materials and products properties and fire test data to improve fire modeling and fire investigation.

This project was supported in part by Award No. 2019-DU-BX-0018, awarded by the National Institute of Justice, Office of Justice Programs, U.S. Department of Justice. The opinions, findings, and conclusions or recommendations expressed in this publication / program / exhibition are those of the author(s) and do not necessarily reflect those of the Department of Justice.

***
***

__Cite this database:__ "McKinnon, M., Weinschenk, C., Dow, N., DiDomizio, M., and Madrzykowski, D. Materials and Products Database (Version 1.0.0), Fire Safety Research Institute, UL Research Institutes. Columbia, MD 21045, 2023."

__Cite the Technical Reference Guide:__ "McKinnon, M., Weinschenk, C., and Madrzykowski, D. Materials and Products Database - Technical Reference Guide, Fire Safety Research Institute, UL Research Institutes. Columbia, MD 21045, 2023."

__Cite the User Guide:__ "McKinnon, M., and Weinschenk, C. Materials and Products Database - User Guide, Fire Safety Research Institute, UL Research Institutes. Columbia, MD 21045, 2023."

***
***

## Database Structure

## 01_Data/
Raw data generated from each apparatus are included here in plain-text format. The data is organized first by material, next by the short name of test apparatus used, and where applicable additional filtering by test settings.

### Test Apparatus and Data File Structure
- __Cone Calorimeter__ (Cone)
    + Data file structure includes the material, the short name for the apparatus, heat flux setting and scan/scalar, date of test, and replicate number. Scan is for the raw output data and scalar is for the initial conditions and high-level test parameters. 
        * Example: __MDF_Cone_HF25scalar_210323_R1__ stands for the first replicate of scalar data generated from a medium density fiber board test in cone calorimeter exposed to 25 kW/m<sup>2</sup> on March 23, 2021.
    + A _Cone_Notes.csv_ is generated for each material from the __plot_Cone_data.py__ script. For materials whose experiments deviated from typical behavior relevant pictures are included in the respective material directory.
- __Fourier Transform Infrared Spectrometer__ (FTIR)
    + The FTIR directory contains subdirectories for the Attenuated Total Reflectance method (ATR) and the Integrating Sphere (IS)
    + Data file structure for the ATR experiment files includes the material, the abbreviated name for the apparatus, date of test, and replicate number. 
        * Example: __MDF_ATR_210323_R5__ stands for the fifth replicate of data collected with the ATR accessory conducted on June 8, 2021.
    + Data file structure for the IS experiment files includes the material, the abbreviated name for the apparatus, the measurand, whether the test is a sample measurement or standard reference, date of test, and replicate number.
        * Example: __OSB_IS_REFLECT_MEAS_2

File: Composite_Deck_Board_IS_S_220928_R1.dpt
7497.03,0.40403
7473.89,0.38935
7450.74,0.38991
7427.6,0.39186
7404.45,0.39083
7381.31,0.40128
7358.16,0.38050
7335.02,0.39515
7311.87,0.39076
7288.73,0.39125
7265.58,0.38542
7242.44,0.37725
7219.29,0.37841
7196.15,0.37530
7173,0.37027
7149.86,0.37493
7126.71,0.36611
7103.57,0.36636
7080.42,0.35736
7057.28,0.34418
7034.13,0.34488
7010.99,0.33666
6987.84,0.33520
6964.7,0.33864
6941.55,0.33597
6918.41,0.33480
6895.26,0.32809
6872.12,0.32830
6848.97,0.33332
6825.83,0.33066
6802.68,0.33300
6779.54,0.33652
6756.39,0.33670
6733.25,0.33849
6710.1,0.33727
6686.96,0.33791
6663.82,0.33432
6640.67,0.33872
6617.53,0.34465
6594.38,0.34421
6571.24,0.33942
6548.09,0.34348
6524.95,0.34180
6501.8,0.34584
6478.66,0.34491
6455.51,0.34833
6432.37,0.35013
6409.22,0.34935
6386.08,0.34910
6362.93,0.35165
6339.79,0.35097
6316.64,0.34904
6293.5,0.35164
6270.35,0.35338
6247.21,0.35218
6224.06,0.35909
6200.92,0.35688
6177.77,0.36170
6154.63,0.36240
6131.48,0.36324
6108.34,0.36455
6085.19,0.36192
6062.05,0.36040
6038.9,0.36038
6015.76,0.35941
5992.61,0.35230
5969.47,0.35461
5946.32,0.35328
5923.18,0.34720
5900.03,0.34048
5876.89,0.33441
5853.74,0.32296
5830.6,0.31200
5807.45,0.29856
5784.31,0.27698
5761.16,0.28881
5738.02,0.31172
5714.87,0.31995
5691.73,0.31409
5668.58,0.30089
5645.44,0.31505
5622.29,0.32010
5599.15,0.32364
5576,0.32379
5552.86,0.32206
5529.71,0.32224
5506.57,0.32292
5483.42,0.32286
5460.28,0.32589
5437.13,0.32702
5413.99,0.32962
5390.84,0.33341
5367.7,0.33442
5344.55,0.33511
5321.41,0.33169
5298.26,0.32214
5275.12,0.30746
5251.97,0.28566
5228.83,0.27015
5205.68,0.26329
5182.54,0.26465
5159.39,0.26786
5136.25,0.27572
5113.1,0.28164
5089.96,0.28521
5066.81,0.29168
5043.67,0.29766
5020.52,0.29897
4997.38,0.29999
4974.23,0.29793
4951.09,0.29387
4927.94,0.28749
4904.8,0.27889
4881.65,0.27017
4858.51,0.26243
4835.36,0.25702
4812.22,0.25320
4789.07,0.24956
4765.93,0.24750
4742.78,0.24662
4719.64,0.24872
4696.49,0.24904
4673.35,0.25142
4650.2,0.25618
4627.06,0.25908
4603.92,0.26351
4580.77,0.26620
4557.63,0.26678
4534.48,0.26828
4511.34,0.26711
4488.19,0.26118
4465.05,0.24695
4441.9,0.23165
4418.76,0.21690
4395.61,0.20761
4372.47,0.20249
4349.32,0.19012
4326.18,0.16470
4303.03,0.18999
4279.89,0.18858
4256.74,0.17308
4233.6,0.18431
4210.45,0.18140
4187.31,0.17652
4164.16,0.17849
4141.02,0.17752
4117.87,0.17588
4094.73,0.16992
4071.58,0.17057
4048.44,0.16730
4025.29,0.16403
4002.15,0.16631
3979,0.16701
3955.86,0.17066
3932.71,0.17280
3909.57,0.17533
3886.42,0.17885
3863.28,0.18240
3840.13,0.18527
3816.99,0.18620
3793.84,0.18682
3770.7,0.18533
3747.55,0.18202
3724.41,0.17516
3701.26,0.16210
3678.12,0.14058
3654.97,0.11564
3631.83,0.09909
3608.68,0.08797
3585.54,0.07961
3562.39,0.07250
3539.25,0.06766
3516.1,0.06419
3492.96,0.06126
3469.81,0.06008
3446.67,0.05872
3423.52,0.05712
3400.38,0.05714
3377.23,0.05685
3354.09,0.05744
3330.94,0.05918
3307.8,0.05917
3284.65,0.06154
3261.51,0.06302
3238.36,0.06595
3215.22,0.06858
3192.07,0.07142
3168.93,0.07387
3145.78,0.07706
3122.64,0.07964
3099.49,0.08129
3076.35,0.08157
3053.2,0.08375
3030.06,0.08320
3006.91,0.07775
2983.77,0.06946
2960.62,0.05342
2937.48,0.04272
2914.33,0.05273
2891.19,0.05502
2868.04,0.05608
2844.9,0.06021
2821.75,0.07970
2798.61,0.08759
2775.46,0.09236
2752.32,0.09460
2729.17,0.09435
2706.03,0.09687
2682.88,0.09858
2659.74,0.09905
2636.59,0.10115
2613.45,0.10404
2590.3,0.10700
2567.16,0.10880
2544.02,0.10989
2520.87,0.11220
2497.73,0.11463
2474.58,0.11773
2451.44,0.12002
2428.29,0.12237
2405.15,0.12564
2382,0.12893
2358.86,0.13058
2335.71,0.12921
2312.57,0.13099
2289.42,0.13086
2266.28,0.13027
2243.13,0.12774
2219.99,0.12802
2196.84,0.12655
2173.7,0.12134
2150.55,0.11687
2127.41,0.11641
2104.26,0.11745
2081.12,0.11793
2057.97,0.11655
2034.83,0.11657
2011.68,0.11966
1988.54,0.12384
1965.39,0.12349
1942.25,0.12380
1919.1,0.12667
1895.96,0.12566
1872.81,0.12680
1849.67,0.12368
1826.52,0.11731
1803.38,0.10698
1780.23,0.09044
1757.09,0.06341
1733.94,0.05801
1710.8,0.06545
1687.65,0.06871
1664.51,0.06208
1641.36,0.06143
1618.22,0.05992
1595.07,0.05646
1571.93,0.06852
1548.78,0.07091
1525.64,0.06456
1502.49,0.05474
1479.35,0.05261
1456.2,0.04723
1433.06,0.04986
1409.91,0.05318
1386.77,0.05091
1363.62,0.04941
1340.48,0.05000
1317.33,0.04958
1294.19,0.05029
1271.04,0.04715
1247.9,0.04696
1224.75,0.04851
1201.61,0.04938
1178.46,0.04636
1155.32,0.04586
1132.17,0.04240
1109.03,0.04359
1085.88,0.04407
1062.74,0.05038
1039.59,0.05480
1016.45,0.05738
993.304,0.06032
970.159,0.06506
947.014,0.07087
923.869,0.06811
900.724,0.06181
877.579,0.06458
854.434,0.06394
831.289,0.06013
808.144,0.05587
784.999,0.05875
761.854,0.05593
738.709,0.05143
715.565,0.04863
692.42,0.04814
669.275,0.04641
646.13,0.04656
622.985,0.04524
599.84,0.04405

File: Composite_Deck_Board_IS_S_220928_R2.dpt
7497.03,0.40363
7473.89,0.40035
7450.74,0.40097
7427.6,0.38943
7404.45,0.39589
7381.31,0.39288
7358.16,0.39284
7335.02,0.38546
7311.87,0.39085
7288.73,0.37870
7265.58,0.38408
7242.44,0.37942
7219.29,0.38306
7196.15,0.37893
7173,0.37184
7149.86,0.36828
7126.71,0.37008
7103.57,0.36960
7080.42,0.36060
7057.28,0.35415
7034.13,0.34410
7010.99,0.34830
6987.84,0.34107
6964.7,0.33237
6941.55,0.33382
6918.41,0.33634
6895.26,0.33182
6872.12,0.33319
6848.97,0.32669
6825.83,0.32910
6802.68,0.33244
6779.54,0.33616
6756.39,0.33885
6733.25,0.33603
6710.1,0.33283
6686.96,0.33409
6663.82,0.33732
6640.67,0.34322
6617.53,0.34160
6594.38,0.34177
6571.24,0.34835
6548.09,0.34786
6524.95,0.34541
6501.8,0.34727
6478.66,0.34781
6455.51,0.35050
6432.37,0.34736
6409.22,0.34957
6386.08,0.35013
6362.93,0.34722
6339.79,0.34853
6316.64,0.35090
6293.5,0.35071
6270.35,0.35307
6247.21,0.35347
6224.06,0.35817
6200.92,0.36218
6177.77,0.36079
6154.63,0.36373
6131.48,0.36448
6108.34,0.36396
6085.19,0.36462
6062.05,0.36286
6038.9,0.35670
6015.76,0.35890
5992.61,0.35559
5969.47,0.35660
5946.32,0.35166
5923.18,0.34737
5900.03,0.34048
5876.89,0.33675
5853.74,0.32468
5830.6,0.30937
5807.45,0.29605
5784.31,0.27760
5761.16,0.29170
5738.02,0.31250
5714.87,0.32032
5691.73,0.31411
5668.58,0.30211
5645.44,0.31572
5622.29,0.32247
5599.15,0.32538
5576,0.32527
5552.86,0.32314
5529.71,0.32301
5506.57,0.32384
5483.42,0.32370
5460.28,0.32785
5437.13,0.32891
5413.99,0.33157
5390.84,0.33571
5367.7,0.33557
5344.55,0.33636
5321.41,0.33376
5298.26,0.32540
5275.12,0.30934
5251.97,0.29003
5228.83,0.27331
5205.68,0.26865
5182.54,0.26727
5159.39,0.27094
5136.25,0.27898
5113.1,0.28294
5089.96,0.29029
5066.81,0.29421
5043.67,0.29930
5020.52,0.30285
4997.38,0.30221
4974.23,0.29988
4951.09,0.29565
4927.94,0.29007
4904.8,0.28072
4881.65,0.27197
4858.51,0.26451
4835.36,0.25764
4812.22,0.25273
4789.07,0.25095
4765.93,0.24875
4742.78,0.24880
4719.64,0.24843
4696.49,0.24996
4673.35,0.25220
4650.2,0.25663
4627.06,0.26126
4603.92,0.26492
4580.77,0.26755
4557.63,0.26875
4534.48,0.27024
4511.34,0.26878
4488.19,0.26189
4465.05,0.24787
4441.9,0.23263
4418.76,0.21821
4395.61,0.20767
4372.47,0.20212
4349.32,0.19069
4326.18,0.16564
4303.03,0.19116
4279.89,0.18788
4256.74,0.17386
4233.6,0.18541
4210.45,0.18224
4187.31,0.17737
4164.16,0.17910
4141.02,0.17888
4117.87,0.17562
4094.73,0.17165
4071.58,0.17227
4048.44,0.16867
4025.29,0.16468
4002.15,0.16757
3979,0.16882
3955.86,0.17218
3932.71,0.17425
3909.57,0.17664
3886.42,0.17942
3863.28,0.18356
3840.13,0.18715
3816.99,0.18735
3793.84,0.18906
3770.7,0.18675
3747.55,0.18403
3724.41,0.17736
3701.26,0.16440
3678.12,0.14382
3654.97,0.11858
3631.83,0.10306
3608.68,0.09011
3585.54,0.08100
3562.39,0.07369
3539.25,0.06802
3516.1,0.06469
3492.96,0.06196
3469.81,0.05994
3446.67,0.05916
3423.52,0.05779
3400.38,0.05728
3377.23,0.05775
3354.09,0.05694
3330.94,0.05831
3307.8,0.06011
3284.65,0.06089
3261.51,0.06312
3238.36,0.06612
3215.22,0.06865
3192.07,0.07129
3168.93,0.07474
3145.78,0.07755
3122.64,0.08092
3099.49,0.08241
3076.35,0.08322
3053.2,0.08422
3030.06,0.08340
3006.91,0.07849
2983.77,0.06979
2960.62,0.05267
2937.48,0.04326
2914.33,0.05317
2891.19,0.05434
2868.04,0.05621
2844.9,0.06033
2821.75,0.08014
2798.61,0.08781
2775.46,0.09276
2752.32,0.09435
2729.17,0.09492
2706.03,0.09739
2682.88,0.09935
2659.74,0.10019
2636.59,0.10168
2613.45,0.10498
2590.3,0.10760
2567.16,0.10937
2544.02,0.11129
2520.87,0.11215
2497.73,0.11574
2474.58,0.11818
2451.44,0.12063
2428.29,0.12291
2405.15,0.12683
2382,0.12934
2358.86,0.13051
2335.71,0.13006
2312.57,0.13200
2289.42,0.13188
2266.28,0.13127
2243.13,0.12880
2219.99,0.12978
2196.84,0.12765
2173.7,0.12248
2150.55,0.11776
2127.41,0.11763
2104.26,0.11878
2081.12,0.11892
2057.97,0.11752
2034.83,0.11770
2011.68,0.12102
1988.54,0.12577
1965.39,0.12484
1942.25,0.12478
1919.1,0.12787
1895.96,0.12675
1872.81,0.12789
1849.67,0.12469
1826.52,0.11782
1803.38,0.10749
1780.23,0.09062
1757.09,0.06352
1733.94,0.05797
1710.8,0.06587
1687.65,0.06900
1664.51,0.06277
1641.36,0.06234
1618.22,0.06041
1595.07,0.05630
1571.93,0.06773
1548.78,0.07113
1525.64,0.06457
1502.49,0.05454
1479.35,0.05285
1456.2,0.04718
1433.06,0.05036
1409.91,0.05290
1386.77,0.05077
1363.62,0.04955
1340.48,0.04994
1317.33,0.04987
1294.19,0.05076
1271.04,0.04682
1247.9,0.04674
1224.75,0.04836
1201.61,0.04901
1178.46,0.04641
1155.32,0.04597
1132.17,0.04248
1109.03,0.04426
1085.88,0.04418
1062.74,0.05058
1039.59,0.05449
1016.45,0.05760
993.304,0.06053
970.159,0.06553
947.014,0.07069
923.869,0.06814
900.724,0.06251
877.579,0.06460
854.434,0.06503
831.289,0.06000
808.144,0.05655
784.999,0.05830
761.854,0.05600
738.709,0.05165
715.565,0.04849
692.42,0.05008
669.275,0.04744
646.13,0.04620
622.985,0.04646
599.84,0.04625

File: Composite_Deck_Board_IS_S_220928_R3.dpt
7497.03,0.39942
7473.89,0.38921
7450.74,0.40164
7427.6,0.39996
7404.45,0.39121
7381.31,0.40061
7358.16,0.38900
7335.02,0.38868
7311.87,0.38671
7288.73,0.38586
7265.58,0.38827
7242.44,0.38602
7219.29,0.38231
7196.15,0.38077
7173,0.37319
7149.86,0.37668
7126.71,0.37325
7103.57,0.36807
7080.42,0.35803
7057.28,0.35382
7034.13,0.35041
7010.99,0.33932
6987.84,0.33442
6964.7,0.33740
6941.55,0.33809
6918.41,0.33132
6895.26,0.33413
6872.12,0.33146
6848.97,0.33289
6825.83,0.33538
6802.68,0.33250
6779.54,0.33589
6756.39,0.33377
6733.25,0.33882
6710.1,0.33895
6686.96,0.33718
6663.82,0.33882
6640.67,0.34284
6617.53,0.34615
6594.38,0.34792
6571.24,0.34814
6548.09,0.34864
6524.95,0.34560
6501.8,0.34724
6478.66,0.34791
6455.51,0.34870
6432.37,0.34856
6409.22,0.35041
6386.08,0.35158
6362.93,0.34971
6339.79,0.35451
6316.64,0.35396
6293.5,0.35406
6270.35,0.35675
6247.21,0.35372
6224.06,0.35821
6200.92,0.35851
6177.77,0.36206
6154.63,0.36637
6131.48,0.36910
6108.34,0.36529
6085.19,0.36220
6062.05,0.36381
6038.9,0.35954
6015.76,0.35640
5992.61,0.35806
5969.47,0.35584
5946.32,0.35277
5923.18,0.34802
5900.03,0.34431
5876.89,0.33678
5853.74,0.32522
5830.6,0.31133
5807.45,0.29924
5784.31,0.27982
5761.16,0.29063
5738.02,0.31429
5714.87,0.32221
5691.73,0.31761
5668.58,0.30321
5645.44,0.31924
5622.29,0.32336
5599.15,0.32683
5576,0.32577
5552.86,0.32602
5529.71,0.32523
5506.57,0.32534
5483.42,0.32472
5460.28,0.32811
5437.13,0.32966
5413.99,0.33381
5390.84,0.33622
5367.7,0.33825
5344.55,0.33899
5321.41,0.33584
5298.26,0.32786
5275.12,0.31122
5251.97,0.29130
5228.83,0.27628
5205.68,0.27033
5182.54,0.27118
5159.39,0.27523
5136.25,0.28163
5113.1,0.28820
5089.96,0.29201
5066.81,0.29674
5043.67,0.30231
5020.52,0.30383
4997.38,0.30559
4974.23,0.30220
4951.09,0.29819
4927.94,0.29039
4904.8,0.28115
4881.65,0.27241
4858.51,0.26471
4835.36,0.25961
4812.22,0.25463
4789.07,0.25200
4765.93,0.24952
4742.78,0.24967
4719.64,0.24938
4696.49,0.25175
4673.35,0.25390
4650.2,0.25790
4627.06,0.26243
4603.92,0.26609
4580.77,0.26905
4557.63,0.26994
4534.48,0.27093
4511.34,0.26988
4488.19,0.26313
4465.05,0.24903
4441.9,0.23274
4418.76,0.21851
4395.61,0.20917
4372.47,0.20355
4349.32,0.19199
4326.18,0.16641
4303.03,0.19209
4279.89,0.18919
4256.74,0.17482
4233.6,0.18619
4210.45,0.18297
4187.31,0.17837
4164.16,0.17932
4141.02,0.17929
4117.87,0.17721
4094.73,0.17250
4071.58,0.17279
4048.44,0.16904
4025.29,0.16553
4002.15,0.16798
3979,0.16977
3955.86,0.17298
3932.71,0.17525
3909.57,0.17780
3886.42,0.18111
3863.28,0.18472
3840.13,0.18774
3816.99,0.18826
3793.84,0.18955
3770.7,0.18803
3747.55,0.18578
3724.41,0.17899
3701.26,0.16649
3678.12,0.14502
3654.97,0.12115
3631.83,0.10421
3608.68,0.09113
3585.54,0.08198
3562.39,0.07458
3539.25,0.06837
3516.1,0.06436
3492.96,0.06202
3469.81,0.05999
3446.67,0.05860
3423.52,0.05811
3400.38,0.05811
3377.23,0.05802
3354.09,0.05759
3330.94,0.05917
3307.8,0.05980
3284.65,0.06175
3261.51,0.06378
3238.36,0.06640
3215.22,0.06907
3192.07,0.07239
3168.93,0.07542
3145.78,0.07786
3122.64,0.08071
3099.49,0.08303
3076.35,0.08375
3053.2,0.08552
3030.06,0.08423
3006.91,0.07851
2983.77,0.07070
2960.62,0.05361
2937.48,0.04283
2914.33,0.05313
2891.19,0.05501
2868.04,0.05607
2844.9,0.06020
2821.75,0.08025
2798.61,0.08845
2775.46,0.09352
2752.32,0.09522
2729.17,0.09545
2706.03,0.09771
2682.88,0.09953
2659.74,0.10040
2636.59,0.10257
2613.45,0.10524
2590.3,0.10791
2567.16,0.10991
2544.02,0.11145
2520.87,0.11338
2497.73,0.11613
2474.58,0.11854
2451.44,0.12162
2428.29,0.12361
2405.15,0.12717
2382,0.13007
2358.86,0.13132
2335.71,0.13082
2312.57,0.13239
2289.42,0.13283
2266.28,0.13195
2243.13,0.12929
2219.99,0.13042
2196.84,0.12856
2173.7,0.12362
2150.55,0.11875
2127.41,0.11806
2104.26,0.11939
2081.12,0.11963
2057.97,0.11854
2034.83,0.11861
2011.68,0.12168
1988.54,0.12629
1965.39,0.12532
1942.25,0.12533
1919.1,0.12888
1895.96,0.12726
1872.81,0.12888
1849.67,0.12584
1826.52,0.11864
1803.38,0.10779
1780.23,0.09087
1757.09,0.06338
1733.94,0.05853
1710.8,0.06586
1687.65,0.06937
1664.51,0.06297
1641.36,0.06274
1618.22,0.06044
1595.07,0.05602
1571.93,0.06833
1548.78,0.07137
1525.64,0.06450
1502.49,0.05494
1479.35,0.05286
1456.2,0.04715
1433.06,0.05024
1409.91,0.05357
1386.77,0.05085
1363.62,0.04998
1340.48,0.04961
1317.33,0.05002
1294.19,0.05048
1271.04,0.04700
1247.9,0.04692
1224.75,0.04854
1201.61,0.04924
1178.46,0.04633
1155.32,0.04541
1132.17,0.04254
1109.03,0.04384
1085.88,0.04411
1062.74,0.05085
1039.59,0.05416
1016.45,0.05724
993.304,0.06009
970.159,0.06553
947.014,0.07084
923.869,0.06799
900.724,0.06236
877.579,0.06511
854.434,0.06485
831.289,0.06064
808.144,0.05634
784.999,0.05868
761.854,0.05638
738.709,0.05284
715.565,0.04942
692.42,0.04929
669.275,0.04708
646.13,0.04434
622.985,0.04495
599.84,0.04510

File: Composite_Deck_Board_IS_S_220928_R4.dpt
7497.03,0.39873
7473.89,0.40304
7450.74,0.39960
7427.6,0.39475
7404.45,0.39867
7381.31,0.39289
7358.16,0.39355
7335.02,0.38894
7311.87,0.38513
7288.73,0.38040
7265.58,0.38493
7242.44,0.39651
7219.29,0.37440
7196.15,0.37228
7173,0.37534
7149.86,0.37335
7126.71,0.36967
7103.57,0.36179
7080.42,0.36053
7057.28,0.35290
7034.13,0.34407
7010.99,0.34384
6987.84,0.33871
6964.7,0.33340
6941.55,0.33976
6918.41,0.33676
6895.26,0.33559
6872.12,0.32998
6848.97,0.33152
6825.83,0.33451
6802.68,0.33537
6779.54,0.33829
6756.39,0.33547
6733.25,0.34119
6710.1,0.34230
6686.96,0.34279
6663.82,0.34448
6640.67,0.34108
6617.53,0.34222
6594.38,0.34494
6571.24,0.35068
6548.09,0.34768
6524.95,0.34926
6501.8,0.35168
6478.66,0.34734
6455.51,0.35168
6432.37,0.34945
6409.22,0.35155
6386.08,0.35310
6362.93,0.35357
6339.79,0.35295
6316.64,0.35079
6293.5,0.35438
6270.35,0.35387
6247.21,0.35762
6224.06,0.36226
6200.92,0.36155
6177.77,0.36305
6154.63,0.36294
6131.48,0.36622
6108.34,0.36605
6085.19,0.36885
6062.05,0.36136
6038.9,0.36214
6015.76,0.35825
5992.61,0.36075
5969.47,0.35727
5946.32,0.35283
5923.18,0.34903
5900.03,0.34307
5876.89,0.33716
5853.74,0.32452
5830.6,0.31150
5807.45,0.29758
5784.31,0.27979
5761.16,0.29078
5738.02,0.31496
5714.87,0.32407
5691.73,0.31870
5668.58,0.30434
5645.44,0.31875
5622.29,0.32346
5599.15,0.32656
5576,0.32642
5552.86,0.32578
5529.71,0.32833
5506.57,0.32655
5483.42,0.32719
5460.28,0.32958
5437.13,0.33055
5413.99,0.33485
5390.84,0.33617
5367.7,0.33806
5344.55,0.33955
5321.41,0.33561
5298.26,0.32758
5275.12,0.31392
5251.97,0.29378
5228.83,0.27825
5205.68,0.27087
5182.54,0.27207
5159.39,0.27681
5136.25,0.28352
5113.1,0.28872
5089.96,0.29335
5066.81,0.29846
5043.67,0.30208
5020.52,0.30681
4997.38,0.30532
4974.23,0.30248
4951.09,0.29801
4927.94,0.29093
4904.8,0.28089
4881.65,0.27355
4858.51,0.26556
4835.36,0.25917
4812.22,0.25445
4789.07,0.25093
4765.93,0.25035
4742.78,0.25000
4719.64,0.25094
4696.49,0.25224
4673.35,0.25500
4650.2,0.25851
4627.06,0.26212
4603.92,0.26611
4580.77,0.26947
4557.63,0.27033
4534.48,0.27089
4511.34,0.27018
4488.19,0.26316
4465.05,0.25015
4441.9,0.23397
4418.76,0.22008
4395.61,0.20948
4372.47,0.20387
4349.32,0.19257
4326.18,0.16698
4303.03,0.19223
4279.89,0.19003
4256.74,0.17439
4233.6,0.18644
4210.45,0.18378
4187.31,0.17896
4164.16,0.18075
4141.02,0.17974
4117.87,0.17711
4094.73,0.17310
4071.58,0.17336
4048.44,0.16960
4025.29,0.16608
4002.15,0.16900
3979,0.16969
3955.86,0.17365
3932.71,0.17559
3909.57,0.17787
3886.42,0.18099
3863.28,0.18475
3840.13,0.18898
3816.99,0.18908
3793.84,0.19026
3770.7,0.18864
3747.55,0.18594
3724.41,0.17922
3701.26,0.16753
3678.12,0.14622
3654.97,0.12248
3631.83,0.10541
3608.68,0.09197
3585.54,0.08232
3562.39,0.07414
3539.25,0.06881
3516.1,0.06552
3492.96,0.06204
3469.81,0.06006
3446.67,0.05908
3423.52,0.05783
3400.38,0.05751
3377.23,0.05734
3354.09,0.05823
3330.94,0.05921
3307.8,0.06028
3284.65,0.06196
3261.51,0.06393
3238.36,0.06720
3215.22,0.06924
3192.07,0.07312
3168.93,0.07523
3145.78,0.07830
3122.64,0.08164
3099.49,0.08355
3076.35,0.08425
3053.2,0.08498
3030.06,0.08446
3006.91,0.07923
2983.77,0.06994
2960.62,0.05371
2937.48,0.04323
2914.33,0.05300
2891.19,0.05486
2868.04,0.05605
2844.9,0.06036
2821.75,0.08065
2798.61,0.08801
2775.46,0.09325
2752.32,0.09510
2729.17,0.09540
2706.03,0.09776
2682.88,0.09980
2659.74,0.10045
2636.59,0.10212
2613.45,0.10559
2590.3,0.10850
2567.16,0.11044
2544.02,0.11173
2520.87,0.11307
2497.73,0.11590
2474.58,0.11882
2451.44,0.12170
2428.29,0.12370
2405.15,0.12739
2382,0.13067
2358.86,0.13180
2335.71,0.13116
2312.57,0.13291
2289.42,0.13308
2266.28,0.13240
2243.13,0.13007
2219.99,0.13068
2196.84,0.12913
2173.7,0.12379
2150.55,0.11917
2127.41,0.11864
2104.26,0.11946
2081.12,0.12032
2057.97,0.11887
2034.83,0.11901
2011.68,0.12235
1988.54,0.12670
1965.39,0.12580
1942.25,0.12616
1919.1,0.12898
1895.96,0.12757
1872.81,0.12909
1849.67,0.12585
1826.52,0.11882
1803.38,0.10820
1780.23,0.09088
1757.09,0.06362
1733.94,0.05819
1710.8,0.06623
1687.65,0.06973
1664.51,0.06378
1641.36,0.06296
1618.22,0.06085
1595.07,0.05658
1571.93,0.06836
1548.78,0.07168
1525.64,0.06465
1502.49,0.05497
1479.35,0.05250
1456.2,0.04738
1433.06,0.05006
1409.91,0.05355
1386.77,0.05058
1363.62,0.04979
1340.48,0.04986
1317.33,0.04982
1294.19,0.05045
1271.04,0.04709
1247.9,0.04682
1224.75,0.04789
1201.61,0.04945
1178.46,0.04655
1155.32,0.04603
1132.17,0.04211
1109.03,0.04380
1085.88,0.04366
1062.74,0.05053
1039.59,0.05454
1016.45,0.05763
993.304,0.06095
970.159,0.06530
947.014,0.07084
923.869,0.06911
900.724,0.06227
877.579,0.06492
854.434,0.06493
831.289,0.06148
808.144,0.05622
784.999,0.06096
761.854,0.05715
738.709,0.05172
715.565,0.04949
692.42,0.04958
669.275,0.04651
646.13,0.04658
622.985,0.04528
599.84,0.04298