Folder: fsri_materials_database/01_Data/HDPE/Cone

Note: README.md
# Materials and Products Database
### Repository of materials and products properties and fire test data to improve fire modeling and fire investigation.

This project was supported in part by Award No. 2019-DU-BX-0018, awarded by the National Institute of Justice, Office of Justice Programs, U.S. Department of Justice. The opinions, findings, and conclusions or recommendations expressed in this publication / program / exhibition are those of the author(s) and do not necessarily reflect those of the Department of Justice.

***
***

__Cite this database:__ "McKinnon, M., Weinschenk, C., Dow, N., DiDomizio, M., and Madrzykowski, D. Materials and Products Database (Version 1.0.0), Fire Safety Research Institute, UL Research Institutes. Columbia, MD 21045, 2023."

__Cite the Technical Reference Guide:__ "McKinnon, M., Weinschenk, C., and Madrzykowski, D. Materials and Products Database - Technical Reference Guide, Fire Safety Research Institute, UL Research Institutes. Columbia, MD 21045, 2023."

__Cite the User Guide:__ "McKinnon, M., and Weinschenk, C. Materials and Products Database - User Guide, Fire Safety Research Institute, UL Research Institutes. Columbia, MD 21045, 2023."

***
***

## Database Structure

## 01_Data/
Raw data generated from each apparatus are included here in plain-text format. The data is organized first by material, next by the short name of test apparatus used, and where applicable additional filtering by test settings.

### Test Apparatus and Data File Structure
- __Cone Calorimeter__ (Cone)
    + Data file structure includes the material, the short name for the apparatus, heat flux setting and scan/scalar, date of test, and replicate number. Scan is for the raw output data and scalar is for the initial conditions and high-level test parameters. 
        * Example: __MDF_Cone_HF25scalar_210323_R1__ stands for the first replicate of scalar data generated from a medium density fiber board test in cone calorimeter exposed to 25 kW/m<sup>2</sup> on March 23, 2021.
    + A _Cone_Notes.csv_ is generated for each material from the __plot_Cone_data.py__ script. For materials whose experiments deviated from typical behavior relevant pictures are included in the respective material directory.
- __Fourier Transform Infrared Spectrometer__ (FTIR)
    + The FTIR directory contains subdirectories for the Attenuated Total Reflectance method (ATR) and the Integrating Sphere (IS)
    + Data file structure for the ATR experiment files includes the material, the abbreviated name for the apparatus, date of test, and replicate number. 
        * Example: __MDF_ATR_210323_R5__ stands for the fifth replicate of data collected with the ATR accessory conducted on June 8, 2021.
    + Data file structure for the IS experiment files includes the material, the abbreviated name for the apparatus, the measurand, whether the test is a sample measurement or standard reference, date of test, and replicate number.
        * Example: __OSB_IS_REFLECT_MEAS_2

File: HDPE_HRRPUA_25.csv
Time after Ignition,HDPE_R1,HDPE_R2,HDPE_R3,HDPE_R4,HDPE_R5,HDPE_R6,Mean,Std. Dev.
0.0,37.9,85.0,8.4,73.2,8.1,4.8,36.2,35.5
1.0,45.5,90.8,10.2,77.5,9.2,6.6,40.0,37.3
2.0,52.5,98.2,12.4,80.2,10.5,9.2,43.8,39.1
3.0,58.7,105.8,14.1,82.7,12.7,12.7,47.8,40.7
4.0,63.3,111.2,15.5,84.8,16.1,16.6,51.3,41.4
5.0,66.8,119.0,17.2,87.6,20.3,21.5,55.4,42.6
6.0,72.8,127.0,19.1,90.7,25.0,25.7,60.0,44.0
7.0,75.7,133.5,21.8,94.5,28.6,28.9,63.8,45.1
8.0,84.1,141.8,24.1,100.1,31.6,32.0,69.0,47.5
9.0,88.9,153.7,26.5,108.2,34.2,34.8,74.4,51.2
10.0,96.0,159.6,29.1,114.2,37.2,37.3,78.9,52.9
11.0,102.2,172.9,32.2,117.7,39.2,40.0,84.0,56.5
12.0,107.0,183.8,35.5,120.5,42.0,42.0,88.5,59.3
13.0,112.1,194.0,41.4,125.7,45.6,44.2,93.8,61.5
14.0,118.1,205.3,50.4,130.3,50.8,46.1,100.2,63.4
15.0,127.0,214.7,62.7,135.2,56.7,49.0,107.5,64.3
16.0,131.6,223.1,74.8,137.1,61.7,50.6,113.1,64.9
17.0,136.9,234.4,84.9,142.6,66.6,54.4,120.0,66.7
18.0,145.8,242.8,94.1,147.6,71.5,56.9,126.4,68.2
19.0,150.7,260.0,102.3,150.6,76.9,60.5,133.5,72.2
20.0,158.6,270.8,109.7,153.8,82.2,64.7,140.0,74.3
21.0,171.4,284.8,118.1,159.5,85.0,67.5,147.7,78.4
22.0,181.4,291.2,125.0,161.6,88.7,70.5,153.1,79.7
23.0,189.5,309.8,133.9,172.5,91.3,74.4,161.9,85.0
24.0,195.0,317.7,139.7,170.9,95.0,79.1,166.2,86.2
25.0,203.1,325.2,143.5,176.0,100.2,82.3,171.7,87.7
26.0,211.6,342.1,145.9,183.2,103.3,87.4,178.9,92.6
27.0,218.1,352.1,152.9,185.6,107.2,92.8,184.8,94.4
28.0,227.5,364.1,154.9,189.1,112.1,98.4,191.0,97.4
29.0,229.6,389.8,158.1,196.3,118.0,103.8,199.3,104.5
30.0,234.6,416.4,163.4,205.5,120.2,107.7,208.0,113.0
31.0,248.3,427.3,170.2,209.7,122.3,112.8,215.1,116.0
32.0,257.7,428.0,172.2,217.7,126.3,117.1,219.8,115.2
33.0,267.0,446.8,173.2,221.5,128.2,125.5,227.0,120.8
34.0,280.5,459.4,180.9,229.7,132.3,123.9,234.5,125.1
35.0,298.1,478.4,185.9,234.7,137.9,129.5,244.1,130.9
36.0,310.4,481.7,189.8,246.2,142.2,130.3,250.1,131.9
37.0,323.3,507.4,194.6,250.6,146.2,132.1,259.0,140.6
38.0,335.6,509.1,202.0,257.0,154.3,137.0,265.8,139.4
39.0,342.2,509.9,204.7,257.9,161.5,137.1,268.9,139.0
40.0,351.6,526.0,213.9,268.1,172.9,143.9,279.4,141.5
41.0,369.6,541.2,217.9,274.2,182.9,145.2,288.5,146.5
42.0,394.2,558.7,225.0,280.4,186.6,149.0,299.0,153.3
43.0,392.5,568.5,241.0,292.3,198.8,151.9,307.5,152.3
44.0,393.7,566.0,246.8,296.6,204.6,155.9,310.6,149.4
45.0,413.8,587.9,259.7,305.5,211.4,157.9,322.7,156.5
46.0,420.1,578.3,266.0,323.1,223.5,163.2,329.0,150.4
47.0,440.5,586.6,278.1,324.9,234.1,163.5,337.9,153.2
48.0,440.9,583.9,290.3,331.8,242.8,169.6,343.2,148.8
49.0,456.8,583.9,297.9,350.9,253.0,172.2,352.4,148.2
50.0,464.2,630.6,311.3,370.3,257.1,175.4,368.2,161.8
51.0,476.8,649.0,326.7,379.4,264.8,178.2,379.1,166.5
52.0,474.4,666.8,333.4,389.6,275.0,183.5,387.1,168.9
53.0,503.6,661.1,347.7,394.8,278.6,187.7,395.6,168.1
54.0,491.0,664.5,365.7,398.6,290.5,191.5,400.3,164.2
55.0,500.8,660.9,370.5,405.9,295.0,197.2,405.1,162.0
56.0,513.9,699.7,378.8,428.9,302.8,200.9,420.8,173.5
57.0,532.9,685.4,402.4,430.9,310.4,207.4,428.3,167.6
58.0,538.4,714.1,414.0,444.0,308.5,211.9,438.5,176.0
59.0,558.7,724.8,420.7,446.2,312.1,218.2,446.8,179.4
60.0,559.0,728.6,428.5,449.9,317.3,223.0,451.1,178.4
61.0,564.1,766.2,442.2,454.9,323.6,226.5,462.9,188.7
62.0,578.8,745.7,454.5,465.7,325.8,236.0,467.8,180.9
63.0,570.2,740.3,474.9,470.7,336.5,247.9,473.4,173.3
64.0,585.8,733.5,469.6,485.3,339.7,245.7,476.6,173.3
65.0,621.4,771.2,483.9,481.1,347.7,258.3,493.9,184.6
66.0,605.1,756.1,499.4,492.0,343.7,255.9,492.0,179.1
67.0,633.3,745.8,511.7,500.5,351.3,266.9,501.6,175.9
68.0,630.6,745.7,501.2,515.5,354.6,270.1,502.9,174.1
69.0,646.4,749.4,508.8,511.0,357.2,276.5,508.2,175.4
70.0,645.7,787.0,531.1,516.4,361.9,280.7,520.5,184.1
71.0,611.8,742.6,529.2,525.5,364.9,277.9,508.7,167.3
72.0,647.0,767.7,547.5,545.2,367.9,281.9,526.2,178.0
73.0,668.5,795.5,561.4,537.1,372.1,286.2,536.8,187.0
74.0,649.1,778.2,563.2,547.9,374.9,284.4,533.0,179.7
75.0,679.4,791.5,587.1,547.4,380.2,296.0,546.9,184.2
76.0,675.4,810.2,593.8,563.0,376.4,305.8,554.1,187.2
77.0,707.6,819.5,593.2,564.0,381.5,307.2,562.2,192.8
78.0,700.0,813.4,606.0,561.7,386.5,325.6,565.5,184.8
79.0,685.3,868.7,604.2,575.7,387.5,328.4,575.0,197.6
80.0,694.8,830.0,626.7,583.3,392.4,334.9,577.0,186.1
81.0,694.2,899.0,617.8,580.6,393.9,334.5,586.7,205.4
82.0,758.0,880.4,615.3,610.8,393.2,347.8,600.9,205.1
83.0,754.3,891.7,633.2,599.0,394.8,352.5,604.3,206.5
84.0,740.8,860.1,646.1,600.4,400.5,363.8,601.9,192.4
85.0,760.0,891.0,644.9,604.9,399.5,376.5,612.8,200.7
86.0,775.4,922.4,656.8,603.5,400.0,380.7,623.1,211.1
87.0,736.6,1029.5,659.0,608.2,407.3,384.6,637.5,237.4
88.0,765.0,1015.5,664.0,629.3,399.6,385.8,643.2,236.5
89.0,783.4,999.1,656.6,628.0,408.2,398.8,645.7,228.8
90.0,783.9,1013.7,654.0,620.3,411.1,402.4,647.6,232.2
91.0,778.1,1056.6,668.0,628.7,413.4,413.3,659.7,242.5
92.0,786.3,1082.3,672.6,648.6,417.1,427.7,672.4,247.6
93.0,793.1,1088.2,685.5,634.5,410.7,409.0,670.2,255.7
94.0,806.2,1177.3,672.4,661.0,423.0,418.4,693.1,281.8
95.0,837.2,1221.0,682.3,673.9,415.4,429.8,709.9,298.2
96.0,853.7,1189.5,697.0,666.7,427.7,424.0,709.8,287.8
97.0,837.8,1135.6,697.2,694.7,428.2,435.0,704.8,265.6
98.0,828.7,1369.6,700.2,700.9,429.9,437.6,744.5,344.9
99.0,851.8,1327.4,708.5,694.1,432.2,444.4,743.1,329.5
100.0,871.0,1341.4,713.0,683.9,447.3,447.2,750.6,332.7
101.0,866.0,1391.2,719.0,697.9,434.7,445.4,759.0,352.1
102.0,920.3,1230.9,733.8,731.7,449.1,456.0,753.6,295.9
103.0,974.8,1351.7,743.9,715.0,453.9,457.3,782.8,340.8
104.0,875.9,1350.4,743.5,708.7,448.0,462.3,764.8,331.9
105.0,1010.0,1332.7,752.8,740.9,445.1,465.9,791.2,337.9
106.0,981.7,1445.5,745.4,729.2,456.3,464.7,803.8,371.0
107.0,1026.8,1379.9,778.0,749.5,468.8,470.4,812.2,348.8
108.0,964.2,1406.2,784.6,717.9,462.1,476.1,801.8,352.3
109.0,1064.8,1364.3,808.9,733.0,465.9,470.0,817.8,349.8
110.0,970.0,1243.6,786.9,729.8,469.0,470.1,778.2,298.8
111.0,1054.4,1369.1,809.6,751.6,480.9,472.5,823.0,345.5
112.0,996.0,1404.0,801.3,762.8,491.1,480.0,822.6,346.2
113.0,1024.8,1388.2,832.5,784.0,484.9,486.4,833.5,343.2
114.0,1117.4,1311.8,832.0,755.8,493.1,494.4,834.1,330.6
115.0,1110.2,1306.7,836.8,788.7,501.0,513.1,842.8,321.0
116.0,1145.6,1300.3,846.1,786.7,494.8,501.8,845.9,329.1
117.0,1247.0,1209.1,841.9,781.3,521.9,501.0,850.3,322.7
118.0,1181.8,1195.6,877.1,797.9,525.1,515.2,848.8,300.2
119.0,1190.6,1245.1,872.8,801.3,521.1,528.9,860.0,311.7
120.0,1126.7,1167.1,836.3,780.2,537.1,532.0,829.9,275.3
121.0,1121.9,1093.2,885.8,783.4,528.0,524.7,822.8,262.2
122.0,1151.3,1071.8,858.1,779.8,536.5,537.7,822.6,259.3
123.0,1271.2,988.7,874.8,814.3,542.3,527.5,836.5,281.5
124.0,1196.1,911.9,885.8,808.6,542.4,531.2,812.7,250.8
125.0,1254.3,838.8,911.4,832.5,551.5,532.8,820.2,265.3
126.0,1283.5,734.5,911.9,862.4,544.9,546.1,813.9,276.7
127.0,1230.2,635.6,876.3,821.8,572.1,540.5,779.4,258.9
128.0,1309.7,552.2,930.1,861.1,579.9,546.2,796.6,301.5
129.0,1378.8,476.2,934.8,811.2,578.4,547.2,787.8,337.7
130.0,1479.0,416.4,910.0,839.3,568.2,551.2,794.0,384.0
131.0,1337.7,372.0,932.1,842.3,575.2,544.8,767.4,346.6
132.0,1490.7,328.7,986.6,858.4,574.1,567.1,800.9,410.5
133.0,1409.3,285.5,991.8,861.5,595.8,561.6,784.2,393.3
134.0,1342.5,,1004.8,846.0,583.7,560.1,867.4,324.0
135.0,1459.1,,956.0,859.1,587.2,577.7,887.8,360.0
136.0,1567.7,,1030.5,860.2,617.9,578.2,930.9,400.9
137.0,1532.4,,1045.8,890.5,592.5,589.7,930.2,389.8
138.0,1429.8,,1016.0,874.9,607.3,575.1,900.6,348.6
139.0,1432.1,,979.0,889.3,584.5,582.9,893.6,349.8
140.0,1383.0,,979.2,885.0,613.5,606.7,893.5,319.2
141.0,1502.7,,1061.3,872.4,641.0,587.0,932.9,370.7
142.0,1543.7,,1046.4,910.1,632.4,580.6,942.6,387.4
143.0,1447.5,,1102.5,956.2,632.3,617.0,951.1,347.3
144.0,1395.8,,1080.5,901.5,628.8,600.3,921.4,331.5
145.0,1391.5,,1106.8,870.2,657.1,606.2,926.3,326.8
146.0,1357.8,,1114.3,907.7,651.5,597.3,925.7,318.4
147.0,1407.4,,1148.8,902.1,624.3,603.6,937.2,345.1
148.0,1414.5,,1096.6,937.8,653.1,617.2,943.8,330.2
149.0,1268.1,,1115.6,942.3,655.2,609.5,918.1,285.7
150.0,1310.6,,1149.8,918.1,654.0,628.3,932.2,300.2
151.0,1188.7,,1160.9,942.8,665.2,622.0,915.9,266.6
152.0,1181.0,,1082.1,949.4,685.0,627.4,905.0,242.4
153.0,1148.0,,1142.3,934.7,685.2,650.3,912.1,239.4
154.0,1188.1,,1149.2,929.3,686.9,619.6,914.6,259.3
155.0,1153.9,,1143.0,998.9,684.7,645.2,925.1,245.7
156.0,1119.0,,1216.8,1042.6,681.7,644.6,941.0,261.3
157.0,1102.1,,1186.3,965.1,708.7,644.2,921.3,238.1
158.0,1016.2,,1198.6,971.3,678.6,656.7,904.3,232.3
159.0,977.4,,1213.9,959.8,709.0,658.8,903.8,225.1
160.0,910.5,,1264.2,1005.1,697.7,659.8,907.5,246.0
161.0,895.2,,1160.0,1036.1,733.8,677.0,900.4,202.2
162.0,837.6,,1300.6,1006.1,710.4,685.4,908.0,253.6
163.0,771.5,,1235.5,1008.6,714.9,653.5,876.8,241.5
164.0,751.5,,1246.8,1013.7,751.4,679.4,888.5,237.4
165.0,677.1,,1298.8,1106.0,760.8,682.1,905.0,281.9
166.0,629.2,,1281.4,1006.8,714.3,682.0,862.7,276.3
167.0,569.5,,1387.3,1104.1,749.4,685.8,899.2,338.0
168.0,501.1,,1274.3,1002.7,742.2,676.8,839.4,302.5
169.0,444.2,,1339.2,1005.6,734.0,689.8,842.6,341.7
170.0,392.3,,1329.4,988.6,739.7,695.5,829.1,350.9
171.0,347.8,,1413.8,1043.5,719.0,684.1,841.6,403.7
172.0,303.3,,1315.4,1029.5,741.0,704.1,818.7,379.5
173.0,267.1,,1317.9,1010.1,732.5,702.5,806.0,390.6
174.0,240.0,,1331.3,1070.6,719.2,711.8,814.6,413.0
175.0,212.3,,1288.3,1026.6,756.5,747.5,806.2,399.9
176.0,191.5,,1394.0,1026.4,790.9,703.8,821.3,442.0
177.0,181.4,,1394.8,1026.6,749.1,711.0,812.6,446.5
178.0,170.5,,1413.7,1033.9,761.7,728.0,821.6,456.1
179.0,163.3,,1384.0,1029.5,790.9,709.3,815.4,449.0
179.5,160.2,,1353.9,1032.8,802.0,761.5,822.1,438.6

File: HDPE_HRRPUA_50.csv
Time after Ignition,HDPE_R1,HDPE_R3,HDPE_R2,HDPE_R4,Mean,Std. Dev.
0.0,9.3,10.8,17.9,24.8,15.7,7.1
0.5,13.2,14.3,21.7,29.2,19.6,7.4
1.0,17.8,17.0,25.2,34.3,23.6,8.0
1.5,23.2,20.9,28.4,39.5,28.0,8.3
2.0,29.0,24.1,31.6,45.7,32.6,9.3
2.5,34.2,27.8,34.6,50.6,36.8,9.7
3.0,38.5,31.2,38.0,56.2,41.0,10.7
3.5,43.9,33.7,40.6,61.2,44.8,11.7
4.0,49.6,37.2,43.5,65.2,48.9,12.0
4.5,54.6,41.5,46.8,70.1,53.3,12.5
5.0,59.2,45.0,50.8,74.5,57.4,12.8
5.5,63.9,48.8,55.6,78.8,61.8,12.9
6.0,71.1,51.6,58.8,84.8,66.6,14.6
6.5,74.3,55.4,64.3,89.5,70.9,14.6
7.0,81.2,59.2,67.5,94.2,75.5,15.4
7.5,85.0,63.0,73.7,101.7,80.8,16.6
8.0,90.0,67.5,79.7,108.1,86.3,17.2
8.5,95.1,73.5,86.0,114.3,92.2,17.2
9.0,100.1,78.9,91.8,122.5,98.3,18.3
9.5,105.7,80.3,97.7,127.8,102.9,19.7
10.0,110.7,86.5,104.0,131.3,108.1,18.5
10.5,116.3,89.5,111.0,138.1,113.7,20.0
11.0,121.2,96.7,115.7,143.6,119.3,19.3
11.5,126.7,101.3,123.8,152.8,126.2,21.1
12.0,131.2,109.2,129.9,158.2,132.1,20.1
12.5,137.5,115.9,137.6,163.8,138.7,19.6
13.0,146.5,119.7,143.6,169.7,144.9,20.4
13.5,151.9,125.1,154.6,177.1,152.2,21.3
14.0,160.5,131.3,161.7,184.3,159.5,21.7
14.5,175.0,142.1,172.6,186.2,169.0,18.9
15.0,180.1,146.5,182.7,195.4,176.2,20.9
15.5,186.8,156.0,191.9,204.2,184.7,20.5
16.0,198.4,162.8,201.8,206.0,192.2,19.9
16.5,215.3,171.5,212.9,212.0,202.9,21.0
17.0,216.0,177.5,217.7,219.9,207.8,20.2
17.5,231.2,186.9,225.2,228.5,217.9,20.9
18.0,235.3,192.9,237.5,235.4,225.3,21.6
18.5,241.3,195.9,246.6,241.2,231.2,23.7
19.0,252.0,205.3,253.4,252.3,240.7,23.6
19.5,260.6,210.4,263.2,249.6,245.9,24.4
20.0,264.2,219.8,275.9,263.5,255.9,24.7
20.5,274.9,230.0,290.1,273.3,267.1,25.8
21.0,286.7,238.8,299.3,284.8,277.4,26.5
21.5,290.8,245.3,312.5,291.0,284.9,28.3
22.0,300.8,251.7,324.3,299.1,294.0,30.5
22.5,320.6,260.3,333.9,308.2,305.8,32.1
23.0,325.8,270.9,338.6,320.8,314.0,29.7
23.5,330.5,276.2,335.5,329.3,317.9,27.9
24.0,336.8,286.3,357.7,327.2,327.0,30.0
24.5,338.5,291.0,353.6,336.2,329.8,27.0
25.0,372.0,304.9,373.8,342.0,348.2,32.3
25.5,362.6,294.9,381.9,353.0,348.1,37.5
26.0,372.8,313.1,389.5,355.4,357.7,32.8
26.5,390.5,320.1,384.4,367.1,365.5,31.8
27.0,407.9,319.7,391.3,364.3,370.8,38.5
27.5,420.6,332.6,399.6,370.9,380.9,38.1
28.0,428.7,335.8,412.0,379.5,389.0,40.9
28.5,441.8,358.7,410.4,401.9,403.2,34.3
29.0,445.8,349.6,419.0,399.7,403.5,40.6
29.5,474.6,374.1,429.1,409.9,421.9,41.9
30.0,495.1,384.3,440.8,420.0,435.0,46.3
30.5,497.7,386.7,458.8,425.2,442.1,47.3
31.0,491.7,396.8,454.2,415.7,439.6,42.2
31.5,514.3,407.8,460.6,446.4,457.3,44.1
32.0,540.9,423.8,461.8,448.6,468.8,50.6
32.5,550.9,415.5,472.7,453.1,473.1,57.1
33.0,560.6,430.7,490.1,476.0,489.4,53.8
33.5,561.7,438.7,477.8,468.8,486.8,52.7
34.0,594.4,450.8,490.0,485.3,505.1,62.0
34.5,585.7,465.5,509.3,504.7,516.3,50.3
35.0,628.5,470.0,511.7,491.5,525.4,70.8
35.5,659.2,468.1,511.9,514.8,538.5,83.2
36.0,677.9,482.6,525.9,516.5,550.7,86.8
36.5,692.4,501.4,526.7,528.8,562.3,87.6
37.0,690.9,496.6,538.8,542.8,567.3,85.0
37.5,728.4,524.0,541.9,536.0,582.6,97.5
38.0,735.3,523.8,549.1,546.8,588.8,98.4
38.5,744.9,539.0,558.9,548.8,597.9,98.3
39.0,780.1,531.5,552.6,570.9,608.8,115.3
39.5,809.9,546.5,566.1,577.1,624.9,124.0
40.0,816.4,556.8,580.7,584.4,634.6,121.8
40.5,794.8,571.1,562.7,590.6,629.8,110.6
41.0,825.0,559.5,574.7,600.4,639.9,124.6
41.5,833.5,582.9,575.2,588.6,645.1,125.8
42.0,811.0,578.3,575.4,610.8,643.9,112.6
42.5,875.0,595.7,587.6,612.3,667.6,138.6
43.0,838.8,599.9,591.0,643.1,668.2,116.0
43.5,894.6,616.1,587.3,621.8,679.9,143.9
44.0,926.4,649.5,600.9,648.0,706.2,148.5
44.5,954.4,630.4,593.5,655.7,708.5,165.9
45.0,951.7,661.3,626.9,661.9,725.5,151.7
45.5,958.7,632.6,633.5,679.9,726.2,156.6
46.0,992.0,671.6,653.0,674.8,747.9,163.1
46.5,1016.0,642.6,658.2,700.6,754.4,176.1
47.0,1036.0,655.3,650.0,725.9,766.8,182.8
47.5,968.3,686.4,657.5,707.2,754.8,143.8
48.0,999.3,676.4,671.2,752.4,774.8,154.2
48.5,974.6,699.8,665.0,716.3,763.9,142.1
49.0,1060.4,699.3,707.9,790.0,814.4,169.0
49.5,987.5,704.2,703.7,777.3,793.2,134.1
50.0,993.7,722.8,688.7,785.2,797.6,136.7
50.5,1109.5,784.2,721.6,808.3,855.9,173.0
51.0,1076.6,762.5,710.4,847.3,849.2,161.8
51.5,1109.5,756.2,744.5,861.4,867.9,169.4
52.0,1032.9,741.5,767.5,886.1,857.0,133.1
52.5,1136.2,780.4,784.3,860.3,890.3,168.0
53.0,1075.3,797.5,754.7,912.6,885.0,143.3
53.5,1105.6,812.6,789.0,919.2,906.6,144.2
54.0,1162.2,794.1,798.8,859.4,903.6,174.9
54.5,1150.8,810.3,839.7,919.4,930.0,154.2
55.0,1209.4,835.4,825.3,925.4,948.9,179.4
55.5,1178.2,815.6,856.7,970.9,955.4,162.5
56.0,1229.9,796.3,858.3,979.7,966.0,191.7
56.5,1113.4,808.3,921.8,934.4,944.5,126.1
57.0,1127.6,811.5,904.7,963.7,951.9,132.9
57.5,1270.8,905.1,958.9,986.8,1030.4,163.9
58.0,1192.9,893.1,913.3,1039.8,1009.8,138.2
58.5,1110.0,899.0,952.7,1027.7,997.4,91.8
59.0,1234.1,919.1,977.1,1033.6,1041.0,137.0
59.5,1218.6,853.1,990.1,1035.8,1024.4,151.0
60.0,1260.9,912.8,964.1,978.4,1029.0,157.1
60.5,1314.4,909.4,1016.6,1023.7,1066.0,173.6
61.0,1292.5,894.1,1037.5,961.9,1046.5,174.1
61.5,1275.9,993.3,1020.9,1041.5,1082.9,130.2
62.0,1390.1,936.2,1048.7,1056.2,1107.8,196.1
62.5,1306.6,913.5,1101.0,1039.1,1090.1,164.1
63.0,1325.0,950.3,1035.3,1107.1,1104.4,160.4
63.5,1296.0,973.5,1085.3,1068.3,1105.8,136.0
64.0,1251.4,975.0,1071.8,1172.1,1117.6,120.1
64.5,1236.4,993.7,1102.6,1074.2,1101.7,100.9
65.0,1317.0,1013.2,1168.2,1177.2,1168.9,124.1
65.5,1379.2,950.4,1096.1,1219.5,1161.3,182.2
66.0,1318.5,1017.2,1074.6,1217.6,1157.0,136.7
66.5,1333.7,1029.0,1120.8,1188.6,1168.0,128.4
67.0,1259.0,1023.1,1130.8,1252.8,1166.4,112.3
67.5,1431.6,1032.1,1197.0,1273.5,1233.6,166.1
68.0,1354.2,1052.7,1277.5,1358.5,1260.7,143.6
68.5,1281.3,1016.2,1236.5,1249.4,1195.8,121.2
69.0,1408.1,1044.1,1231.1,1313.1,1249.1,154.6
69.5,1416.4,1035.6,1286.6,1291.9,1257.6,159.7
70.0,1445.7,1118.5,1243.9,1279.4,1271.9,134.9
70.5,1363.5,1106.3,1185.0,1302.8,1239.4,115.6
71.0,1498.9,1156.7,1270.6,1375.7,1325.5,146.2
71.5,1466.3,1175.7,1229.4,1307.5,1294.7,126.5
72.0,1533.5,1093.4,1292.9,1272.6,1298.1,180.8
72.5,1567.7,1164.4,1333.3,1346.3,1352.9,165.4
73.0,1443.3,1128.8,1292.1,1344.2,1302.1,131.5
73.5,1438.1,1222.5,1268.6,1575.9,1376.3,162.2
74.0,1382.9,1122.9,1265.8,1487.0,1314.7,156.5
74.5,1566.6,1174.5,1307.9,1444.7,1373.4,169.6
75.0,1553.3,1365.2,1320.2,1583.0,1455.4,132.0
75.5,1735.8,1340.3,1301.6,1431.7,1452.4,196.7
76.0,1796.7,1214.0,1380.2,1404.6,1448.9,246.9
76.5,1700.7,1335.9,1369.9,1599.4,1501.5,177.0
77.0,1761.1,1281.6,1404.8,1383.5,1457.7,209.3
77.5,1690.5,1221.5,1351.6,1421.2,1421.2,197.7
78.0,1689.5,1298.0,1483.8,1454.3,1481.4,160.9
78.5,1475.9,1272.0,1415.3,1436.0,1399.8,88.8
79.0,1775.2,1328.1,1405.8,1427.9,1484.2,198.7
79.5,1747.2,1367.0,1457.8,1635.6,1551.9,171.5
80.0,1739.1,1330.0,1469.0,1552.4,1522.6,171.0
80.5,1747.0,1302.4,1442.3,1579.3,1517.7,190.1
81.0,1800.7,1599.7,1367.2,1720.1,1621.9,188.9
81.5,1606.1,1408.7,1467.5,1569.1,1512.9,90.8
82.0,1740.4,1261.5,1487.0,1558.6,1511.9,198.1
82.5,2323.2,1255.4,1566.8,1539.2,1671.1,456.9
83.0,1761.2,1633.8,1607.7,1680.3,1670.7,67.4
83.5,1779.4,1392.3,1453.9,1779.0,1601.1,207.1
84.0,1929.7,1410.4,1483.7,1659.2,1620.7,230.9
84.5,2417.0,1499.2,1520.5,1825.9,1815.6,427.8
85.0,2231.9,1398.9,1491.7,1646.8,1692.3,374.0
85.5,2262.0,1446.3,1651.4,1569.8,1732.4,363.0
86.0,2328.1,1494.5,1521.6,1670.8,1753.8,390.6
86.5,1894.5,1648.6,1682.0,1700.4,1731.4,110.8
87.0,1711.4,1529.1,1594.9,1914.0,1687.4,168.8
87.5,2121.0,1562.1,1583.7,1747.3,1753.5,258.6
88.0,1982.9,1459.4,1543.3,1764.2,1687.4,235.2
88.5,2038.7,1540.2,1599.3,1666.4,1711.1,224.4
89.0,2682.9,1522.7,1596.1,1685.2,1871.7,544.9
89.5,2206.2,1480.6,1693.7,1785.1,1791.4,304.5
90.0,2121.9,1854.0,1733.4,1765.3,1868.6,176.4
90.5,2133.6,1600.9,1637.5,1653.5,1756.4,252.4
91.0,2374.5,1760.3,1828.9,1832.9,1949.2,285.5
91.5,2425.2,1642.0,1704.9,1723.5,1873.9,369.2
92.0,2243.0,1621.8,1784.2,1744.2,1848.3,272.0
92.5,1836.3,1782.9,1805.0,2080.4,1876.1,137.9
93.0,2194.4,1458.8,1732.8,2024.9,1852.7,324.5
93.5,2800.6,1553.9,1799.4,1944.7,2024.7,541.9
94.0,2095.8,1761.6,1619.7,1803.0,1820.0,199.9
94.5,2474.2,1806.0,1764.3,2004.3,2012.2,325.3
95.0,2595.9,1622.1,1815.8,2038.8,2018.2,421.1
95.5,1933.7,1587.2,1779.6,1867.4,1792.0,150.4
96.0,2427.5,1541.2,1725.7,2066.6,1940.3,391.0
96.5,2580.4,1796.9,1869.7,2002.2,2062.3,355.7
97.0,2634.8,1903.6,1990.8,2121.9,2162.8,327.2
97.5,2926.2,1508.6,1928.6,1889.1,2063.1,605.7
98.0,2300.0,1580.1,1882.2,1695.3,1864.4,316.0
98.5,2798.6,1709.6,1784.6,2121.2,2103.5,496.8
99.0,2041.4,1813.3,1930.7,2339.9,2031.3,225.8
99.5,2658.8,2184.6,1841.6,2257.2,2235.5,335.4
100.0,1988.3,1683.6,1931.7,2159.6,1940.8,196.9
100.5,2235.0,1715.6,2108.3,2158.7,2054.4,231.8
101.0,2166.2,1961.0,1898.3,2128.8,2038.6,129.3
101.5,2371.8,2012.2,1886.4,2126.7,2099.3,206.5
102.0,2384.1,1950.9,2100.0,2192.1,2156.8,181.2
102.5,2183.5,2019.4,1914.9,2435.8,2138.4,227.0
103.0,2306.5,1850.6,1909.4,2322.2,2097.2,252.0
103.5,2184.8,2215.3,1881.4,2336.6,2154.5,193.5
104.0,2045.8,1917.4,2109.7,1986.5,2014.9,82.2
104.5,1910.1,2113.0,2305.8,1995.6,2081.1,171.3
105.0,2011.1,1982.8,1824.3,2224.4,2010.7,164.5
105.5,1849.9,2053.2,2011.3,2351.0,2066.4,209.0
106.0,1740.6,1777.5,2088.7,2265.6,1968.1,252.4
106.5,1686.3,1945.7,2042.4,2151.1,1956.4,198.6
107.0,1592.4,2111.5,1862.4,2309.9,1969.1,310.8
107.5,1466.1,2350.7,2276.2,2196.9,2072.5,409.1
108.0,1339.4,2241.1,2315.1,2185.1,2020.2,457.0
108.5,1258.0,2435.1,2185.9,1921.8,1950.2,506.8
109.0,1141.8,2208.6,2323.5,2007.5,1920.3,535.2
109.5,1031.0,2367.3,2169.2,2295.7,1965.8,628.6
110.0,956.7,2532.8,2231.5,2203.6,1981.2,699.0
110.5,843.8,1849.2,2444.0,2290.0,1856.8,720.8
111.0,794.7,2172.9,2380.4,1985.1,1833.3,710.9
111.5,718.9,2548.2,2309.8,1991.5,1892.1,814.7
112.0,652.0,2435.0,2403.4,2193.1,1920.9,852.7
112.5,601.9,2270.9,2343.1,2142.4,1839.6,829.3