Folder: fsri_materials_database/01_Data/HDPE/Cone (part 2)

File: HDPE_HRRPUA_75.csv
Time after Ignition,HDPE_R1,HDPE_R2,HDPE_R3,Mean,Std. Dev.
0.0,17.9,21.3,14.1,17.8,3.6
0.5,20.6,24.2,17.6,20.8,3.3
1.0,24.0,28.4,21.3,24.6,3.6
1.5,28.4,32.6,24.7,28.6,4.0
2.0,33.0,37.1,30.5,33.5,3.3
2.5,38.2,43.0,34.7,38.7,4.2
3.0,41.6,49.3,40.0,43.6,5.0
3.5,48.1,56.2,46.0,50.1,5.4
4.0,54.0,63.8,50.3,56.0,7.0
4.5,57.4,71.1,56.3,61.6,8.3
5.0,64.7,76.0,62.2,67.7,7.3
5.5,71.4,83.7,66.8,73.9,8.8
6.0,78.5,91.2,74.5,81.4,8.7
6.5,84.1,100.3,82.9,89.1,9.7
7.0,93.0,108.4,91.8,97.7,9.2
7.5,100.9,114.7,100.5,105.4,8.1
8.0,111.2,127.1,108.2,115.5,10.2
8.5,122.5,132.8,119.7,125.0,6.9
9.0,131.6,149.1,131.1,137.3,10.3
9.5,140.4,157.3,145.7,147.8,8.7
10.0,153.4,171.0,152.9,159.1,10.3
10.5,161.0,183.1,159.9,168.0,13.1
11.0,173.2,190.7,178.5,180.8,8.9
11.5,180.6,210.9,182.5,191.3,17.0
12.0,191.7,221.5,198.7,204.0,15.5
12.5,197.0,229.2,218.8,215.0,16.4
13.0,207.5,242.4,217.9,222.6,17.9
13.5,220.0,257.1,236.6,237.9,18.5
14.0,230.8,271.1,250.3,250.7,20.2
14.5,240.7,281.4,259.6,260.5,20.3
15.0,263.9,292.8,275.7,277.5,14.5
15.5,268.1,311.1,296.6,291.9,21.9
16.0,282.9,334.0,299.6,305.5,26.0
16.5,308.1,352.2,330.2,330.1,22.0
17.0,315.7,373.9,338.4,342.7,29.3
17.5,331.3,397.5,363.9,364.2,33.1
18.0,335.3,421.2,364.2,373.6,43.7
18.5,351.2,439.8,384.6,391.9,44.7
19.0,365.7,442.0,387.5,398.4,39.3
19.5,387.1,477.2,393.5,419.2,50.3
20.0,379.6,482.7,425.7,429.3,51.6
20.5,393.1,489.0,442.2,441.4,48.0
21.0,422.6,502.4,446.9,457.3,40.9
21.5,426.0,528.0,453.1,469.0,52.8
22.0,434.7,556.3,473.7,488.2,62.1
22.5,440.7,537.4,486.3,488.2,48.4
23.0,463.5,565.1,502.3,510.3,51.3
23.5,461.4,612.6,528.8,534.2,75.8
24.0,473.9,607.9,534.8,538.9,67.1
24.5,479.0,639.9,560.9,559.9,80.4
25.0,497.6,642.8,572.7,571.0,72.6
25.5,502.3,640.3,564.3,568.9,69.1
26.0,515.3,669.1,543.0,575.8,82.0
26.5,500.2,666.8,586.8,584.6,83.3
27.0,523.5,721.2,602.3,615.7,99.5
27.5,545.3,692.7,639.2,625.7,74.6
28.0,564.5,775.0,616.6,652.0,109.6
28.5,574.0,779.7,671.6,675.1,102.9
29.0,589.9,719.9,694.3,668.0,68.9
29.5,628.3,727.4,713.0,689.6,53.5
30.0,635.7,800.2,711.2,715.7,82.3
30.5,650.0,800.1,710.7,720.3,75.5
31.0,657.9,796.9,768.0,740.9,73.3
31.5,706.5,836.4,768.8,770.5,65.0
32.0,688.3,815.3,763.9,755.8,63.8
32.5,735.9,854.1,782.9,791.0,59.5
33.0,727.8,884.4,786.5,799.6,79.2
33.5,739.2,901.4,825.8,822.1,81.1
34.0,796.8,924.6,823.0,848.1,67.5
34.5,784.7,886.7,845.4,838.9,51.3
35.0,830.6,944.7,903.3,892.9,57.8
35.5,839.5,952.0,890.5,894.0,56.3
36.0,896.1,961.6,946.1,934.6,34.2
36.5,903.7,957.4,889.1,916.7,35.9
37.0,944.1,1052.6,951.2,982.6,60.7
37.5,993.3,1092.0,996.5,1027.3,56.1
38.0,940.5,1006.1,997.0,981.2,35.6
38.5,1094.5,1139.6,1102.2,1112.1,24.1
39.0,1008.1,1095.0,1085.4,1062.8,47.6
39.5,1044.1,1089.5,1156.7,1096.8,56.7
40.0,1224.3,1179.7,1071.7,1158.6,78.5
40.5,1010.4,1081.2,1110.4,1067.3,51.4
41.0,1138.8,1337.6,1223.4,1233.3,99.8
41.5,1249.8,1319.4,1163.1,1244.1,78.3
42.0,1237.1,1397.8,1163.7,1266.2,119.7
42.5,1144.6,1279.8,1237.0,1220.5,69.1
43.0,1164.1,1442.4,1375.0,1327.2,145.2
43.5,1304.6,1395.2,1337.3,1345.7,45.9
44.0,1174.5,1482.3,1271.3,1309.3,157.4
44.5,1416.6,1238.4,1215.7,1290.2,110.1
45.0,1387.9,1539.3,1296.4,1407.9,122.7
45.5,1435.3,1404.4,1242.0,1360.6,103.8
46.0,1397.1,1591.4,1374.0,1454.2,119.4
46.5,1302.0,1594.1,1348.3,1414.8,157.0
47.0,1555.6,1705.2,1392.6,1551.1,156.3
47.5,1663.9,1838.8,1280.8,1594.5,285.4
48.0,1498.3,1594.1,1591.4,1561.3,54.5
48.5,1416.0,1672.2,1437.3,1508.5,142.2
49.0,1661.5,1709.6,1358.2,1576.4,190.5
49.5,1588.2,1771.9,1332.4,1564.1,220.7
50.0,1524.0,1560.7,1503.3,1529.4,29.1
50.5,1726.9,1764.2,1754.4,1748.5,19.3
51.0,1493.2,1781.8,1636.7,1637.3,144.3
51.5,1787.2,2017.0,1777.9,1860.7,135.5
52.0,1538.6,2003.5,1579.9,1707.3,257.3
52.5,1748.4,1964.7,1932.5,1881.9,116.7
53.0,1664.8,1864.9,1758.9,1762.9,100.1
53.5,1821.4,1985.2,1820.1,1875.6,94.9
54.0,1670.3,1573.5,1650.0,1631.3,51.1
54.5,1511.9,1987.2,1807.4,1768.8,240.0
55.0,2090.2,1863.6,1788.8,1914.2,156.9
55.5,1955.6,1865.4,2005.9,1942.3,71.2
56.0,2087.2,2048.2,1827.9,1987.8,139.8
56.5,1864.6,1877.5,1768.2,1836.8,59.7
57.0,1741.8,1950.0,2005.5,1899.1,139.0
57.5,2063.7,1769.2,2008.4,1947.1,156.5
58.0,1643.7,1996.9,1968.0,1869.5,196.1
58.5,2062.6,2473.8,2046.2,2194.2,242.3
59.0,1884.4,2148.7,1866.3,1966.5,158.1
59.5,1996.6,2165.9,2186.9,2116.4,104.3
60.0,2410.9,1991.3,1951.9,2118.0,254.4
60.5,2283.4,1750.3,2182.7,2072.1,283.2
61.0,1795.5,1960.6,2348.6,2034.9,283.9
61.5,2174.5,2126.4,2134.2,2145.0,25.8
62.0,2088.1,2409.4,1997.1,2164.9,216.6
62.5,2237.3,2323.7,1894.3,2151.7,227.1
63.0,2501.5,2272.4,1954.9,2242.9,274.5
63.5,2462.2,2483.2,2197.7,2381.0,159.1
64.0,2345.6,1783.1,2493.8,2207.5,374.9
64.5,1778.0,2314.5,1721.7,1938.1,327.2
65.0,2234.8,2266.4,2198.4,2233.2,34.1
65.5,2820.1,2473.8,2202.0,2498.6,309.8
66.0,1910.9,2238.2,2447.6,2198.9,270.5
66.5,2771.2,2393.2,1828.9,2331.1,474.2
67.0,2007.1,2340.6,1754.1,2033.9,294.2
67.5,2375.0,2408.6,1962.8,2248.8,248.2
68.0,1957.8,2460.7,1693.2,2037.2,389.9
68.5,2790.3,2135.7,2289.9,2405.3,342.2
69.0,2944.7,2260.0,2575.5,2593.4,342.7
69.5,2520.0,2700.8,2178.3,2466.4,265.3
70.0,2639.7,3017.0,2187.4,2614.7,415.4
70.5,2439.4,2808.8,2101.2,2449.8,353.9
71.0,2571.5,2910.4,2558.8,2680.2,199.4
71.5,2372.0,2780.9,1803.2,2318.7,491.0
72.0,3072.3,2585.1,1925.9,2527.8,575.3
72.5,1768.4,3266.3,2353.5,2462.7,754.9
73.0,2966.8,2329.0,2394.9,2563.6,350.8
73.5,2466.6,3185.9,2662.7,2771.7,371.8
74.0,2689.0,2895.8,2625.9,2736.9,141.2
74.5,2771.2,2576.1,2653.9,2667.1,98.2
75.0,2828.0,2997.4,2658.5,2827.9,169.5
75.5,2772.8,2230.9,2537.2,2513.6,271.7
76.0,2579.1,2733.8,2200.3,2504.4,274.5
76.5,2437.2,2243.0,2297.9,2326.0,100.1
77.0,2812.7,2494.3,2389.8,2565.6,220.2
77.5,2636.6,2588.0,2990.8,2738.5,219.9
78.0,2564.6,2830.3,2568.4,2654.4,152.3
78.5,2257.3,2271.1,2064.7,2197.7,115.4
79.0,2993.0,2248.4,2682.0,2641.1,373.9
79.5,2669.2,2207.3,2289.4,2388.6,246.4
80.0,2899.0,2468.7,2206.8,2524.9,349.5
80.5,3039.3,2480.6,2696.3,2738.7,281.8
81.0,3321.4,2629.4,2404.6,2785.1,477.8
81.5,2798.5,2472.0,2617.0,2629.2,163.6
82.0,3166.0,2443.6,2706.8,2772.1,365.6
82.5,2894.8,2078.2,2398.0,2457.0,411.5
83.0,2506.2,2385.3,2413.1,2434.9,63.3
83.5,2907.3,2760.0,2264.7,2644.0,336.6
84.0,3250.7,2671.0,2131.6,2684.4,559.7
84.5,2844.4,2548.7,2190.1,2527.7,327.7
85.0,2799.6,2664.8,2408.5,2624.3,198.7
85.5,2752.9,2336.6,2901.9,2663.8,293.0
86.0,2967.8,2132.5,2199.3,2433.2,464.2
86.5,2907.5,2249.6,2692.9,2616.7,335.5
87.0,2757.0,2264.8,2768.5,2596.8,287.6
87.5,3026.0,2245.1,2693.7,2654.9,391.9
88.0,2788.7,2413.6,2519.3,2573.9,193.4
88.5,2294.5,2378.2,2805.2,2492.6,273.9
89.0,2507.0,1923.5,2397.4,2275.9,310.1
89.5,2524.9,2210.5,2957.5,2564.3,375.1
90.0,2151.3,1884.2,2560.6,2198.7,340.7
90.5,2286.6,2278.7,2585.4,2383.6,174.9
91.0,2167.3,2013.3,2816.4,2332.3,426.2
91.5,2351.9,2208.5,2725.4,2428.6,266.9
92.0,2037.5,2204.6,2605.7,2282.6,292.1
92.5,2112.7,2092.7,2636.9,2280.8,308.6
93.0,1898.7,2160.5,2073.9,2044.4,133.4
93.5,1952.4,2013.0,2762.4,2242.6,451.1
94.0,1872.8,2044.1,2290.5,2069.2,210.0
94.5,1851.5,1995.1,2468.9,2105.2,323.1
95.0,1788.6,1847.8,2442.8,2026.4,361.8
95.5,1764.6,1851.4,2108.8,1908.3,179.0
96.0,1673.5,1770.8,2273.2,1905.8,321.9
96.5,1651.8,1703.3,2201.2,1852.1,303.4
97.0,1657.8,1608.8,2254.5,1840.4,359.5
97.5,1530.9,1529.9,2110.0,1723.6,334.6
98.0,1445.0,1430.5,2002.6,1626.0,326.2
98.5,1344.2,1344.9,1980.7,1556.6,367.3
99.0,1243.5,1207.2,1924.2,1458.3,403.9
99.5,1132.2,1079.5,1827.3,1346.3,417.3
100.0,1031.9,985.0,1684.7,1233.9,391.1
100.5,928.6,880.9,1611.7,1140.4,408.9
101.0,828.5,796.7,1485.3,1036.8,388.7