Folder: fsri_materials_database/01_Data/Vinyl_Plank_Flooring/FTIR/IS (part 3)

File: Vinyl_Plank_Flooring_IS_T_220819_R2.dpt
7497.03,0.02518
7473.89,0.02372
7450.74,0.02325
7427.6,0.01335
7404.45,0.03301
7381.31,0.02146
7358.16,0.02122
7335.02,0.03039
7311.87,0.02344
7288.73,0.02300
7265.58,0.02053
7242.44,0.01822
7219.29,0.01566
7196.15,0.01488
7173,0.02147
7149.86,0.01853
7126.71,0.02115
7103.57,0.01991
7080.42,0.02348
7057.28,0.01858
7034.13,0.02001
7010.99,0.02390
6987.84,0.02414
6964.7,0.02158
6941.55,0.01939
6918.41,0.01906
6895.26,0.02278
6872.12,0.02302
6848.97,0.02467
6825.83,0.01971
6802.68,0.01864
6779.54,0.02309
6756.39,0.02269
6733.25,0.01969
6710.1,0.02399
6686.96,0.02112
6663.82,0.01738
6640.67,0.02188
6617.53,0.01916
6594.38,0.01813
6571.24,0.02193
6548.09,0.01896
6524.95,0.01995
6501.8,0.01670
6478.66,0.01618
6455.51,0.02219
6432.37,0.02125
6409.22,0.01990
6386.08,0.01803
6362.93,0.01910
6339.79,0.01922
6316.64,0.01935
6293.5,0.01715
6270.35,0.01701
6247.21,0.01958
6224.06,0.01863
6200.92,0.01998
6177.77,0.02058
6154.63,0.02171
6131.48,0.02108
6108.34,0.02137
6085.19,0.02026
6062.05,0.01526
6038.9,0.01867
6015.76,0.01680
5992.61,0.01881
5969.47,0.01865
5946.32,0.02075
5923.18,0.01859
5900.03,0.01714
5876.89,0.01979
5853.74,0.01904
5830.6,0.02288
5807.45,0.01957
5784.31,0.01717
5761.16,0.02044
5738.02,0.01893
5714.87,0.02000
5691.73,0.01887
5668.58,0.01801
5645.44,0.02029
5622.29,0.01739
5599.15,0.01981
5576,0.01807
5552.86,0.01927
5529.71,0.01861
5506.57,0.01982
5483.42,0.02077
5460.28,0.01995
5437.13,0.01990
5413.99,0.02118
5390.84,0.01809
5367.7,0.01905
5344.55,0.01883
5321.41,0.01959
5298.26,0.01882
5275.12,0.01975
5251.97,0.01874
5228.83,0.01989
5205.68,0.01883
5182.54,0.01937
5159.39,0.02028
5136.25,0.02016
5113.1,0.01864
5089.96,0.01957
5066.81,0.01931
5043.67,0.01933
5020.52,0.02047
4997.38,0.01950
4974.23,0.01828
4951.09,0.01956
4927.94,0.01925
4904.8,0.01935
4881.65,0.01964
4858.51,0.02027
4835.36,0.02051
4812.22,0.01943
4789.07,0.01926
4765.93,0.02009
4742.78,0.01968
4719.64,0.02043
4696.49,0.01949
4673.35,0.01902
4650.2,0.01971
4627.06,0.01980
4603.92,0.01930
4580.77,0.01928
4557.63,0.01955
4534.48,0.01934
4511.34,0.01967
4488.19,0.01994
4465.05,0.01975
4441.9,0.02046
4418.76,0.02029
4395.61,0.01952
4372.47,0.02013
4349.32,0.01994
4326.18,0.02020
4303.03,0.01943
4279.89,0.01936
4256.74,0.01963
4233.6,0.01964
4210.45,0.01939
4187.31,0.01937
4164.16,0.01950
4141.02,0.02018
4117.87,0.02028
4094.73,0.02007
4071.58,0.01974
4048.44,0.02008
4025.29,0.02016
4002.15,0.01964
3979,0.01974
3955.86,0.01986
3932.71,0.02003
3909.57,0.01948
3886.42,0.02004
3863.28,0.02002
3840.13,0.02027
3816.99,0.02015
3793.84,0.02003
3770.7,0.02010
3747.55,0.01989
3724.41,0.01933
3701.26,0.01962
3678.12,0.01955
3654.97,0.01977
3631.83,0.02001
3608.68,0.01920
3585.54,0.01871
3562.39,0.01921
3539.25,0.01821
3516.1,0.01869
3492.96,0.01836
3469.81,0.01809
3446.67,0.01804
3423.52,0.01789
3400.38,0.01737
3377.23,0.01767
3354.09,0.01724
3330.94,0.01727
3307.8,0.01833
3284.65,0.01664
3261.51,0.01783
3238.36,0.01691
3215.22,0.01778
3192.07,0.01756
3168.93,0.01801
3145.78,0.01816
3122.64,0.01849
3099.49,0.01802
3076.35,0.01766
3053.2,0.01831
3030.06,0.01798
3006.91,0.01783
2983.77,0.01680
2960.62,0.01641
2937.48,0.01720
2914.33,0.01768
2891.19,0.01815
2868.04,0.01780
2844.9,0.01864
2821.75,0.01810
2798.61,0.01869
2775.46,0.01886
2752.32,0.01850
2729.17,0.01923
2706.03,0.01873
2682.88,0.01875
2659.74,0.01854
2636.59,0.01882
2613.45,0.01816
2590.3,0.01853
2567.16,0.01916
2544.02,0.01876
2520.87,0.01836
2497.73,0.01841
2474.58,0.01899
2451.44,0.01844
2428.29,0.01890
2405.15,0.01869
2382,0.01836
2358.86,0.01882
2335.71,0.01860
2312.57,0.01850
2289.42,0.01830
2266.28,0.01860
2243.13,0.01869
2219.99,0.01847
2196.84,0.01834
2173.7,0.01835
2150.55,0.01825
2127.41,0.01854
2104.26,0.01838
2081.12,0.01837
2057.97,0.01830
2034.83,0.01831
2011.68,0.01832
1988.54,0.01843
1965.39,0.01843
1942.25,0.01822
1919.1,0.01809
1895.96,0.01815
1872.81,0.01818
1849.67,0.01790
1826.52,0.01770
1803.38,0.01710
1780.23,0.01646
1757.09,0.01491
1733.94,0.01673
1710.8,0.01791
1687.65,0.01653
1664.51,0.01580
1641.36,0.01573
1618.22,0.01643
1595.07,0.01613
1571.93,0.01573
1548.78,0.01584
1525.64,0.01614
1502.49,0.01616
1479.35,0.01568
1456.2,0.01612
1433.06,0.01621
1409.91,0.01571
1386.77,0.01530
1363.62,0.01535
1340.48,0.01543
1317.33,0.01447
1294.19,0.01508
1271.04,0.01663
1247.9,0.01774
1224.75,0.01655
1201.61,0.01592
1178.46,0.01559
1155.32,0.01523
1132.17,0.01512
1109.03,0.01610
1085.88,0.01472
1062.74,0.01791
1039.59,0.01736
1016.45,0.01647
993.304,0.01808
970.159,0.01755
947.014,0.01732
923.869,0.01647
900.724,0.01637
877.579,0.01626
854.434,0.01643
831.289,0.01621
808.144,0.01561
784.999,0.01567
761.854,0.01523
738.709,0.01641
715.565,0.01437
692.42,0.01458
669.275,0.01387
646.13,0.01417
622.985,0.01367
599.84,0.00933

File: Vinyl_Plank_Flooring_IS_T_220819_R3.dpt
7497.03,0.01880
7473.89,0.02136
7450.74,0.02519
7427.6,0.01909
7404.45,0.02380
7381.31,0.02138
7358.16,0.02049
7335.02,0.02059
7311.87,0.02390
7288.73,0.02406
7265.58,0.02469
7242.44,0.02505
7219.29,0.02142
7196.15,0.02628
7173,0.02221
7149.86,0.02476
7126.71,0.02175
7103.57,0.01844
7080.42,0.01969
7057.28,0.02516
7034.13,0.02071
7010.99,0.01919
6987.84,0.01740
6964.7,0.02030
6941.55,0.02018
6918.41,0.02504
6895.26,0.02308
6872.12,0.02098
6848.97,0.01957
6825.83,0.01652
6802.68,0.02153
6779.54,0.02328
6756.39,0.01915
6733.25,0.02228
6710.1,0.02428
6686.96,0.02315
6663.82,0.01671
6640.67,0.02265
6617.53,0.02108
6594.38,0.01818
6571.24,0.02371
6548.09,0.01981
6524.95,0.01727
6501.8,0.01871
6478.66,0.01702
6455.51,0.01632
6432.37,0.01550
6409.22,0.01935
6386.08,0.02015
6362.93,0.02050
6339.79,0.01958
6316.64,0.01814
6293.5,0.01573
6270.35,0.01840
6247.21,0.01758
6224.06,0.01905
6200.92,0.01748
6177.77,0.01701
6154.63,0.01919
6131.48,0.02336
6108.34,0.02046
6085.19,0.01807
6062.05,0.02001
6038.9,0.01945
6015.76,0.01814
5992.61,0.01620
5969.47,0.01862
5946.32,0.01921
5923.18,0.01865
5900.03,0.01789
5876.89,0.01744
5853.74,0.01825
5830.6,0.02097
5807.45,0.01946
5784.31,0.01792
5761.16,0.01924
5738.02,0.01911
5714.87,0.01797
5691.73,0.01856
5668.58,0.01914
5645.44,0.01859
5622.29,0.01861
5599.15,0.01987
5576,0.02009
5552.86,0.01820
5529.71,0.01881
5506.57,0.01856
5483.42,0.01876
5460.28,0.01875
5437.13,0.01935
5413.99,0.01924
5390.84,0.01892
5367.7,0.01953
5344.55,0.02073
5321.41,0.01921
5298.26,0.01800
5275.12,0.01967
5251.97,0.01848
5228.83,0.01947
5205.68,0.01915
5182.54,0.01869
5159.39,0.01810
5136.25,0.01782
5113.1,0.01875
5089.96,0.01898
5066.81,0.01956
5043.67,0.01927
5020.52,0.01929
4997.38,0.01863
4974.23,0.01867
4951.09,0.01909
4927.94,0.01902
4904.8,0.01941
4881.65,0.01872
4858.51,0.01857
4835.36,0.02046
4812.22,0.01838
4789.07,0.01821
4765.93,0.01847
4742.78,0.01939
4719.64,0.01928
4696.49,0.01841
4673.35,0.01942
4650.2,0.02002
4627.06,0.01863
4603.92,0.01911
4580.77,0.01922
4557.63,0.02000
4534.48,0.01896
4511.34,0.01970
4488.19,0.01946
4465.05,0.01935
4441.9,0.01895
4418.76,0.01911
4395.61,0.01842
4372.47,0.01903
4349.32,0.01916
4326.18,0.02002
4303.03,0.01883
4279.89,0.01964
4256.74,0.01905
4233.6,0.01935
4210.45,0.01951
4187.31,0.01926
4164.16,0.01990
4141.02,0.01874
4117.87,0.01946
4094.73,0.01904
4071.58,0.02030
4048.44,0.01980
4025.29,0.01922
4002.15,0.01981
3979,0.01920
3955.86,0.01985
3932.71,0.01902
3909.57,0.01987
3886.42,0.01928
3863.28,0.01997
3840.13,0.01944
3816.99,0.01925
3793.84,0.01933
3770.7,0.01977
3747.55,0.01921
3724.41,0.01962
3701.26,0.01857
3678.12,0.01973
3654.97,0.01880
3631.83,0.01986
3608.68,0.01835
3585.54,0.01826
3562.39,0.01790
3539.25,0.01842
3516.1,0.01788
3492.96,0.01817
3469.81,0.01777
3446.67,0.01812
3423.52,0.01704
3400.38,0.01768
3377.23,0.01671
3354.09,0.01747
3330.94,0.01782
3307.8,0.01713
3284.65,0.01695
3261.51,0.01671
3238.36,0.01779
3215.22,0.01773
3192.07,0.01750
3168.93,0.01680
3145.78,0.01769
3122.64,0.01717
3099.49,0.01754
3076.35,0.01750
3053.2,0.01797
3030.06,0.01740
3006.91,0.01694
2983.77,0.01671
2960.62,0.01632
2937.48,0.01644
2914.33,0.01742
2891.19,0.01702
2868.04,0.01724
2844.9,0.01796
2821.75,0.01791
2798.61,0.01778
2775.46,0.01801
2752.32,0.01810
2729.17,0.01817
2706.03,0.01805
2682.88,0.01784
2659.74,0.01812
2636.59,0.01820
2613.45,0.01802
2590.3,0.01804
2567.16,0.01802
2544.02,0.01782
2520.87,0.01848
2497.73,0.01787
2474.58,0.01796
2451.44,0.01783
2428.29,0.01761
2405.15,0.01827
2382,0.01801
2358.86,0.01846
2335.71,0.01785
2312.57,0.01796
2289.42,0.01795
2266.28,0.01808
2243.13,0.01833
2219.99,0.01787
2196.84,0.01807
2173.7,0.01819
2150.55,0.01746
2127.41,0.01800
2104.26,0.01777
2081.12,0.01759
2057.97,0.01788
2034.83,0.01762
2011.68,0.01764
1988.54,0.01772
1965.39,0.01718
1942.25,0.01745
1919.1,0.01731
1895.96,0.01769
1872.81,0.01745
1849.67,0.01748
1826.52,0.01699
1803.38,0.01670
1780.23,0.01634
1757.09,0.01460
1733.94,0.01670
1710.8,0.01735
1687.65,0.01635
1664.51,0.01545
1641.36,0.01523
1618.22,0.01558
1595.07,0.01577
1571.93,0.01524
1548.78,0.01501
1525.64,0.01560
1502.49,0.01586
1479.35,0.01583
1456.2,0.01566
1433.06,0.01536
1409.91,0.01544
1386.77,0.01480
1363.62,0.01495
1340.48,0.01493
1317.33,0.01403
1294.19,0.01460
1271.04,0.01661
1247.9,0.01714
1224.75,0.01631
1201.61,0.01578
1178.46,0.01501
1155.32,0.01442
1132.17,0.01520
1109.03,0.01510
1085.88,0.01578
1062.74,0.01644
1039.59,0.01640
1016.45,0.01593
993.304,0.01793
970.159,0.01702
947.014,0.01693
923.869,0.01587
900.724,0.01686
877.579,0.01585
854.434,0.01582
831.289,0.01584
808.144,0.01542
784.999,0.01586
761.854,0.01559
738.709,0.01555
715.565,0.01623
692.42,0.01497
669.275,0.01335
646.13,0.01330
622.985,0.01302
599.84,0.01570

File: Vinyl_Plank_Flooring_IS_T_220819_R6.dpt
7497.03,0.02812
7473.89,0.01658
7450.74,0.01953
7427.6,0.02264
7404.45,0.02456
7381.31,0.02678
7358.16,0.02603
7335.02,0.02630
7311.87,0.02392
7288.73,0.02882
7265.58,0.01542
7242.44,0.01966
7219.29,0.02099
7196.15,0.02201
7173,0.02618
7149.86,0.02633
7126.71,0.02261
7103.57,0.02079
7080.42,0.01772
7057.28,0.02772
7034.13,0.02241
7010.99,0.01447
6987.84,0.02272
6964.7,0.01807
6941.55,0.02523
6918.41,0.02249
6895.26,0.02437
6872.12,0.02229
6848.97,0.01787
6825.83,0.01826
6802.68,0.01958
6779.54,0.02107
6756.39,0.01876
6733.25,0.02197
6710.1,0.01941
6686.96,0.02101
6663.82,0.02058
6640.67,0.02234
6617.53,0.02095
6594.38,0.01964
6571.24,0.02090
6548.09,0.01828
6524.95,0.01791
6501.8,0.01922
6478.66,0.01880
6455.51,0.01958
6432.37,0.02016
6409.22,0.02334
6386.08,0.01923
6362.93,0.02154
6339.79,0.02117
6316.64,0.01727
6293.5,0.01838
6270.35,0.01685
6247.21,0.01652
6224.06,0.01876
6200.92,0.01764
6177.77,0.02243
6154.63,0.02000
6131.48,0.01731
6108.34,0.01845
6085.19,0.01752
6062.05,0.01663
6038.9,0.02020
6015.76,0.02080
5992.61,0.01904
5969.47,0.02098
5946.32,0.01983
5923.18,0.02077
5900.03,0.02010
5876.89,0.01870
5853.74,0.01865
5830.6,0.02119
5807.45,0.01827
5784.31,0.02019
5761.16,0.01722
5738.02,0.01739
5714.87,0.01787
5691.73,0.01950
5668.58,0.01890
5645.44,0.01892
5622.29,0.02058
5599.15,0.01858
5576,0.01852
5552.86,0.01858
5529.71,0.01986
5506.57,0.01926
5483.42,0.01791
5460.28,0.01910
5437.13,0.01939
5413.99,0.01890
5390.84,0.01901
5367.7,0.01918
5344.55,0.02083
5321.41,0.01904
5298.26,0.01855
5275.12,0.01791
5251.97,0.01953
5228.83,0.01919
5205.68,0.02026
5182.54,0.01703
5159.39,0.01836
5136.25,0.01940
5113.1,0.01879
5089.96,0.01865
5066.81,0.02002
5043.67,0.01913
5020.52,0.02101
4997.38,0.01939
4974.23,0.01877
4951.09,0.01907
4927.94,0.01910
4904.8,0.01845
4881.65,0.01955
4858.51,0.01854
4835.36,0.02002
4812.22,0.01852
4789.07,0.01956
4765.93,0.01864
4742.78,0.01928
4719.64,0.01967
4696.49,0.01986
4673.35,0.01897
4650.2,0.01944
4627.06,0.01866
4603.92,0.01899
4580.77,0.01990
4557.63,0.01900
4534.48,0.01933
4511.34,0.02014
4488.19,0.01907
4465.05,0.01918
4441.9,0.01877
4418.76,0.01898
4395.61,0.01963
4372.47,0.01831
4349.32,0.01863
4326.18,0.01948
4303.03,0.01902
4279.89,0.01920
4256.74,0.01951
4233.6,0.01927
4210.45,0.01917
4187.31,0.01938
4164.16,0.01950
4141.02,0.01974
4117.87,0.01928
4094.73,0.01984
4071.58,0.01977
4048.44,0.01965
4025.29,0.01897
4002.15,0.01990
3979,0.01969
3955.86,0.01948
3932.71,0.01945
3909.57,0.01999
3886.42,0.01962
3863.28,0.01906
3840.13,0.02015
3816.99,0.01971
3793.84,0.01994
3770.7,0.01926
3747.55,0.01989
3724.41,0.01940
3701.26,0.01991
3678.12,0.01935
3654.97,0.01888
3631.83,0.01937
3608.68,0.01873
3585.54,0.01793
3562.39,0.01821
3539.25,0.01847
3516.1,0.01778
3492.96,0.01789
3469.81,0.01749
3446.67,0.01703
3423.52,0.01720
3400.38,0.01696
3377.23,0.01720
3354.09,0.01744
3330.94,0.01675
3307.8,0.01693
3284.65,0.01713
3261.51,0.01816
3238.36,0.01653
3215.22,0.01730
3192.07,0.01718
3168.93,0.01772
3145.78,0.01744
3122.64,0.01728
3099.49,0.01751
3076.35,0.01735
3053.2,0.01735
3030.06,0.01693
3006.91,0.01725
2983.77,0.01658
2960.62,0.01642
2937.48,0.01662
2914.33,0.01761
2891.19,0.01743
2868.04,0.01759
2844.9,0.01825
2821.75,0.01834
2798.61,0.01828
2775.46,0.01832
2752.32,0.01815
2729.17,0.01826
2706.03,0.01752
2682.88,0.01836
2659.74,0.01819
2636.59,0.01791
2613.45,0.01773
2590.3,0.01794
2567.16,0.01840
2544.02,0.01818
2520.87,0.01821
2497.73,0.01835
2474.58,0.01850
2451.44,0.01778
2428.29,0.01835
2405.15,0.01769
2382,0.01788
2358.86,0.01782
2335.71,0.01810
2312.57,0.01803
2289.42,0.01805
2266.28,0.01782
2243.13,0.01787
2219.99,0.01799
2196.84,0.01799
2173.7,0.01743
2150.55,0.01803
2127.41,0.01755
2104.26,0.01774
2081.12,0.01763
2057.97,0.01768
2034.83,0.01712
2011.68,0.01782
1988.54,0.01772
1965.39,0.01795
1942.25,0.01780
1919.1,0.01753
1895.96,0.01750
1872.81,0.01741
1849.67,0.01708
1826.52,0.01708
1803.38,0.01696
1780.23,0.01604
1757.09,0.01456
1733.94,0.01641
1710.8,0.01741
1687.65,0.01628
1664.51,0.01525
1641.36,0.01527
1618.22,0.01600
1595.07,0.01566
1571.93,0.01531
1548.78,0.01498
1525.64,0.01551
1502.49,0.01529
1479.35,0.01542
1456.2,0.01532
1433.06,0.01573
1409.91,0.01529
1386.77,0.01515
1363.62,0.01492
1340.48,0.01433
1317.33,0.01403
1294.19,0.01491
1271.04,0.01627
1247.9,0.01715
1224.75,0.01599
1201.61,0.01580
1178.46,0.01472
1155.32,0.01464
1132.17,0.01504
1109.03,0.01596
1085.88,0.01533
1062.74,0.01681
1039.59,0.01656
1016.45,0.01608
993.304,0.01775
970.159,0.01733
947.014,0.01690
923.869,0.01627
900.724,0.01629
877.579,0.01564
854.434,0.01593
831.289,0.01589
808.144,0.01602
784.999,0.01588
761.854,0.01434
738.709,0.01581
715.565,0.01476
692.42,0.01522
669.275,0.01389
646.13,0.01302
622.985,0.01469
599.84,0.01133

File: Vinyl_Plank_Flooring_IS_T_220819_R7.dpt
7497.03,0.00925
7473.89,0.01669
7450.74,0.02670
7427.6,0.02471
7404.45,0.01655
7381.31,0.01862
7358.16,0.02512
7335.02,0.01957
7311.87,0.01752
7288.73,0.02753
7265.58,0.02548
7242.44,0.02699
7219.29,0.02321
7196.15,0.02012
7173,0.02221
7149.86,0.02343
7126.71,0.02286
7103.57,0.01812
7080.42,0.01958
7057.28,0.02612
7034.13,0.02907
7010.99,0.02231
6987.84,0.02628
6964.7,0.02131
6941.55,0.02593
6918.41,0.02439
6895.26,0.01879
6872.12,0.02006
6848.97,0.02020
6825.83,0.01414
6802.68,0.02270
6779.54,0.01888
6756.39,0.02122
6733.25,0.01604
6710.1,0.02047
6686.96,0.01873
6663.82,0.01908
6640.67,0.02091
6617.53,0.01468
6594.38,0.02000
6571.24,0.02142
6548.09,0.01690
6524.95,0.02099
6501.8,0.01780
6478.66,0.01858
6455.51,0.01924
6432.37,0.02225
6409.22,0.01792
6386.08,0.01959
6362.93,0.01881
6339.79,0.01822
6316.64,0.01932
6293.5,0.02149
6270.35,0.01820
6247.21,0.02278
6224.06,0.01752
6200.92,0.02005
6177.77,0.02116
6154.63,0.02264
6131.48,0.01920
6108.34,0.02098
6085.19,0.01920
6062.05,0.02031
6038.9,0.02104
6015.76,0.01726
5992.61,0.01814
5969.47,0.01866
5946.32,0.02054
5923.18,0.01982
5900.03,0.01970
5876.89,0.02026
5853.74,0.01872
5830.6,0.01877
5807.45,0.01905
5784.31,0.01686
5761.16,0.01746
5738.02,0.01928
5714.87,0.02101
5691.73,0.02005
5668.58,0.02008
5645.44,0.02069
5622.29,0.01910
5599.15,0.01794
5576,0.01696
5552.86,0.01927
5529.71,0.01906
5506.57,0.02000
5483.42,0.01960
5460.28,0.01835
5437.13,0.01814
5413.99,0.01908
5390.84,0.01848
5367.7,0.01920
5344.55,0.02006
5321.41,0.01852
5298.26,0.01959
5275.12,0.01818
5251.97,0.02024
5228.83,0.02035
5205.68,0.01831
5182.54,0.01876
5159.39,0.01760
5136.25,0.01960
5113.1,0.02028
5089.96,0.01895
5066.81,0.01942
5043.67,0.01879
5020.52,0.02075
4997.38,0.01895
4974.23,0.01775
4951.09,0.01915
4927.94,0.01884
4904.8,0.01850
4881.65,0.01960
4858.51,0.01997
4835.36,0.01970
4812.22,0.01935
4789.07,0.01993
4765.93,0.01899
4742.78,0.02002
4719.64,0.01927
4696.49,0.01928
4673.35,0.02002
4650.2,0.01992
4627.06,0.02033
4603.92,0.01936
4580.77,0.01969
4557.63,0.01976
4534.48,0.02011
4511.34,0.01917
4488.19,0.01898
4465.05,0.01912
4441.9,0.01970
4418.76,0.01988
4395.61,0.01952
4372.47,0.01936
4349.32,0.01981
4326.18,0.01997
4303.03,0.01947
4279.89,0.02031
4256.74,0.01987
4233.6,0.01985
4210.45,0.02023
4187.31,0.01997
4164.16,0.01996
4141.02,0.01983
4117.87,0.02034
4094.73,0.02040
4071.58,0.01948
4048.44,0.02004
4025.29,0.01990
4002.15,0.01988
3979,0.02092
3955.86,0.02086
3932.71,0.01994
3909.57,0.01957
3886.42,0.01949
3863.28,0.01973
3840.13,0.02010
3816.99,0.02047
3793.84,0.02018
3770.7,0.01970
3747.55,0.02046
3724.41,0.01955
3701.26,0.02026
3678.12,0.01931
3654.97,0.02007
3631.83,0.01918
3608.68,0.01900
3585.54,0.01935
3562.39,0.01902
3539.25,0.01847
3516.1,0.01796
3492.96,0.01821
3469.81,0.01739
3446.67,0.01774
3423.52,0.01824
3400.38,0.01729
3377.23,0.01801
3354.09,0.01722
3330.94,0.01809
3307.8,0.01767
3284.65,0.01814
3261.51,0.01714
3238.36,0.01773
3215.22,0.01796
3192.07,0.01847
3168.93,0.01799
3145.78,0.01779
3122.64,0.01818
3099.49,0.01829
3076.35,0.01855
3053.2,0.01786
3030.06,0.01811
3006.91,0.01770
2983.77,0.01718
2960.62,0.01701
2937.48,0.01660
2914.33,0.01752
2891.19,0.01792
2868.04,0.01822
2844.9,0.01851
2821.75,0.01827
2798.61,0.01853
2775.46,0.01893
2752.32,0.01841
2729.17,0.01891
2706.03,0.01859
2682.88,0.01842
2659.74,0.01855
2636.59,0.01849
2613.45,0.01822
2590.3,0.01866
2567.16,0.01904
2544.02,0.01856
2520.87,0.01854
2497.73,0.01867
2474.58,0.01857
2451.44,0.01835
2428.29,0.01851
2405.15,0.01869
2382,0.01839
2358.86,0.01880
2335.71,0.01869
2312.57,0.01838
2289.42,0.01848
2266.28,0.01908
2243.13,0.01862
2219.99,0.01836
2196.84,0.01831
2173.7,0.01850
2150.55,0.01830
2127.41,0.01857
2104.26,0.01854
2081.12,0.01801
2057.97,0.01829
2034.83,0.01843
2011.68,0.01807
1988.54,0.01823
1965.39,0.01826
1942.25,0.01786
1919.1,0.01807
1895.96,0.01803
1872.81,0.01797
1849.67,0.01782
1826.52,0.01758
1803.38,0.01707
1780.23,0.01617
1757.09,0.01500
1733.94,0.01690
1710.8,0.01827
1687.65,0.01667
1664.51,0.01549
1641.36,0.01617
1618.22,0.01664
1595.07,0.01653
1571.93,0.01566
1548.78,0.01588
1525.64,0.01638
1502.49,0.01595
1479.35,0.01566
1456.2,0.01575
1433.06,0.01596
1409.91,0.01586
1386.77,0.01543
1363.62,0.01565
1340.48,0.01528
1317.33,0.01450
1294.19,0.01559
1271.04,0.01656
1247.9,0.01717
1224.75,0.01654
1201.61,0.01578
1178.46,0.01508
1155.32,0.01492
1132.17,0.01549
1109.03,0.01595
1085.88,0.01557
1062.74,0.01671
1039.59,0.01746
1016.45,0.01690
993.304,0.01810
970.159,0.01775
947.014,0.01683
923.869,0.01660
900.724,0.01635
877.579,0.01641
854.434,0.01610
831.289,0.01698
808.144,0.01621
784.999,0.01592
761.854,0.01540
738.709,0.01495
715.565,0.01472
692.42,0.01525
669.275,0.01415
646.13,0.01216
622.985,0.01273
599.84,0.01222