Folder: fsri_materials_database/01_Data/Vinyl_Plank_Flooring/FTIR/IS (part 2)

File: Vinyl_Plank_Flooring_IS_S_220819_R5.dpt
7497.03,0.49988
7473.89,0.50268
7450.74,0.50069
7427.6,0.48603
7404.45,0.49131
7381.31,0.48114
7358.16,0.47244
7335.02,0.47063
7311.87,0.46027
7288.73,0.44923
7265.58,0.44279
7242.44,0.42652
7219.29,0.42736
7196.15,0.41558
7173,0.42358
7149.86,0.41090
7126.71,0.41781
7103.57,0.41600
7080.42,0.41339
7057.28,0.41632
7034.13,0.41609
7010.99,0.41677
6987.84,0.42068
6964.7,0.43034
6941.55,0.43377
6918.41,0.44295
6895.26,0.44172
6872.12,0.45073
6848.97,0.45585
6825.83,0.46090
6802.68,0.45980
6779.54,0.46170
6756.39,0.46959
6733.25,0.46767
6710.1,0.47257
6686.96,0.47025
6663.82,0.47819
6640.67,0.47675
6617.53,0.47651
6594.38,0.48154
6571.24,0.48364
6548.09,0.48473
6524.95,0.48579
6501.8,0.48895
6478.66,0.48752
6455.51,0.49181
6432.37,0.49136
6409.22,0.49143
6386.08,0.49198
6362.93,0.49052
6339.79,0.48613
6316.64,0.48729
6293.5,0.49176
6270.35,0.49040
6247.21,0.49118
6224.06,0.49129
6200.92,0.48207
6177.77,0.47892
6154.63,0.47553
6131.48,0.47115
6108.34,0.45663
6085.19,0.41988
6062.05,0.38660
6038.9,0.34769
6015.76,0.31808
5992.61,0.35377
5969.47,0.37771
5946.32,0.34947
5923.18,0.30248
5900.03,0.26410
5876.89,0.22160
5853.74,0.18956
5830.6,0.15778
5807.45,0.17803
5784.31,0.21698
5761.16,0.23260
5738.02,0.22518
5714.87,0.22886
5691.73,0.23185
5668.58,0.25464
5645.44,0.26374
5622.29,0.27887
5599.15,0.29047
5576,0.30063
5552.86,0.30784
5529.71,0.31312
5506.57,0.31577
5483.42,0.31363
5460.28,0.31459
5437.13,0.32656
5413.99,0.33571
5390.84,0.33939
5367.7,0.34645
5344.55,0.35110
5321.41,0.35681
5298.26,0.35996
5275.12,0.35093
5251.97,0.34565
5228.83,0.35071
5205.68,0.35010
5182.54,0.34930
5159.39,0.34956
5136.25,0.34707
5113.1,0.34364
5089.96,0.34664
5066.81,0.35208
5043.67,0.35414
5020.52,0.35574
4997.38,0.35300
4974.23,0.35506
4951.09,0.35416
4927.94,0.35253
4904.8,0.35239
4881.65,0.35292
4858.51,0.35397
4835.36,0.35482
4812.22,0.35018
4789.07,0.34666
4765.93,0.34955
4742.78,0.34235
4719.64,0.31061
4696.49,0.27842
4673.35,0.27213
4650.2,0.28425
4627.06,0.26108
4603.92,0.30325
4580.77,0.29529
4557.63,0.31031
4534.48,0.30429
4511.34,0.28665
4488.19,0.24743
4465.05,0.22464
4441.9,0.17334
4418.76,0.12228
4395.61,0.09842
4372.47,0.08047
4349.32,0.06421
4326.18,0.06025
4303.03,0.07154
4279.89,0.07071
4256.74,0.07399
4233.6,0.07163
4210.45,0.07013
4187.31,0.07591
4164.16,0.07483
4141.02,0.08599
4117.87,0.08991
4094.73,0.08037
4071.58,0.08033
4048.44,0.09483
4025.29,0.09639
4002.15,0.10272
3979,0.11456
3955.86,0.11863
3932.71,0.11965
3909.57,0.12461
3886.42,0.13122
3863.28,0.13381
3840.13,0.13631
3816.99,0.14178
3793.84,0.14926
3770.7,0.15313
3747.55,0.15620
3724.41,0.16415
3701.26,0.14542
3678.12,0.10463
3654.97,0.10727
3631.83,0.10531
3608.68,0.09493
3585.54,0.08648
3562.39,0.07702
3539.25,0.07179
3516.1,0.07016
3492.96,0.06908
3469.81,0.06543
3446.67,0.05847
3423.52,0.05037
3400.38,0.05211
3377.23,0.05664
3354.09,0.05758
3330.94,0.05667
3307.8,0.05677
3284.65,0.05815
3261.51,0.06119
3238.36,0.05938
3215.22,0.05478
3192.07,0.05618
3168.93,0.05771
3145.78,0.05776
3122.64,0.05611
3099.49,0.05343
3076.35,0.05080
3053.2,0.04865
3030.06,0.04801
3006.91,0.04529
2983.77,0.04381
2960.62,0.04426
2937.48,0.04489
2914.33,0.04806
2891.19,0.04752
2868.04,0.04825
2844.9,0.05013
2821.75,0.04928
2798.61,0.05014
2775.46,0.05324
2752.32,0.05377
2729.17,0.05329
2706.03,0.05846
2682.88,0.06024
2659.74,0.06121
2636.59,0.06103
2613.45,0.05588
2590.3,0.05363
2567.16,0.05356
2544.02,0.05298
2520.87,0.05091
2497.73,0.05299
2474.58,0.06247
2451.44,0.06880
2428.29,0.06756
2405.15,0.06369
2382,0.06115
2358.86,0.06636
2335.71,0.07483
2312.57,0.07811
2289.42,0.07299
2266.28,0.07174
2243.13,0.06694
2219.99,0.06508
2196.84,0.07123
2173.7,0.07945
2150.55,0.07490
2127.41,0.07374
2104.26,0.07650
2081.12,0.07463
2057.97,0.07443
2034.83,0.07843
2011.68,0.08153
1988.54,0.07485
1965.39,0.06425
1942.25,0.05654
1919.1,0.06911
1895.96,0.06984
1872.81,0.06944
1849.67,0.05989
1826.52,0.04717
1803.38,0.04242
1780.23,0.04012
1757.09,0.03519
1733.94,0.03677
1710.8,0.05307
1687.65,0.05035
1664.51,0.04886
1641.36,0.05041
1618.22,0.04950
1595.07,0.04878
1571.93,0.04642
1548.78,0.05279
1525.64,0.04682
1502.49,0.04473
1479.35,0.04219
1456.2,0.04272
1433.06,0.04387
1409.91,0.04242
1386.77,0.04055
1363.62,0.04091
1340.48,0.03885
1317.33,0.03714
1294.19,0.03510
1271.04,0.04021
1247.9,0.04320
1224.75,0.04389
1201.61,0.04342
1178.46,0.04278
1155.32,0.04646
1132.17,0.05161
1109.03,0.06343
1085.88,0.07142
1062.74,0.07572
1039.59,0.07339
1016.45,0.06759
993.304,0.06145
970.159,0.06049
947.014,0.06039
923.869,0.06000
900.724,0.05801
877.579,0.05690
854.434,0.05484
831.289,0.05554
808.144,0.05458
784.999,0.05480
761.854,0.05418
738.709,0.05375
715.565,0.05405
692.42,0.05352
669.275,0.05161
646.13,0.05261
622.985,0.04960
599.84,0.04887

File: Vinyl_Plank_Flooring_IS_S_220819_R6.dpt
7497.03,0.49306
7473.89,0.49475
7450.74,0.49498
7427.6,0.49593
7404.45,0.50087
7381.31,0.48646
7358.16,0.47709
7335.02,0.46965
7311.87,0.46280
7288.73,0.45471
7265.58,0.43428
7242.44,0.42105
7219.29,0.42551
7196.15,0.41561
7173,0.41524
7149.86,0.42200
7126.71,0.41856
7103.57,0.42097
7080.42,0.41114
7057.28,0.41485
7034.13,0.42090
7010.99,0.42192
6987.84,0.42244
6964.7,0.43134
6941.55,0.44054
6918.41,0.44109
6895.26,0.44538
6872.12,0.45349
6848.97,0.45720
6825.83,0.45998
6802.68,0.46173
6779.54,0.46747
6756.39,0.47341
6733.25,0.46806
6710.1,0.47339
6686.96,0.47385
6663.82,0.48077
6640.67,0.47515
6617.53,0.47596
6594.38,0.47589
6571.24,0.48022
6548.09,0.48725
6524.95,0.48090
6501.8,0.48451
6478.66,0.48917
6455.51,0.48510
6432.37,0.48636
6409.22,0.48758
6386.08,0.49079
6362.93,0.48814
6339.79,0.48719
6316.64,0.49280
6293.5,0.49087
6270.35,0.49014
6247.21,0.49247
6224.06,0.48967
6200.92,0.48128
6177.77,0.48063
6154.63,0.47691
6131.48,0.47318
6108.34,0.45803
6085.19,0.42237
6062.05,0.38583
6038.9,0.34824
6015.76,0.32013
5992.61,0.35408
5969.47,0.37566
5946.32,0.35069
5923.18,0.30507
5900.03,0.26524
5876.89,0.22315
5853.74,0.19117
5830.6,0.16137
5807.45,0.18160
5784.31,0.22107
5761.16,0.23283
5738.02,0.22780
5714.87,0.22875
5691.73,0.23372
5668.58,0.25549
5645.44,0.26575
5622.29,0.28202
5599.15,0.28983
5576,0.29976
5552.86,0.31114
5529.71,0.31314
5506.57,0.31618
5483.42,0.31379
5460.28,0.31473
5437.13,0.32774
5413.99,0.33766
5390.84,0.34048
5367.7,0.34900
5344.55,0.35424
5321.41,0.35834
5298.26,0.36056
5275.12,0.35273
5251.97,0.34698
5228.83,0.35245
5205.68,0.35348
5182.54,0.35202
5159.39,0.35016
5136.25,0.34927
5113.1,0.34602
5089.96,0.34891
5066.81,0.35396
5043.67,0.35603
5020.52,0.35697
4997.38,0.35535
4974.23,0.35653
4951.09,0.35644
4927.94,0.35483
4904.8,0.35489
4881.65,0.35522
4858.51,0.35572
4835.36,0.35659
4812.22,0.35177
4789.07,0.34719
4765.93,0.35122
4742.78,0.34471
4719.64,0.31215
4696.49,0.28153
4673.35,0.27339
4650.2,0.28478
4627.06,0.26299
4603.92,0.30548
4580.77,0.29806
4557.63,0.31233
4534.48,0.30637
4511.34,0.28956
4488.19,0.24960
4465.05,0.22712
4441.9,0.17487
4418.76,0.12476
4395.61,0.10125
4372.47,0.08406
4349.32,0.06662
4326.18,0.06387
4303.03,0.07364
4279.89,0.07324
4256.74,0.07632
4233.6,0.07474
4210.45,0.07364
4187.31,0.07925
4164.16,0.07775
4141.02,0.08912
4117.87,0.09262
4094.73,0.08439
4071.58,0.08233
4048.44,0.09745
4025.29,0.09910
4002.15,0.10559
3979,0.11690
3955.86,0.12144
3932.71,0.12258
3909.57,0.12713
3886.42,0.13364
3863.28,0.13609
3840.13,0.13930
3816.99,0.14493
3793.84,0.15165
3770.7,0.15617
3747.55,0.15874
3724.41,0.16769
3701.26,0.14842
3678.12,0.10850
3654.97,0.11168
3631.83,0.10924
3608.68,0.09849
3585.54,0.09048
3562.39,0.08131
3539.25,0.07520
3516.1,0.07366
3492.96,0.07189
3469.81,0.06885
3446.67,0.06202
3423.52,0.05428
3400.38,0.05529
3377.23,0.05887
3354.09,0.06059
3330.94,0.06044
3307.8,0.06008
3284.65,0.06086
3261.51,0.06408
3238.36,0.06196
3215.22,0.05912
3192.07,0.05979
3168.93,0.06044
3145.78,0.06108
3122.64,0.06003
3099.49,0.05694
3076.35,0.05402
3053.2,0.05133
3030.06,0.05093
3006.91,0.04875
2983.77,0.04672
2960.62,0.04728
2937.48,0.04848
2914.33,0.05119
2891.19,0.05105
2868.04,0.05170
2844.9,0.05348
2821.75,0.05258
2798.61,0.05352
2775.46,0.05679
2752.32,0.05727
2729.17,0.05603
2706.03,0.06197
2682.88,0.06321
2659.74,0.06420
2636.59,0.06366
2613.45,0.05917
2590.3,0.05682
2567.16,0.05636
2544.02,0.05596
2520.87,0.05392
2497.73,0.05656
2474.58,0.06512
2451.44,0.07194
2428.29,0.07047
2405.15,0.06681
2382,0.06477
2358.86,0.06956
2335.71,0.07781
2312.57,0.08129
2289.42,0.07573
2266.28,0.07423
2243.13,0.07006
2219.99,0.06807
2196.84,0.07448
2173.7,0.08251
2150.55,0.07794
2127.41,0.07669
2104.26,0.07939
2081.12,0.07776
2057.97,0.07726
2034.83,0.08138
2011.68,0.08444
1988.54,0.07731
1965.39,0.06725
1942.25,0.05924
1919.1,0.07207
1895.96,0.07286
1872.81,0.07250
1849.67,0.06286
1826.52,0.04982
1803.38,0.04591
1780.23,0.04314
1757.09,0.03833
1733.94,0.03983
1710.8,0.05647
1687.65,0.05354
1664.51,0.05194
1641.36,0.05350
1618.22,0.05353
1595.07,0.05231
1571.93,0.04989
1548.78,0.05603
1525.64,0.05022
1502.49,0.04774
1479.35,0.04549
1456.2,0.04606
1433.06,0.04760
1409.91,0.04529
1386.77,0.04363
1363.62,0.04446
1340.48,0.04204
1317.33,0.04025
1294.19,0.03803
1271.04,0.04326
1247.9,0.04629
1224.75,0.04735
1201.61,0.04669
1178.46,0.04632
1155.32,0.04995
1132.17,0.05461
1109.03,0.06750
1085.88,0.07536
1062.74,0.07997
1039.59,0.07710
1016.45,0.07085
993.304,0.06592
970.159,0.06426
947.014,0.06401
923.869,0.06313
900.724,0.06189
877.579,0.06054
854.434,0.05805
831.289,0.05781
808.144,0.05960
784.999,0.05873
761.854,0.05810
738.709,0.05663
715.565,0.05784
692.42,0.05644
669.275,0.05553
646.13,0.05488
622.985,0.05025
599.84,0.05293

File: Vinyl_Plank_Flooring_IS_S_220819_R7.dpt
7497.03,0.50649
7473.89,0.49726
7450.74,0.49870
7427.6,0.48936
7404.45,0.49705
7381.31,0.48379
7358.16,0.47850
7335.02,0.46422
7311.87,0.46414
7288.73,0.44869
7265.58,0.43151
7242.44,0.43314
7219.29,0.42493
7196.15,0.41887
7173,0.41807
7149.86,0.42428
7126.71,0.41976
7103.57,0.41289
7080.42,0.41200
7057.28,0.41460
7034.13,0.41459
7010.99,0.41969
6987.84,0.41530
6964.7,0.43422
6941.55,0.44105
6918.41,0.44721
6895.26,0.44548
6872.12,0.45186
6848.97,0.45556
6825.83,0.45896
6802.68,0.46141
6779.54,0.45888
6756.39,0.46506
6733.25,0.46812
6710.1,0.46838
6686.96,0.47500
6663.82,0.47385
6640.67,0.47689
6617.53,0.47774
6594.38,0.47755
6571.24,0.48149
6548.09,0.47740
6524.95,0.48273
6501.8,0.48316
6478.66,0.48628
6455.51,0.48821
6432.37,0.48607
6409.22,0.49187
6386.08,0.48853
6362.93,0.48904
6339.79,0.48846
6316.64,0.48807
6293.5,0.49240
6270.35,0.48790
6247.21,0.48676
6224.06,0.48775
6200.92,0.48271
6177.77,0.47861
6154.63,0.47538
6131.48,0.46376
6108.34,0.45841
6085.19,0.41739
6062.05,0.38531
6038.9,0.34677
6015.76,0.31808
5992.61,0.35548
5969.47,0.37413
5946.32,0.34933
5923.18,0.30208
5900.03,0.26294
5876.89,0.22254
5853.74,0.18884
5830.6,0.15491
5807.45,0.17805
5784.31,0.21703
5761.16,0.23249
5738.02,0.22296
5714.87,0.22521
5691.73,0.22992
5668.58,0.25311
5645.44,0.26331
5622.29,0.27853
5599.15,0.28928
5576,0.29825
5552.86,0.30824
5529.71,0.31168
5506.57,0.31321
5483.42,0.31222
5460.28,0.30966
5437.13,0.32550
5413.99,0.33522
5390.84,0.33799
5367.7,0.34577
5344.55,0.35253
5321.41,0.35562
5298.26,0.35818
5275.12,0.35255
5251.97,0.34430
5228.83,0.35193
5205.68,0.35060
5182.54,0.34849
5159.39,0.34816
5136.25,0.34529
5113.1,0.34397
5089.96,0.34494
5066.81,0.35155
5043.67,0.35454
5020.52,0.35505
4997.38,0.35370
4974.23,0.35376
4951.09,0.35520
4927.94,0.35327
4904.8,0.35169
4881.65,0.35230
4858.51,0.35315
4835.36,0.35314
4812.22,0.35015
4789.07,0.34491
4765.93,0.34876
4742.78,0.34241
4719.64,0.30920
4696.49,0.27909
4673.35,0.27210
4650.2,0.28368
4627.06,0.26050
4603.92,0.30200
4580.77,0.29537
4557.63,0.30962
4534.48,0.30327
4511.34,0.28544
4488.19,0.24798
4465.05,0.22467
4441.9,0.17339
4418.76,0.12160
4395.61,0.09770
4372.47,0.08010
4349.32,0.06325
4326.18,0.06059
4303.03,0.07100
4279.89,0.07079
4256.74,0.07344
4233.6,0.07190
4210.45,0.06968
4187.31,0.07558
4164.16,0.07494
4141.02,0.08597
4117.87,0.08998
4094.73,0.08140
4071.58,0.08036
4048.44,0.09447
4025.29,0.09668
4002.15,0.10326
3979,0.11484
3955.86,0.11829
3932.71,0.11930
3909.57,0.12377
3886.42,0.13042
3863.28,0.13264
3840.13,0.13596
3816.99,0.14265
3793.84,0.14935
3770.7,0.15365
3747.55,0.15663
3724.41,0.16473
3701.26,0.14593
3678.12,0.10681
3654.97,0.11027
3631.83,0.10659
3608.68,0.09624
3585.54,0.08800
3562.39,0.07850
3539.25,0.07244
3516.1,0.07080
3492.96,0.06904
3469.81,0.06526
3446.67,0.05784
3423.52,0.05127
3400.38,0.05207
3377.23,0.05660
3354.09,0.05671
3330.94,0.05543
3307.8,0.05680
3284.65,0.05844
3261.51,0.06056
3238.36,0.05979
3215.22,0.05626
3192.07,0.05557
3168.93,0.05733
3145.78,0.05768
3122.64,0.05587
3099.49,0.05294
3076.35,0.05015
3053.2,0.04828
3030.06,0.04792
3006.91,0.04479
2983.77,0.04381
2960.62,0.04389
2937.48,0.04495
2914.33,0.04815
2891.19,0.04750
2868.04,0.04845
2844.9,0.04946
2821.75,0.04917
2798.61,0.05005
2775.46,0.05335
2752.32,0.05360
2729.17,0.05312
2706.03,0.05846
2682.88,0.05988
2659.74,0.06113
2636.59,0.06030
2613.45,0.05536
2590.3,0.05354
2567.16,0.05327
2544.02,0.05246
2520.87,0.05086
2497.73,0.05346
2474.58,0.06241
2451.44,0.06882
2428.29,0.06696
2405.15,0.06345
2382,0.06135
2358.86,0.06622
2335.71,0.07491
2312.57,0.07838
2289.42,0.07302
2266.28,0.07149
2243.13,0.06707
2219.99,0.06495
2196.84,0.07143
2173.7,0.07912
2150.55,0.07488
2127.41,0.07376
2104.26,0.07631
2081.12,0.07482
2057.97,0.07450
2034.83,0.07850
2011.68,0.08164
1988.54,0.07487
1965.39,0.06427
1942.25,0.05634
1919.1,0.06893
1895.96,0.07017
1872.81,0.06967
1849.67,0.05989
1826.52,0.04644
1803.38,0.04262
1780.23,0.03996
1757.09,0.03546
1733.94,0.03675
1710.8,0.05263
1687.65,0.05014
1664.51,0.04872
1641.36,0.05026
1618.22,0.04960
1595.07,0.04905
1571.93,0.04645
1548.78,0.05276
1525.64,0.04657
1502.49,0.04463
1479.35,0.04173
1456.2,0.04305
1433.06,0.04358
1409.91,0.04182
1386.77,0.04035
1363.62,0.04107
1340.48,0.03895
1317.33,0.03729
1294.19,0.03489
1271.04,0.04000
1247.9,0.04299
1224.75,0.04413
1201.61,0.04342
1178.46,0.04278
1155.32,0.04666
1132.17,0.05133
1109.03,0.06348
1085.88,0.07181
1062.74,0.07509
1039.59,0.07265
1016.45,0.06770
993.304,0.06154
970.159,0.06019
947.014,0.05963
923.869,0.05952
900.724,0.05776
877.579,0.05670
854.434,0.05476
831.289,0.05453
808.144,0.05476
784.999,0.05551
761.854,0.05451
738.709,0.05314
715.565,0.05435
692.42,0.05345
669.275,0.05151
646.13,0.05057
622.985,0.04929
599.84,0.05022

File: Vinyl_Plank_Flooring_IS_S_220819_R8.dpt
7497.03,0.50344
7473.89,0.50123
7450.74,0.51046
7427.6,0.49519
7404.45,0.48786
7381.31,0.48966
7358.16,0.47860
7335.02,0.47726
7311.87,0.45473
7288.73,0.45083
7265.58,0.43699
7242.44,0.43267
7219.29,0.42093
7196.15,0.41989
7173,0.41755
7149.86,0.41265
7126.71,0.41655
7103.57,0.41882
7080.42,0.41510
7057.28,0.41897
7034.13,0.41925
7010.99,0.41761
6987.84,0.41933
6964.7,0.43096
6941.55,0.43569
6918.41,0.44743
6895.26,0.44844
6872.12,0.45520
6848.97,0.45476
6825.83,0.45758
6802.68,0.45963
6779.54,0.46260
6756.39,0.47006
6733.25,0.46892
6710.1,0.47550
6686.96,0.47928
6663.82,0.47762
6640.67,0.48147
6617.53,0.47441
6594.38,0.48294
6571.24,0.47936
6548.09,0.48474
6524.95,0.48579
6501.8,0.48438
6478.66,0.49008
6455.51,0.48846
6432.37,0.48736
6409.22,0.49401
6386.08,0.49321
6362.93,0.49077
6339.79,0.48832
6316.64,0.49060
6293.5,0.48990
6270.35,0.49038
6247.21,0.49274
6224.06,0.48881
6200.92,0.48514
6177.77,0.48156
6154.63,0.47630
6131.48,0.47022
6108.34,0.45734
6085.19,0.42137
6062.05,0.38402
6038.9,0.34641
6015.76,0.31715
5992.61,0.35338
5969.47,0.37616
5946.32,0.35000
5923.18,0.30327
5900.03,0.26373
5876.89,0.22287
5853.74,0.19006
5830.6,0.15697
5807.45,0.17730
5784.31,0.21837
5761.16,0.23101
5738.02,0.22386
5714.87,0.22979
5691.73,0.23079
5668.58,0.25279
5645.44,0.26404
5622.29,0.27891
5599.15,0.29128
5576,0.29996
5552.86,0.30917
5529.71,0.31258
5506.57,0.31470
5483.42,0.31454
5460.28,0.31225
5437.13,0.32748
5413.99,0.33655
5390.84,0.34037
5367.7,0.34771
5344.55,0.35224
5321.41,0.35820
5298.26,0.36132
5275.12,0.35283
5251.97,0.34671
5228.83,0.35138
5205.68,0.35183
5182.54,0.35126
5159.39,0.35218
5136.25,0.34782
5113.1,0.34497
5089.96,0.34890
5066.81,0.35362
5043.67,0.35777
5020.52,0.35739
4997.38,0.35352
4974.23,0.35665
4951.09,0.35617
4927.94,0.35330
4904.8,0.35431
4881.65,0.35565
4858.51,0.35372
4835.36,0.35644
4812.22,0.35181
4789.07,0.34824
4765.93,0.35027
4742.78,0.34503
4719.64,0.31103
4696.49,0.28127
4673.35,0.27302
4650.2,0.28523
4627.06,0.26260
4603.92,0.30398
4580.77,0.29617
4557.63,0.31143
4534.48,0.30496
4511.34,0.28821
4488.19,0.24974
4465.05,0.22545
4441.9,0.17404
4418.76,0.12249
4395.61,0.09865
4372.47,0.08021
4349.32,0.06441
4326.18,0.06052
4303.03,0.07131
4279.89,0.07055
4256.74,0.07329
4233.6,0.07140
4210.45,0.06999
4187.31,0.07681
4164.16,0.07445
4141.02,0.08611
4117.87,0.09021
4094.73,0.08198
4071.58,0.08018
4048.44,0.09476
4025.29,0.09759
4002.15,0.10388
3979,0.11481
3955.86,0.11905
3932.71,0.12035
3909.57,0.12507
3886.42,0.13200
3863.28,0.13385
3840.13,0.13631
3816.99,0.14299
3793.84,0.15023
3770.7,0.15406
3747.55,0.15679
3724.41,0.16603
3701.26,0.14722
3678.12,0.10860
3654.97,0.11149
3631.83,0.10913
3608.68,0.09686
3585.54,0.08859
3562.39,0.07938
3539.25,0.07324
3516.1,0.07179
3492.96,0.06972
3469.81,0.06672
3446.67,0.05879
3423.52,0.05117
3400.38,0.05296
3377.23,0.05618
3354.09,0.05809
3330.94,0.05651
3307.8,0.05758
3284.65,0.05844
3261.51,0.06118
3238.36,0.05903
3215.22,0.05626
3192.07,0.05618
3168.93,0.05792
3145.78,0.05837
3122.64,0.05615
3099.49,0.05365
3076.35,0.05042
3053.2,0.04859
3030.06,0.04757
3006.91,0.04523
2983.77,0.04378
2960.62,0.04458
2937.48,0.04529
2914.33,0.04809
2891.19,0.04832
2868.04,0.04830
2844.9,0.05019
2821.75,0.04911
2798.61,0.04997
2775.46,0.05360
2752.32,0.05425
2729.17,0.05294
2706.03,0.05902
2682.88,0.06013
2659.74,0.06142
2636.59,0.06069
2613.45,0.05572
2590.3,0.05348
2567.16,0.05334
2544.02,0.05280
2520.87,0.05115
2497.73,0.05321
2474.58,0.06263
2451.44,0.06911
2428.29,0.06756
2405.15,0.06396
2382,0.06144
2358.86,0.06653
2335.71,0.07517
2312.57,0.07885
2289.42,0.07323
2266.28,0.07140
2243.13,0.06711
2219.99,0.06488
2196.84,0.07177
2173.7,0.07936
2150.55,0.07520
2127.41,0.07394
2104.26,0.07672
2081.12,0.07502
2057.97,0.07493
2034.83,0.07870
2011.68,0.08224
1988.54,0.07502
1965.39,0.06482
1942.25,0.05676
1919.1,0.06916
1895.96,0.07003
1872.81,0.06961
1849.67,0.06007
1826.52,0.04690
1803.38,0.04300
1780.23,0.04030
1757.09,0.03558
1733.94,0.03740
1710.8,0.05334
1687.65,0.05006
1664.51,0.04854
1641.36,0.05060
1618.22,0.04966
1595.07,0.04895
1571.93,0.04633
1548.78,0.05287
1525.64,0.04678
1502.49,0.04451
1479.35,0.04237
1456.2,0.04262
1433.06,0.04448
1409.91,0.04198
1386.77,0.04024
1363.62,0.04074
1340.48,0.03880
1317.33,0.03716
1294.19,0.03517
1271.04,0.04010
1247.9,0.04318
1224.75,0.04404
1201.61,0.04368
1178.46,0.04283
1155.32,0.04643
1132.17,0.05120
1109.03,0.06360
1085.88,0.07136
1062.74,0.07530
1039.59,0.07277
1016.45,0.06790
993.304,0.06216
970.159,0.06022
947.014,0.06023
923.869,0.05962
900.724,0.05794
877.579,0.05645
854.434,0.05483
831.289,0.05478
808.144,0.05472
784.999,0.05568
761.854,0.05426
738.709,0.05333
715.565,0.05377
692.42,0.05423
669.275,0.05242
646.13,0.05002
622.985,0.05143
599.84,0.04994

File: Vinyl_Plank_Flooring_IS_T_220819_R1.dpt
7497.03,0.01907
7473.89,0.02213
7450.74,0.02282
7427.6,0.02156
7404.45,0.01676
7381.31,0.02787
7358.16,0.01504
7335.02,0.02130
7311.87,0.02034
7288.73,0.02206
7265.58,0.01712
7242.44,0.02811
7219.29,0.02586
7196.15,0.02025
7173,0.02327
7149.86,0.02201
7126.71,0.01953
7103.57,0.01711
7080.42,0.02837
7057.28,0.02362
7034.13,0.02010
7010.99,0.02858
6987.84,0.01416
6964.7,0.01872
6941.55,0.01958
6918.41,0.02739
6895.26,0.02297
6872.12,0.02100
6848.97,0.02104
6825.83,0.01979
6802.68,0.01638
6779.54,0.01331
6756.39,0.01888
6733.25,0.01555
6710.1,0.01830
6686.96,0.01828
6663.82,0.01903
6640.67,0.01736
6617.53,0.02254
6594.38,0.01634
6571.24,0.01824
6548.09,0.02286
6524.95,0.01952
6501.8,0.02004
6478.66,0.01971
6455.51,0.01718
6432.37,0.02099
6409.22,0.01658
6386.08,0.01927
6362.93,0.01937
6339.79,0.01713
6316.64,0.02151
6293.5,0.02015
6270.35,0.01852
6247.21,0.01613
6224.06,0.01911
6200.92,0.01946
6177.77,0.01675
6154.63,0.02197
6131.48,0.01802
6108.34,0.01965
6085.19,0.01703
6062.05,0.01790
6038.9,0.02141
6015.76,0.01854
5992.61,0.01867
5969.47,0.01925
5946.32,0.02131
5923.18,0.02015
5900.03,0.01652
5876.89,0.01862
5853.74,0.01922
5830.6,0.02119
5807.45,0.01723
5784.31,0.01873
5761.16,0.02013
5738.02,0.01788
5714.87,0.01921
5691.73,0.01877
5668.58,0.01845
5645.44,0.01786
5622.29,0.02003
5599.15,0.01777
5576,0.01894
5552.86,0.02063
5529.71,0.01862
5506.57,0.01828
5483.42,0.02088
5460.28,0.02000
5437.13,0.01825
5413.99,0.01702
5390.84,0.01776
5367.7,0.02148
5344.55,0.01876
5321.41,0.01955
5298.26,0.01827
5275.12,0.01839
5251.97,0.01877
5228.83,0.01915
5205.68,0.01956
5182.54,0.01985
5159.39,0.01876
5136.25,0.01982
5113.1,0.01964
5089.96,0.02061
5066.81,0.01884
5043.67,0.01952
5020.52,0.01912
4997.38,0.01983
4974.23,0.02013
4951.09,0.02037
4927.94,0.01950
4904.8,0.01979
4881.65,0.01990
4858.51,0.01912
4835.36,0.02030
4812.22,0.02034
4789.07,0.01892
4765.93,0.01862
4742.78,0.01975
4719.64,0.01990
4696.49,0.01913
4673.35,0.01976
4650.2,0.02047
4627.06,0.02023
4603.92,0.01897
4580.77,0.01921
4557.63,0.01910
4534.48,0.01934
4511.34,0.01961
4488.19,0.01908
4465.05,0.02005
4441.9,0.02019
4418.76,0.01983
4395.61,0.01874
4372.47,0.01953
4349.32,0.01897
4326.18,0.01961
4303.03,0.01891
4279.89,0.01922
4256.74,0.01963
4233.6,0.01984
4210.45,0.01965
4187.31,0.01974
4164.16,0.01945
4141.02,0.01940
4117.87,0.01972
4094.73,0.01990
4071.58,0.01946
4048.44,0.01980
4025.29,0.01983
4002.15,0.01955
3979,0.02000
3955.86,0.01974
3932.71,0.01950
3909.57,0.01970
3886.42,0.01971
3863.28,0.01991
3840.13,0.01949
3816.99,0.01958
3793.84,0.02039
3770.7,0.02011
3747.55,0.01981
3724.41,0.01949
3701.26,0.02008
3678.12,0.01961
3654.97,0.01983
3631.83,0.01905
3608.68,0.01887
3585.54,0.01856
3562.39,0.01836
3539.25,0.01858
3516.1,0.01817
3492.96,0.01785
3469.81,0.01806
3446.67,0.01807
3423.52,0.01743
3400.38,0.01724
3377.23,0.01727
3354.09,0.01694
3330.94,0.01789
3307.8,0.01764
3284.65,0.01707
3261.51,0.01766
3238.36,0.01732
3215.22,0.01787
3192.07,0.01727
3168.93,0.01757
3145.78,0.01822
3122.64,0.01831
3099.49,0.01755
3076.35,0.01751
3053.2,0.01759
3030.06,0.01767
3006.91,0.01715
2983.77,0.01667
2960.62,0.01670
2937.48,0.01693
2914.33,0.01710
2891.19,0.01761
2868.04,0.01753
2844.9,0.01830
2821.75,0.01854
2798.61,0.01833
2775.46,0.01809
2752.32,0.01830
2729.17,0.01872
2706.03,0.01878
2682.88,0.01836
2659.74,0.01793
2636.59,0.01840
2613.45,0.01867
2590.3,0.01852
2567.16,0.01795
2544.02,0.01829
2520.87,0.01822
2497.73,0.01848
2474.58,0.01804
2451.44,0.01855
2428.29,0.01822
2405.15,0.01846
2382,0.01785
2358.86,0.01838
2335.71,0.01814
2312.57,0.01807
2289.42,0.01853
2266.28,0.01795
2243.13,0.01817
2219.99,0.01789
2196.84,0.01827
2173.7,0.01842
2150.55,0.01843
2127.41,0.01791
2104.26,0.01805
2081.12,0.01829
2057.97,0.01799
2034.83,0.01790
2011.68,0.01805
1988.54,0.01777
1965.39,0.01777
1942.25,0.01783
1919.1,0.01764
1895.96,0.01778
1872.81,0.01731
1849.67,0.01750
1826.52,0.01674
1803.38,0.01710
1780.23,0.01608
1757.09,0.01496
1733.94,0.01682
1710.8,0.01781
1687.65,0.01654
1664.51,0.01603
1641.36,0.01554
1618.22,0.01593
1595.07,0.01594
1571.93,0.01563
1548.78,0.01499
1525.64,0.01567
1502.49,0.01594
1479.35,0.01535
1456.2,0.01600
1433.06,0.01566
1409.91,0.01556
1386.77,0.01531
1363.62,0.01493
1340.48,0.01503
1317.33,0.01394
1294.19,0.01462
1271.04,0.01642
1247.9,0.01719
1224.75,0.01653
1201.61,0.01608
1178.46,0.01509
1155.32,0.01467
1132.17,0.01526
1109.03,0.01534
1085.88,0.01579
1062.74,0.01678
1039.59,0.01688
1016.45,0.01690
993.304,0.01780
970.159,0.01751
947.014,0.01706
923.869,0.01670
900.724,0.01580
877.579,0.01644
854.434,0.01577
831.289,0.01553
808.144,0.01568
784.999,0.01614
761.854,0.01512
738.709,0.01597
715.565,0.01480
692.42,0.01504
669.275,0.01453
646.13,0.01287
622.985,0.01403
599.84,0.01099