Folder: fsri_materials_database/01_Data/Vinyl_Plank_Flooring/FTIR/IS

Note: README.md
# Materials and Products Database
### Repository of materials and products properties and fire test data to improve fire modeling and fire investigation.

This project was supported in part by Award No. 2019-DU-BX-0018, awarded by the National Institute of Justice, Office of Justice Programs, U.S. Department of Justice. The opinions, findings, and conclusions or recommendations expressed in this publication / program / exhibition are those of the author(s) and do not necessarily reflect those of the Department of Justice.

***
***

__Cite this database:__ "McKinnon, M., Weinschenk, C., Dow, N., DiDomizio, M., and Madrzykowski, D. Materials and Products Database (Version 1.0.0), Fire Safety Research Institute, UL Research Institutes. Columbia, MD 21045, 2023."

__Cite the Technical Reference Guide:__ "McKinnon, M., Weinschenk, C., and Madrzykowski, D. Materials and Products Database - Technical Reference Guide, Fire Safety Research Institute, UL Research Institutes. Columbia, MD 21045, 2023."

__Cite the User Guide:__ "McKinnon, M., and Weinschenk, C. Materials and Products Database - User Guide, Fire Safety Research Institute, UL Research Institutes. Columbia, MD 21045, 2023."

***
***

## Database Structure

## 01_Data/
Raw data generated from each apparatus are included here in plain-text format. The data is organized first by material, next by the short name of test apparatus used, and where applicable additional filtering by test settings.

### Test Apparatus and Data File Structure
- __Cone Calorimeter__ (Cone)
    + Data file structure includes the material, the short name for the apparatus, heat flux setting and scan/scalar, date of test, and replicate number. Scan is for the raw output data and scalar is for the initial conditions and high-level test parameters. 
        * Example: __MDF_Cone_HF25scalar_210323_R1__ stands for the first replicate of scalar data generated from a medium density fiber board test in cone calorimeter exposed to 25 kW/m<sup>2</sup> on March 23, 2021.
    + A _Cone_Notes.csv_ is generated for each material from the __plot_Cone_data.py__ script. For materials whose experiments deviated from typical behavior relevant pictures are included in the respective material directory.
- __Fourier Transform Infrared Spectrometer__ (FTIR)
    + The FTIR directory contains subdirectories for the Attenuated Total Reflectance method (ATR) and the Integrating Sphere (IS)
    + Data file structure for the ATR experiment files includes the material, the abbreviated name for the apparatus, date of test, and replicate number. 
        * Example: __MDF_ATR_210323_R5__ stands for the fifth replicate of data collected with the ATR accessory conducted on June 8, 2021.
    + Data file structure for the IS experiment files includes the material, the abbreviated name for the apparatus, the measurand, whether the test is a sample measurement or standard reference, date of test, and replicate number.
        * Example: __OSB_IS_REFLECT_MEAS_2

File: Vinyl_Plank_Flooring_IS_S_220819_R1.dpt
7497.03,0.50079
7473.89,0.49832
7450.74,0.49867
7427.6,0.50182
7404.45,0.48669
7381.31,0.48702
7358.16,0.47172
7335.02,0.45953
7311.87,0.45892
7288.73,0.44757
7265.58,0.42966
7242.44,0.42956
7219.29,0.41932
7196.15,0.41766
7173,0.41246
7149.86,0.41581
7126.71,0.42106
7103.57,0.41210
7080.42,0.41086
7057.28,0.40897
7034.13,0.41688
7010.99,0.41710
6987.84,0.41413
6964.7,0.42908
6941.55,0.43395
6918.41,0.43649
6895.26,0.44784
6872.12,0.44774
6848.97,0.45620
6825.83,0.45437
6802.68,0.45808
6779.54,0.45850
6756.39,0.46480
6733.25,0.46587
6710.1,0.46954
6686.96,0.46803
6663.82,0.47678
6640.67,0.47201
6617.53,0.47717
6594.38,0.47949
6571.24,0.47516
6548.09,0.48176
6524.95,0.47987
6501.8,0.48380
6478.66,0.48737
6455.51,0.49247
6432.37,0.48642
6409.22,0.49204
6386.08,0.48756
6362.93,0.48707
6339.79,0.48256
6316.64,0.48939
6293.5,0.48672
6270.35,0.49019
6247.21,0.48890
6224.06,0.48833
6200.92,0.48336
6177.77,0.47915
6154.63,0.46969
6131.48,0.46963
6108.34,0.45239
6085.19,0.41705
6062.05,0.38028
6038.9,0.34576
6015.76,0.31781
5992.61,0.35501
5969.47,0.37300
5946.32,0.34549
5923.18,0.30243
5900.03,0.26356
5876.89,0.22237
5853.74,0.18713
5830.6,0.15671
5807.45,0.17766
5784.31,0.21481
5761.16,0.23131
5738.02,0.22483
5714.87,0.22579
5691.73,0.23044
5668.58,0.25314
5645.44,0.26281
5622.29,0.27839
5599.15,0.28757
5576,0.29968
5552.86,0.30490
5529.71,0.31151
5506.57,0.31369
5483.42,0.31041
5460.28,0.31131
5437.13,0.32576
5413.99,0.33326
5390.84,0.33947
5367.7,0.34631
5344.55,0.35004
5321.41,0.35569
5298.26,0.35764
5275.12,0.34568
5251.97,0.33934
5228.83,0.34490
5205.68,0.34762
5182.54,0.34556
5159.39,0.34669
5136.25,0.34436
5113.1,0.34218
5089.96,0.34445
5066.81,0.35123
5043.67,0.35287
5020.52,0.35287
4997.38,0.35234
4974.23,0.35242
4951.09,0.35399
4927.94,0.35210
4904.8,0.35219
4881.65,0.35134
4858.51,0.35189
4835.36,0.35336
4812.22,0.34913
4789.07,0.34389
4765.93,0.34780
4742.78,0.34193
4719.64,0.30876
4696.49,0.27836
4673.35,0.27167
4650.2,0.28236
4627.06,0.26081
4603.92,0.30210
4580.77,0.29418
4557.63,0.30920
4534.48,0.30251
4511.34,0.28559
4488.19,0.24704
4465.05,0.22342
4441.9,0.17290
4418.76,0.12195
4395.61,0.09807
4372.47,0.08012
4349.32,0.06372
4326.18,0.06036
4303.03,0.07094
4279.89,0.07022
4256.74,0.07302
4233.6,0.07115
4210.45,0.06981
4187.31,0.07579
4164.16,0.07472
4141.02,0.08615
4117.87,0.08940
4094.73,0.08173
4071.58,0.08013
4048.44,0.09492
4025.29,0.09693
4002.15,0.10274
3979,0.11341
3955.86,0.11753
3932.71,0.11874
3909.57,0.12392
3886.42,0.13055
3863.28,0.13292
3840.13,0.13538
3816.99,0.14145
3793.84,0.14740
3770.7,0.15163
3747.55,0.15461
3724.41,0.16257
3701.26,0.14131
3678.12,0.09932
3654.97,0.10005
3631.83,0.09983
3608.68,0.09018
3585.54,0.08258
3562.39,0.07318
3539.25,0.06839
3516.1,0.06668
3492.96,0.06581
3469.81,0.06336
3446.67,0.05734
3423.52,0.05015
3400.38,0.05207
3377.23,0.05541
3354.09,0.05827
3330.94,0.05492
3307.8,0.05619
3284.65,0.05791
3261.51,0.06021
3238.36,0.05858
3215.22,0.05500
3192.07,0.05578
3168.93,0.05645
3145.78,0.05747
3122.64,0.05619
3099.49,0.05305
3076.35,0.05067
3053.2,0.04855
3030.06,0.04784
3006.91,0.04553
2983.77,0.04355
2960.62,0.04434
2937.48,0.04511
2914.33,0.04842
2891.19,0.04777
2868.04,0.04783
2844.9,0.04947
2821.75,0.04920
2798.61,0.05011
2775.46,0.05325
2752.32,0.05358
2729.17,0.05313
2706.03,0.05859
2682.88,0.06011
2659.74,0.06088
2636.59,0.06071
2613.45,0.05549
2590.3,0.05360
2567.16,0.05317
2544.02,0.05290
2520.87,0.05078
2497.73,0.05279
2474.58,0.06245
2451.44,0.06868
2428.29,0.06693
2405.15,0.06376
2382,0.06146
2358.86,0.06623
2335.71,0.07488
2312.57,0.07813
2289.42,0.07246
2266.28,0.07112
2243.13,0.06682
2219.99,0.06484
2196.84,0.07103
2173.7,0.07936
2150.55,0.07443
2127.41,0.07347
2104.26,0.07627
2081.12,0.07480
2057.97,0.07461
2034.83,0.07809
2011.68,0.08152
1988.54,0.07436
1965.39,0.06398
1942.25,0.05638
1919.1,0.06857
1895.96,0.06951
1872.81,0.06940
1849.67,0.05979
1826.52,0.04690
1803.38,0.04258
1780.23,0.04006
1757.09,0.03542
1733.94,0.03724
1710.8,0.05280
1687.65,0.05036
1664.51,0.04864
1641.36,0.05000
1618.22,0.04943
1595.07,0.04857
1571.93,0.04635
1548.78,0.05245
1525.64,0.04667
1502.49,0.04487
1479.35,0.04171
1456.2,0.04290
1433.06,0.04396
1409.91,0.04175
1386.77,0.03980
1363.62,0.04036
1340.48,0.03880
1317.33,0.03730
1294.19,0.03488
1271.04,0.03999
1247.9,0.04311
1224.75,0.04374
1201.61,0.04328
1178.46,0.04274
1155.32,0.04673
1132.17,0.05097
1109.03,0.06356
1085.88,0.07189
1062.74,0.07644
1039.59,0.07351
1016.45,0.06732
993.304,0.06198
970.159,0.06052
947.014,0.06065
923.869,0.05926
900.724,0.05776
877.579,0.05688
854.434,0.05433
831.289,0.05479
808.144,0.05504
784.999,0.05471
761.854,0.05413
738.709,0.05255
715.565,0.05397
692.42,0.05397
669.275,0.05124
646.13,0.05079
622.985,0.04882
599.84,0.05068

File: Vinyl_Plank_Flooring_IS_S_220819_R2.dpt
7497.03,0.49791
7473.89,0.49168
7450.74,0.50164
7427.6,0.50183
7404.45,0.49565
7381.31,0.48790
7358.16,0.47795
7335.02,0.46911
7311.87,0.45900
7288.73,0.45487
7265.58,0.43922
7242.44,0.43119
7219.29,0.42465
7196.15,0.41752
7173,0.41672
7149.86,0.41653
7126.71,0.41392
7103.57,0.41117
7080.42,0.41203
7057.28,0.40776
7034.13,0.41613
7010.99,0.41047
6987.84,0.41625
6964.7,0.43044
6941.55,0.43565
6918.41,0.44593
6895.26,0.44900
6872.12,0.44969
6848.97,0.45303
6825.83,0.45805
6802.68,0.45843
6779.54,0.46117
6756.39,0.45982
6733.25,0.46703
6710.1,0.46814
6686.96,0.47540
6663.82,0.47521
6640.67,0.47424
6617.53,0.47827
6594.38,0.47722
6571.24,0.48316
6548.09,0.47785
6524.95,0.47839
6501.8,0.48412
6478.66,0.48571
6455.51,0.48403
6432.37,0.49073
6409.22,0.48839
6386.08,0.48649
6362.93,0.48572
6339.79,0.48347
6316.64,0.48671
6293.5,0.49048
6270.35,0.48984
6247.21,0.48833
6224.06,0.48945
6200.92,0.48090
6177.77,0.47611
6154.63,0.47390
6131.48,0.46822
6108.34,0.45420
6085.19,0.41734
6062.05,0.38491
6038.9,0.34410
6015.76,0.31544
5992.61,0.35245
5969.47,0.37352
5946.32,0.34700
5923.18,0.30110
5900.03,0.26122
5876.89,0.22173
5853.74,0.18747
5830.6,0.15600
5807.45,0.17975
5784.31,0.21688
5761.16,0.23202
5738.02,0.22398
5714.87,0.22667
5691.73,0.23082
5668.58,0.25198
5645.44,0.26267
5622.29,0.27738
5599.15,0.28888
5576,0.29891
5552.86,0.30510
5529.71,0.31102
5506.57,0.31312
5483.42,0.31153
5460.28,0.31173
5437.13,0.32362
5413.99,0.33437
5390.84,0.33845
5367.7,0.34351
5344.55,0.35026
5321.41,0.35576
5298.26,0.35655
5275.12,0.34703
5251.97,0.34178
5228.83,0.34892
5205.68,0.34824
5182.54,0.34728
5159.39,0.34543
5136.25,0.34458
5113.1,0.34099
5089.96,0.34521
5066.81,0.35216
5043.67,0.35428
5020.52,0.35307
4997.38,0.35365
4974.23,0.35294
4951.09,0.35473
4927.94,0.35293
4904.8,0.35180
4881.65,0.35271
4858.51,0.35216
4835.36,0.35443
4812.22,0.34976
4789.07,0.34511
4765.93,0.34659
4742.78,0.34223
4719.64,0.30978
4696.49,0.27924
4673.35,0.27165
4650.2,0.28183
4627.06,0.26090
4603.92,0.30285
4580.77,0.29447
4557.63,0.30948
4534.48,0.30319
4511.34,0.28606
4488.19,0.24706
4465.05,0.22428
4441.9,0.17280
4418.76,0.12212
4395.61,0.09800
4372.47,0.08062
4349.32,0.06323
4326.18,0.06094
4303.03,0.07131
4279.89,0.07062
4256.74,0.07397
4233.6,0.07154
4210.45,0.07011
4187.31,0.07557
4164.16,0.07505
4141.02,0.08531
4117.87,0.09021
4094.73,0.08063
4071.58,0.07989
4048.44,0.09468
4025.29,0.09640
4002.15,0.10363
3979,0.11386
3955.86,0.11784
3932.71,0.11946
3909.57,0.12390
3886.42,0.13048
3863.28,0.13288
3840.13,0.13580
3816.99,0.14224
3793.84,0.14777
3770.7,0.15264
3747.55,0.15550
3724.41,0.16260
3701.26,0.14334
3678.12,0.10031
3654.97,0.10274
3631.83,0.10191
3608.68,0.09166
3585.54,0.08437
3562.39,0.07446
3539.25,0.06906
3516.1,0.06866
3492.96,0.06725
3469.81,0.06411
3446.67,0.05766
3423.52,0.05087
3400.38,0.05278
3377.23,0.05550
3354.09,0.05740
3330.94,0.05587
3307.8,0.05648
3284.65,0.05819
3261.51,0.06087
3238.36,0.05814
3215.22,0.05689
3192.07,0.05599
3168.93,0.05772
3145.78,0.05781
3122.64,0.05670
3099.49,0.05340
3076.35,0.05050
3053.2,0.04823
3030.06,0.04764
3006.91,0.04496
2983.77,0.04409
2960.62,0.04482
2937.48,0.04545
2914.33,0.04856
2891.19,0.04778
2868.04,0.04821
2844.9,0.04976
2821.75,0.04941
2798.61,0.05017
2775.46,0.05345
2752.32,0.05372
2729.17,0.05325
2706.03,0.05868
2682.88,0.05991
2659.74,0.06133
2636.59,0.06055
2613.45,0.05516
2590.3,0.05370
2567.16,0.05339
2544.02,0.05303
2520.87,0.05097
2497.73,0.05318
2474.58,0.06225
2451.44,0.06871
2428.29,0.06740
2405.15,0.06357
2382,0.06130
2358.86,0.06642
2335.71,0.07447
2312.57,0.07837
2289.42,0.07272
2266.28,0.07152
2243.13,0.06708
2219.99,0.06508
2196.84,0.07110
2173.7,0.07924
2150.55,0.07497
2127.41,0.07363
2104.26,0.07640
2081.12,0.07470
2057.97,0.07469
2034.83,0.07831
2011.68,0.08151
1988.54,0.07475
1965.39,0.06427
1942.25,0.05655
1919.1,0.06870
1895.96,0.06975
1872.81,0.06946
1849.67,0.05992
1826.52,0.04699
1803.38,0.04263
1780.23,0.03988
1757.09,0.03553
1733.94,0.03654
1710.8,0.05309
1687.65,0.05040
1664.51,0.04881
1641.36,0.04988
1618.22,0.04976
1595.07,0.04831
1571.93,0.04619
1548.78,0.05284
1525.64,0.04659
1502.49,0.04438
1479.35,0.04193
1456.2,0.04274
1433.06,0.04407
1409.91,0.04218
1386.77,0.04059
1363.62,0.04085
1340.48,0.03885
1317.33,0.03728
1294.19,0.03548
1271.04,0.03989
1247.9,0.04298
1224.75,0.04387
1201.61,0.04361
1178.46,0.04313
1155.32,0.04615
1132.17,0.05150
1109.03,0.06406
1085.88,0.07096
1062.74,0.07606
1039.59,0.07311
1016.45,0.06714
993.304,0.06212
970.159,0.06077
947.014,0.06012
923.869,0.06022
900.724,0.05853
877.579,0.05649
854.434,0.05512
831.289,0.05434
808.144,0.05476
784.999,0.05526
761.854,0.05430
738.709,0.05373
715.565,0.05423
692.42,0.05249
669.275,0.05172
646.13,0.05087
622.985,0.05016
599.84,0.04901

File: Vinyl_Plank_Flooring_IS_S_220819_R3.dpt
7497.03,0.50924
7473.89,0.49556
7450.74,0.50163
7427.6,0.49089
7404.45,0.49616
7381.31,0.48385
7358.16,0.46753
7335.02,0.47209
7311.87,0.45917
7288.73,0.45462
7265.58,0.43453
7242.44,0.43172
7219.29,0.43132
7196.15,0.42329
7173,0.41759
7149.86,0.41713
7126.71,0.41625
7103.57,0.41469
7080.42,0.41280
7057.28,0.42386
7034.13,0.42231
7010.99,0.41371
6987.84,0.42180
6964.7,0.43289
6941.55,0.43320
6918.41,0.44547
6895.26,0.44667
6872.12,0.45210
6848.97,0.45836
6825.83,0.46222
6802.68,0.46197
6779.54,0.46231
6756.39,0.47161
6733.25,0.46774
6710.1,0.47297
6686.96,0.47643
6663.82,0.47665
6640.67,0.47562
6617.53,0.48264
6594.38,0.48570
6571.24,0.48670
6548.09,0.48134
6524.95,0.48459
6501.8,0.48760
6478.66,0.49010
6455.51,0.48753
6432.37,0.49025
6409.22,0.48832
6386.08,0.48854
6362.93,0.48973
6339.79,0.49119
6316.64,0.49201
6293.5,0.49212
6270.35,0.49132
6247.21,0.49056
6224.06,0.49118
6200.92,0.48399
6177.77,0.48347
6154.63,0.47948
6131.48,0.47071
6108.34,0.45848
6085.19,0.42490
6062.05,0.38502
6038.9,0.34711
6015.76,0.32142
5992.61,0.35393
5969.47,0.37523
5946.32,0.35282
5923.18,0.30299
5900.03,0.26772
5876.89,0.22233
5853.74,0.18876
5830.6,0.15729
5807.45,0.18032
5784.31,0.21682
5761.16,0.23433
5738.02,0.22381
5714.87,0.22641
5691.73,0.23227
5668.58,0.25382
5645.44,0.26310
5622.29,0.28159
5599.15,0.29021
5576,0.30130
5552.86,0.30915
5529.71,0.31140
5506.57,0.31385
5483.42,0.31491
5460.28,0.31516
5437.13,0.32559
5413.99,0.33658
5390.84,0.33987
5367.7,0.34939
5344.55,0.35369
5321.41,0.35830
5298.26,0.36171
5275.12,0.35170
5251.97,0.34538
5228.83,0.34926
5205.68,0.35070
5182.54,0.34960
5159.39,0.34714
5136.25,0.34841
5113.1,0.34512
5089.96,0.34810
5066.81,0.35397
5043.67,0.35599
5020.52,0.35707
4997.38,0.35402
4974.23,0.35517
4951.09,0.35627
4927.94,0.35457
4904.8,0.35570
4881.65,0.35537
4858.51,0.35460
4835.36,0.35709
4812.22,0.35138
4789.07,0.34700
4765.93,0.35106
4742.78,0.34506
4719.64,0.31164
4696.49,0.28143
4673.35,0.27349
4650.2,0.28484
4627.06,0.26302
4603.92,0.30414
4580.77,0.29690
4557.63,0.31158
4534.48,0.30508
4511.34,0.28871
4488.19,0.24834
4465.05,0.22545
4441.9,0.17424
4418.76,0.12333
4395.61,0.09816
4372.47,0.08112
4349.32,0.06430
4326.18,0.06073
4303.03,0.07122
4279.89,0.07056
4256.74,0.07386
4233.6,0.07152
4210.45,0.07048
4187.31,0.07644
4164.16,0.07520
4141.02,0.08617
4117.87,0.08975
4094.73,0.08149
4071.58,0.08042
4048.44,0.09502
4025.29,0.09683
4002.15,0.10356
3979,0.11444
3955.86,0.11869
3932.71,0.11993
3909.57,0.12541
3886.42,0.13129
3863.28,0.13332
3840.13,0.13625
3816.99,0.14200
3793.84,0.14981
3770.7,0.15362
3747.55,0.15592
3724.41,0.16441
3701.26,0.14414
3678.12,0.10256
3654.97,0.10514
3631.83,0.10345
3608.68,0.09285
3585.54,0.08615
3562.39,0.07652
3539.25,0.06978
3516.1,0.06911
3492.96,0.06749
3469.81,0.06455
3446.67,0.05830
3423.52,0.05100
3400.38,0.05210
3377.23,0.05621
3354.09,0.05850
3330.94,0.05664
3307.8,0.05731
3284.65,0.05835
3261.51,0.06046
3238.36,0.05892
3215.22,0.05649
3192.07,0.05544
3168.93,0.05752
3145.78,0.05675
3122.64,0.05586
3099.49,0.05384
3076.35,0.05017
3053.2,0.04831
3030.06,0.04776
3006.91,0.04524
2983.77,0.04367
2960.62,0.04472
2937.48,0.04531
2914.33,0.04832
2891.19,0.04763
2868.04,0.04773
2844.9,0.05010
2821.75,0.04963
2798.61,0.05061
2775.46,0.05373
2752.32,0.05413
2729.17,0.05346
2706.03,0.05889
2682.88,0.05978
2659.74,0.06130
2636.59,0.06111
2613.45,0.05577
2590.3,0.05386
2567.16,0.05315
2544.02,0.05313
2520.87,0.05075
2497.73,0.05348
2474.58,0.06334
2451.44,0.06915
2428.29,0.06789
2405.15,0.06357
2382,0.06166
2358.86,0.06684
2335.71,0.07494
2312.57,0.07844
2289.42,0.07296
2266.28,0.07160
2243.13,0.06719
2219.99,0.06515
2196.84,0.07160
2173.7,0.07999
2150.55,0.07529
2127.41,0.07400
2104.26,0.07690
2081.12,0.07505
2057.97,0.07483
2034.83,0.07887
2011.68,0.08190
1988.54,0.07459
1965.39,0.06450
1942.25,0.05639
1919.1,0.06937
1895.96,0.07040
1872.81,0.07008
1849.67,0.06010
1826.52,0.04704
1803.38,0.04267
1780.23,0.04022
1757.09,0.03561
1733.94,0.03677
1710.8,0.05334
1687.65,0.05046
1664.51,0.04880
1641.36,0.05025
1618.22,0.04977
1595.07,0.04877
1571.93,0.04647
1548.78,0.05315
1525.64,0.04717
1502.49,0.04509
1479.35,0.04217
1456.2,0.04288
1433.06,0.04416
1409.91,0.04179
1386.77,0.04042
1363.62,0.04074
1340.48,0.03873
1317.33,0.03686
1294.19,0.03514
1271.04,0.03981
1247.9,0.04293
1224.75,0.04391
1201.61,0.04337
1178.46,0.04326
1155.32,0.04661
1132.17,0.05168
1109.03,0.06326
1085.88,0.07131
1062.74,0.07597
1039.59,0.07336
1016.45,0.06759
993.304,0.06245
970.159,0.06066
947.014,0.06042
923.869,0.05984
900.724,0.05810
877.579,0.05645
854.434,0.05500
831.289,0.05543
808.144,0.05488
784.999,0.05534
761.854,0.05336
738.709,0.05400
715.565,0.05284
692.42,0.05342
669.275,0.05212
646.13,0.04912
622.985,0.04911
599.84,0.04789

File: Vinyl_Plank_Flooring_IS_S_220819_R4.dpt
7497.03,0.50393
7473.89,0.49906
7450.74,0.48753
7427.6,0.49834
7404.45,0.48330
7381.31,0.48156
7358.16,0.47380
7335.02,0.46709
7311.87,0.45499
7288.73,0.44514
7265.58,0.43381
7242.44,0.42423
7219.29,0.41825
7196.15,0.41562
7173,0.41147
7149.86,0.41510
7126.71,0.41719
7103.57,0.41615
7080.42,0.41256
7057.28,0.40380
7034.13,0.41435
7010.99,0.41488
6987.84,0.42072
6964.7,0.42550
6941.55,0.43508
6918.41,0.44036
6895.26,0.44738
6872.12,0.44997
6848.97,0.45815
6825.83,0.45898
6802.68,0.45810
6779.54,0.46850
6756.39,0.46485
6733.25,0.46512
6710.1,0.46721
6686.96,0.47078
6663.82,0.47086
6640.67,0.47432
6617.53,0.47533
6594.38,0.47387
6571.24,0.47839
6548.09,0.48045
6524.95,0.47674
6501.8,0.48351
6478.66,0.48293
6455.51,0.48246
6432.37,0.48846
6409.22,0.48844
6386.08,0.48792
6362.93,0.48796
6339.79,0.48498
6316.64,0.48712
6293.5,0.48853
6270.35,0.48727
6247.21,0.48777
6224.06,0.48711
6200.92,0.48063
6177.77,0.47804
6154.63,0.47399
6131.48,0.46723
6108.34,0.45510
6085.19,0.42269
6062.05,0.38193
6038.9,0.34677
6015.76,0.31489
5992.61,0.34987
5969.47,0.37067
5946.32,0.34610
5923.18,0.30195
5900.03,0.26328
5876.89,0.22273
5853.74,0.18778
5830.6,0.15854
5807.45,0.17671
5784.31,0.21647
5761.16,0.23249
5738.02,0.22472
5714.87,0.22782
5691.73,0.23172
5668.58,0.25369
5645.44,0.26314
5622.29,0.27812
5599.15,0.28754
5576,0.29924
5552.86,0.30655
5529.71,0.31075
5506.57,0.31255
5483.42,0.31282
5460.28,0.31183
5437.13,0.32563
5413.99,0.33295
5390.84,0.33571
5367.7,0.34345
5344.55,0.34987
5321.41,0.35509
5298.26,0.35719
5275.12,0.34898
5251.97,0.34186
5228.83,0.34853
5205.68,0.34819
5182.54,0.34626
5159.39,0.34600
5136.25,0.34468
5113.1,0.34235
5089.96,0.34525
5066.81,0.35078
5043.67,0.35358
5020.52,0.35354
4997.38,0.35138
4974.23,0.35347
4951.09,0.35338
4927.94,0.35108
4904.8,0.35210
4881.65,0.35195
4858.51,0.35112
4835.36,0.35282
4812.22,0.34830
4789.07,0.34485
4765.93,0.34797
4742.78,0.34189
4719.64,0.30856
4696.49,0.27837
4673.35,0.27035
4650.2,0.28304
4627.06,0.26027
4603.92,0.30163
4580.77,0.29409
4557.63,0.30807
4534.48,0.30267
4511.34,0.28491
4488.19,0.24691
4465.05,0.22255
4441.9,0.17342
4418.76,0.12092
4395.61,0.09801
4372.47,0.08037
4349.32,0.06290
4326.18,0.06029
4303.03,0.07060
4279.89,0.07054
4256.74,0.07364
4233.6,0.07157
4210.45,0.07018
4187.31,0.07578
4164.16,0.07438
4141.02,0.08565
4117.87,0.08940
4094.73,0.08076
4071.58,0.07987
4048.44,0.09384
4025.29,0.09738
4002.15,0.10265
3979,0.11397
3955.86,0.11784
3932.71,0.11886
3909.57,0.12341
3886.42,0.13034
3863.28,0.13240
3840.13,0.13579
3816.99,0.14195
3793.84,0.14808
3770.7,0.15245
3747.55,0.15547
3724.41,0.16342
3701.26,0.14405
3678.12,0.10344
3654.97,0.10521
3631.83,0.10433
3608.68,0.09341
3585.54,0.08588
3562.39,0.07582
3539.25,0.07066
3516.1,0.06938
3492.96,0.06800
3469.81,0.06480
3446.67,0.05835
3423.52,0.05060
3400.38,0.05218
3377.23,0.05617
3354.09,0.05790
3330.94,0.05675
3307.8,0.05562
3284.65,0.05797
3261.51,0.06132
3238.36,0.05979
3215.22,0.05605
3192.07,0.05529
3168.93,0.05689
3145.78,0.05837
3122.64,0.05596
3099.49,0.05357
3076.35,0.04993
3053.2,0.04805
3030.06,0.04732
3006.91,0.04512
2983.77,0.04407
2960.62,0.04428
2937.48,0.04571
2914.33,0.04820
2891.19,0.04730
2868.04,0.04792
2844.9,0.05005
2821.75,0.04895
2798.61,0.05002
2775.46,0.05310
2752.32,0.05357
2729.17,0.05300
2706.03,0.05801
2682.88,0.05995
2659.74,0.06063
2636.59,0.06071
2613.45,0.05515
2590.3,0.05382
2567.16,0.05281
2544.02,0.05241
2520.87,0.05044
2497.73,0.05305
2474.58,0.06216
2451.44,0.06841
2428.29,0.06731
2405.15,0.06348
2382,0.06142
2358.86,0.06638
2335.71,0.07454
2312.57,0.07794
2289.42,0.07276
2266.28,0.07113
2243.13,0.06682
2219.99,0.06471
2196.84,0.07114
2173.7,0.07866
2150.55,0.07494
2127.41,0.07321
2104.26,0.07596
2081.12,0.07452
2057.97,0.07476
2034.83,0.07835
2011.68,0.08143
1988.54,0.07441
1965.39,0.06400
1942.25,0.05616
1919.1,0.06896
1895.96,0.06973
1872.81,0.06945
1849.67,0.05977
1826.52,0.04701
1803.38,0.04258
1780.23,0.03998
1757.09,0.03497
1733.94,0.03662
1710.8,0.05286
1687.65,0.05005
1664.51,0.04856
1641.36,0.05015
1618.22,0.04940
1595.07,0.04879
1571.93,0.04612
1548.78,0.05249
1525.64,0.04635
1502.49,0.04433
1479.35,0.04214
1456.2,0.04324
1433.06,0.04393
1409.91,0.04214
1386.77,0.04000
1363.62,0.04063
1340.48,0.03851
1317.33,0.03682
1294.19,0.03501
1271.04,0.03996
1247.9,0.04291
1224.75,0.04340
1201.61,0.04337
1178.46,0.04234
1155.32,0.04714
1132.17,0.05130
1109.03,0.06411
1085.88,0.07153
1062.74,0.07520
1039.59,0.07288
1016.45,0.06790
993.304,0.06200
970.159,0.06017
947.014,0.06001
923.869,0.06008
900.724,0.05782
877.579,0.05620
854.434,0.05502
831.289,0.05382
808.144,0.05505
784.999,0.05453
761.854,0.05419
738.709,0.05292
715.565,0.05355
692.42,0.05218
669.275,0.05227
646.13,0.05020
622.985,0.04894
599.84,0.04918