Folder: fsri_materials_database/01_Data/Basswood_Panel/FTIR/IS (part 2)

File: Basswood_Panel_IS_S_220928_R5.dpt
7497.03,0.83605
7473.89,0.82779
7450.74,0.81954
7427.6,0.80958
7404.45,0.80228
7381.31,0.79867
7358.16,0.79044
7335.02,0.78397
7311.87,0.77056
7288.73,0.76585
7265.58,0.75738
7242.44,0.77147
7219.29,0.75818
7196.15,0.75005
7173,0.75291
7149.86,0.74044
7126.71,0.71839
7103.57,0.70863
7080.42,0.69056
7057.28,0.66995
7034.13,0.65307
7010.99,0.63732
6987.84,0.63246
6964.7,0.62240
6941.55,0.61748
6918.41,0.61759
6895.26,0.61333
6872.12,0.61459
6848.97,0.61152
6825.83,0.61419
6802.68,0.61123
6779.54,0.61344
6756.39,0.61083
6733.25,0.61727
6710.1,0.61270
6686.96,0.61305
6663.82,0.62123
6640.67,0.62826
6617.53,0.63418
6594.38,0.62850
6571.24,0.63679
6548.09,0.64201
6524.95,0.63900
6501.8,0.64333
6478.66,0.64005
6455.51,0.64648
6432.37,0.64649
6409.22,0.64928
6386.08,0.65284
6362.93,0.64941
6339.79,0.65710
6316.64,0.65224
6293.5,0.65901
6270.35,0.65841
6247.21,0.67050
6224.06,0.67596
6200.92,0.67997
6177.77,0.68878
6154.63,0.69480
6131.48,0.69593
6108.34,0.69592
6085.19,0.69878
6062.05,0.69784
6038.9,0.69158
6015.76,0.68610
5992.61,0.68083
5969.47,0.67698
5946.32,0.67303
5923.18,0.67235
5900.03,0.66448
5876.89,0.65771
5853.74,0.65706
5830.6,0.65003
5807.45,0.64573
5784.31,0.64463
5761.16,0.65543
5738.02,0.65599
5714.87,0.65868
5691.73,0.65670
5668.58,0.65702
5645.44,0.65856
5622.29,0.65936
5599.15,0.65834
5576,0.66116
5552.86,0.66311
5529.71,0.66361
5506.57,0.66376
5483.42,0.67005
5460.28,0.66871
5437.13,0.67427
5413.99,0.67924
5390.84,0.68093
5367.7,0.68096
5344.55,0.67688
5321.41,0.66955
5298.26,0.64788
5275.12,0.61227
5251.97,0.57218
5228.83,0.54622
5205.68,0.53718
5182.54,0.53707
5159.39,0.54721
5136.25,0.56054
5113.1,0.57207
5089.96,0.57984
5066.81,0.59183
5043.67,0.60183
5020.52,0.60611
4997.38,0.60588
4974.23,0.60187
4951.09,0.58647
4927.94,0.56723
4904.8,0.54508
4881.65,0.52325
4858.51,0.50461
4835.36,0.49007
4812.22,0.47830
4789.07,0.47211
4765.93,0.46792
4742.78,0.46727
4719.64,0.47109
4696.49,0.47434
4673.35,0.48198
4650.2,0.49193
4627.06,0.50136
4603.92,0.51102
4580.77,0.51784
4557.63,0.52381
4534.48,0.52777
4511.34,0.52703
4488.19,0.51545
4465.05,0.48479
4441.9,0.45003
4418.76,0.42470
4395.61,0.41765
4372.47,0.42422
4349.32,0.42290
4326.18,0.41661
4303.03,0.41082
4279.89,0.40453
4256.74,0.40661
4233.6,0.41107
4210.45,0.41497
4187.31,0.41776
4164.16,0.42314
4141.02,0.41959
4117.87,0.40675
4094.73,0.38858
4071.58,0.36622
4048.44,0.34523
4025.29,0.33235
4002.15,0.33347
3979,0.33897
3955.86,0.35066
3932.71,0.36191
3909.57,0.37347
3886.42,0.38349
3863.28,0.39508
3840.13,0.40648
3816.99,0.41107
3793.84,0.41112
3770.7,0.40814
3747.55,0.40057
3724.41,0.38657
3701.26,0.35584
3678.12,0.29602
3654.97,0.21786
3631.83,0.16147
3608.68,0.11797
3585.54,0.08798
3562.39,0.06870
3539.25,0.05629
3516.1,0.04898
3492.96,0.04309
3469.81,0.03957
3446.67,0.03809
3423.52,0.03689
3400.38,0.03752
3377.23,0.03759
3354.09,0.03709
3330.94,0.04079
3307.8,0.04288
3284.65,0.04525
3261.51,0.05106
3238.36,0.05745
3215.22,0.06560
3192.07,0.07496
3168.93,0.08434
3145.78,0.09380
3122.64,0.10404
3099.49,0.11290
3076.35,0.12127
3053.2,0.12809
3030.06,0.13004
3006.91,0.11822
2983.77,0.10139
2960.62,0.07540
2937.48,0.06318
2914.33,0.06300
2891.19,0.06856
2868.04,0.07348
2844.9,0.08586
2821.75,0.11905
2798.61,0.14089
2775.46,0.14978
2752.32,0.15515
2729.17,0.15718
2706.03,0.16628
2682.88,0.17624
2659.74,0.18279
2636.59,0.18979
2613.45,0.19855
2590.3,0.20529
2567.16,0.20859
2544.02,0.21065
2520.87,0.21579
2497.73,0.22464
2474.58,0.23341
2451.44,0.24116
2428.29,0.25191
2405.15,0.26465
2382,0.27525
2358.86,0.28420
2335.71,0.29219
2312.57,0.29474
2289.42,0.29303
2266.28,0.28878
2243.13,0.28104
2219.99,0.28270
2196.84,0.27865
2173.7,0.26237
2150.55,0.24862
2127.41,0.24673
2104.26,0.25216
2081.12,0.25765
2057.97,0.25699
2034.83,0.26161
2011.68,0.27555
1988.54,0.28490
1965.39,0.28450
1942.25,0.28906
1919.1,0.30065
1895.96,0.30256
1872.81,0.29810
1849.67,0.28481
1826.52,0.26203
1803.38,0.22096
1780.23,0.15344
1757.09,0.06119
1733.94,0.05048
1710.8,0.07490
1687.65,0.10174
1664.51,0.08419
1641.36,0.08334
1618.22,0.07960
1595.07,0.06233
1571.93,0.11022
1548.78,0.12452
1525.64,0.09903
1502.49,0.05911
1479.35,0.06768
1456.2,0.04616
1433.06,0.04492
1409.91,0.05077
1386.77,0.04409
1363.62,0.04310
1340.48,0.04380
1317.33,0.04364
1294.19,0.04719
1271.04,0.03826
1247.9,0.03608
1224.75,0.04017
1201.61,0.04606
1178.46,0.03757
1155.32,0.03710
1132.17,0.03037
1109.03,0.03505
1085.88,0.03474
1062.74,0.04505
1039.59,0.05020
1016.45,0.05822
993.304,0.06483
970.159,0.08700
947.014,0.11434
923.869,0.11430
900.724,0.09649
877.579,0.11718
854.434,0.12416
831.289,0.11566
808.144,0.11986
784.999,0.11674
761.854,0.10263
738.709,0.08797
715.565,0.07589
692.42,0.07349
669.275,0.06295
646.13,0.06487
622.985,0.05581
599.84,0.06193

File: Basswood_Panel_IS_S_220928_R6.dpt
7497.03,0.84603
7473.89,0.83778
7450.74,0.82625
7427.6,0.82022
7404.45,0.81025
7381.31,0.79593
7358.16,0.79616
7335.02,0.79243
7311.87,0.78144
7288.73,0.76883
7265.58,0.78023
7242.44,0.76551
7219.29,0.76870
7196.15,0.76465
7173,0.75776
7149.86,0.74054
7126.71,0.73790
7103.57,0.71163
7080.42,0.69735
7057.28,0.67588
7034.13,0.65904
7010.99,0.64485
6987.84,0.62692
6964.7,0.62950
6941.55,0.61828
6918.41,0.61915
6895.26,0.62193
6872.12,0.62173
6848.97,0.61543
6825.83,0.61757
6802.68,0.61804
6779.54,0.61556
6756.39,0.61303
6733.25,0.61709
6710.1,0.61692
6686.96,0.62435
6663.82,0.62667
6640.67,0.63197
6617.53,0.63005
6594.38,0.63735
6571.24,0.64276
6548.09,0.64718
6524.95,0.64663
6501.8,0.64812
6478.66,0.64666
6455.51,0.65323
6432.37,0.65434
6409.22,0.65533
6386.08,0.65559
6362.93,0.65550
6339.79,0.65978
6316.64,0.66147
6293.5,0.66273
6270.35,0.66677
6247.21,0.67185
6224.06,0.68099
6200.92,0.68849
6177.77,0.69084
6154.63,0.69595
6131.48,0.70282
6108.34,0.70215
6085.19,0.70237
6062.05,0.69914
6038.9,0.69805
6015.76,0.69234
5992.61,0.68523
5969.47,0.67984
5946.32,0.67610
5923.18,0.67388
5900.03,0.67082
5876.89,0.66517
5853.74,0.66034
5830.6,0.65433
5807.45,0.64700
5784.31,0.64859
5761.16,0.66056
5738.02,0.66178
5714.87,0.66308
5691.73,0.66122
5668.58,0.66060
5645.44,0.65956
5622.29,0.66331
5599.15,0.66444
5576,0.66608
5552.86,0.66673
5529.71,0.66875
5506.57,0.67032
5483.42,0.67151
5460.28,0.67338
5437.13,0.67691
5413.99,0.68415
5390.84,0.68651
5367.7,0.68460
5344.55,0.68290
5321.41,0.67549
5298.26,0.65297
5275.12,0.61838
5251.97,0.57913
5228.83,0.55343
5205.68,0.54178
5182.54,0.54348
5159.39,0.55129
5136.25,0.56615
5113.1,0.57633
5089.96,0.58715
5066.81,0.59682
5043.67,0.60399
5020.52,0.61125
4997.38,0.61096
4974.23,0.60521
4951.09,0.59101
4927.94,0.56980
4904.8,0.54732
4881.65,0.52500
4858.51,0.50820
4835.36,0.49297
4812.22,0.48165
4789.07,0.47482
4765.93,0.47121
4742.78,0.47048
4719.64,0.47320
4696.49,0.47702
4673.35,0.48363
4650.2,0.49451
4627.06,0.50377
4603.92,0.51332
4580.77,0.51997
4557.63,0.52574
4534.48,0.53007
4511.34,0.52918
4488.19,0.51732
4465.05,0.48793
4441.9,0.45225
4418.76,0.42766
4395.61,0.41946
4372.47,0.42648
4349.32,0.42469
4326.18,0.41905
4303.03,0.41204
4279.89,0.40574
4256.74,0.40775
4233.6,0.41372
4210.45,0.41642
4187.31,0.41908
4164.16,0.42509
4141.02,0.42103
4117.87,0.40836
4094.73,0.39069
4071.58,0.36836
4048.44,0.34731
4025.29,0.33375
4002.15,0.33456
3979,0.34096
3955.86,0.35132
3932.71,0.36468
3909.57,0.37555
3886.42,0.38592
3863.28,0.39655
3840.13,0.40902
3816.99,0.41297
3793.84,0.41360
3770.7,0.41052
3747.55,0.40319
3724.41,0.38881
3701.26,0.35859
3678.12,0.29877
3654.97,0.22086
3631.83,0.16376
3608.68,0.11983
3585.54,0.08958
3562.39,0.06930
3539.25,0.05679
3516.1,0.04900
3492.96,0.04284
3469.81,0.04017
3446.67,0.03716
3423.52,0.03728
3400.38,0.03797
3377.23,0.03828
3354.09,0.03816
3330.94,0.04035
3307.8,0.04344
3284.65,0.04582
3261.51,0.05096
3238.36,0.05870
3215.22,0.06674
3192.07,0.07446
3168.93,0.08463
3145.78,0.09470
3122.64,0.10445
3099.49,0.11353
3076.35,0.12152
3053.2,0.12925
3030.06,0.13106
3006.91,0.11831
2983.77,0.10146
2960.62,0.07532
2937.48,0.06279
2914.33,0.06280
2891.19,0.06827
2868.04,0.07390
2844.9,0.08639
2821.75,0.11974
2798.61,0.14084
2775.46,0.15032
2752.32,0.15509
2729.17,0.15748
2706.03,0.16638
2682.88,0.17661
2659.74,0.18344
2636.59,0.19031
2613.45,0.19926
2590.3,0.20571
2567.16,0.20913
2544.02,0.21169
2520.87,0.21648
2497.73,0.22500
2474.58,0.23439
2451.44,0.24224
2428.29,0.25228
2405.15,0.26545
2382,0.27594
2358.86,0.28540
2335.71,0.29248
2312.57,0.29593
2289.42,0.29431
2266.28,0.28973
2243.13,0.28237
2219.99,0.28365
2196.84,0.28008
2173.7,0.26352
2150.55,0.24994
2127.41,0.24772
2104.26,0.25336
2081.12,0.25925
2057.97,0.25801
2034.83,0.26319
2011.68,0.27696
1988.54,0.28653
1965.39,0.28560
1942.25,0.29028
1919.1,0.30192
1895.96,0.30395
1872.81,0.29931
1849.67,0.28619
1826.52,0.26272
1803.38,0.22147
1780.23,0.15340
1757.09,0.06137
1733.94,0.05065
1710.8,0.07491
1687.65,0.10255
1664.51,0.08531
1641.36,0.08437
1618.22,0.07976
1595.07,0.06241
1571.93,0.11073
1548.78,0.12516
1525.64,0.09881
1502.49,0.05905
1479.35,0.06784
1456.2,0.04619
1433.06,0.04449
1409.91,0.05083
1386.77,0.04394
1363.62,0.04307
1340.48,0.04374
1317.33,0.04415
1294.19,0.04743
1271.04,0.03852
1247.9,0.03617
1224.75,0.04052
1201.61,0.04539
1178.46,0.03731
1155.32,0.03691
1132.17,0.03064
1109.03,0.03493
1085.88,0.03450
1062.74,0.04532
1039.59,0.05072
1016.45,0.05872
993.304,0.06464
970.159,0.08770
947.014,0.11476
923.869,0.11414
900.724,0.09684
877.579,0.11730
854.434,0.12435
831.289,0.11612
808.144,0.11993
784.999,0.11746
761.854,0.10255
738.709,0.08871
715.565,0.07611
692.42,0.07289
669.275,0.06290
646.13,0.06300
622.985,0.05787
599.84,0.05964

File: Basswood_Panel_IS_S_220928_R7.dpt
7497.03,0.83010
7473.89,0.83111
7450.74,0.82440
7427.6,0.81771
7404.45,0.79547
7381.31,0.79700
7358.16,0.79500
7335.02,0.76353
7311.87,0.77907
7288.73,0.76741
7265.58,0.76554
7242.44,0.75947
7219.29,0.75602
7196.15,0.75340
7173,0.74750
7149.86,0.73382
7126.71,0.72591
7103.57,0.71286
7080.42,0.69587
7057.28,0.67546
7034.13,0.65525
7010.99,0.63593
6987.84,0.62548
6964.7,0.62146
6941.55,0.61589
6918.41,0.61625
6895.26,0.62075
6872.12,0.61772
6848.97,0.61367
6825.83,0.61361
6802.68,0.61759
6779.54,0.61803
6756.39,0.61459
6733.25,0.61907
6710.1,0.62153
6686.96,0.61990
6663.82,0.62114
6640.67,0.62490
6617.53,0.62643
6594.38,0.63391
6571.24,0.64148
6548.09,0.64104
6524.95,0.64146
6501.8,0.64224
6478.66,0.64476
6455.51,0.64746
6432.37,0.64416
6409.22,0.65196
6386.08,0.64991
6362.93,0.65452
6339.79,0.65149
6316.64,0.65460
6293.5,0.65838
6270.35,0.66229
6247.21,0.67254
6224.06,0.67979
6200.92,0.68386
6177.77,0.68863
6154.63,0.69151
6131.48,0.69986
6108.34,0.70249
6085.19,0.69725
6062.05,0.69834
6038.9,0.69283
6015.76,0.68773
5992.61,0.68124
5969.47,0.67751
5946.32,0.67082
5923.18,0.67326
5900.03,0.66715
5876.89,0.66218
5853.74,0.65645
5830.6,0.64893
5807.45,0.64374
5784.31,0.64608
5761.16,0.65264
5738.02,0.65974
5714.87,0.65869
5691.73,0.65566
5668.58,0.65656
5645.44,0.65818
5622.29,0.65835
5599.15,0.65741
5576,0.66090
5552.86,0.66484
5529.71,0.66549
5506.57,0.66662
5483.42,0.66664
5460.28,0.67225
5437.13,0.67432
5413.99,0.67948
5390.84,0.68165
5367.7,0.68057
5344.55,0.67905
5321.41,0.67102
5298.26,0.65053
5275.12,0.61727
5251.97,0.57677
5228.83,0.55072
5205.68,0.54228
5182.54,0.54261
5159.39,0.55199
5136.25,0.56322
5113.1,0.57571
5089.96,0.58653
5066.81,0.59772
5043.67,0.60371
5020.52,0.61016
4997.38,0.61000
4974.23,0.60276
4951.09,0.58785
4927.94,0.56796
4904.8,0.54522
4881.65,0.52615
4858.51,0.50519
4835.36,0.48951
4812.22,0.47854
4789.07,0.47226
4765.93,0.46927
4742.78,0.46819
4719.64,0.47048
4696.49,0.47495
4673.35,0.48164
4650.2,0.49201
4627.06,0.50190
4603.92,0.51043
4580.77,0.51782
4557.63,0.52370
4534.48,0.52724
4511.34,0.52727
4488.19,0.51506
4465.05,0.48545
4441.9,0.44981
4418.76,0.42548
4395.61,0.41704
4372.47,0.42363
4349.32,0.42286
4326.18,0.41675
4303.03,0.41076
4279.89,0.40472
4256.74,0.40633
4233.6,0.41150
4210.45,0.41523
4187.31,0.41703
4164.16,0.42337
4141.02,0.41985
4117.87,0.40693
4094.73,0.38862
4071.58,0.36689
4048.44,0.34634
4025.29,0.33237
4002.15,0.33320
3979,0.34004
3955.86,0.35108
3932.71,0.36292
3909.57,0.37405
3886.42,0.38489
3863.28,0.39563
3840.13,0.40693
3816.99,0.41227
3793.84,0.41289
3770.7,0.40956
3747.55,0.40383
3724.41,0.38893
3701.26,0.35965
3678.12,0.29944
3654.97,0.22256
3631.83,0.16485
3608.68,0.12095
3585.54,0.08957
3562.39,0.06960
3539.25,0.05716
3516.1,0.04855
3492.96,0.04338
3469.81,0.04033
3446.67,0.03846
3423.52,0.03730
3400.38,0.03798
3377.23,0.03761
3354.09,0.03867
3330.94,0.04030
3307.8,0.04304
3284.65,0.04532
3261.51,0.05185
3238.36,0.05785
3215.22,0.06669
3192.07,0.07486
3168.93,0.08480
3145.78,0.09506
3122.64,0.10510
3099.49,0.11403
3076.35,0.12212
3053.2,0.12970
3030.06,0.13135
3006.91,0.11811
2983.77,0.10178
2960.62,0.07539
2937.48,0.06300
2914.33,0.06320
2891.19,0.06848
2868.04,0.07361
2844.9,0.08704
2821.75,0.11927
2798.61,0.14110
2775.46,0.15026
2752.32,0.15497
2729.17,0.15712
2706.03,0.16636
2682.88,0.17656
2659.74,0.18327
2636.59,0.19007
2613.45,0.19833
2590.3,0.20534
2567.16,0.20888
2544.02,0.21087
2520.87,0.21588
2497.73,0.22472
2474.58,0.23369
2451.44,0.24135
2428.29,0.25270
2405.15,0.26508
2382,0.27566
2358.86,0.28466
2335.71,0.29253
2312.57,0.29567
2289.42,0.29397
2266.28,0.28944
2243.13,0.28200
2219.99,0.28377
2196.84,0.28037
2173.7,0.26334
2150.55,0.24955
2127.41,0.24727
2104.26,0.25341
2081.12,0.25882
2057.97,0.25824
2034.83,0.26326
2011.68,0.27688
1988.54,0.28652
1965.39,0.28553
1942.25,0.28987
1919.1,0.30169
1895.96,0.30372
1872.81,0.29877
1849.67,0.28575
1826.52,0.26259
1803.38,0.22105
1780.23,0.15332
1757.09,0.06092
1733.94,0.05066
1710.8,0.07506
1687.65,0.10225
1664.51,0.08557
1641.36,0.08425
1618.22,0.08000
1595.07,0.06267
1571.93,0.11080
1548.78,0.12513
1525.64,0.09892
1502.49,0.05886
1479.35,0.06812
1456.2,0.04606
1433.06,0.04442
1409.91,0.05066
1386.77,0.04417
1363.62,0.04330
1340.48,0.04397
1317.33,0.04405
1294.19,0.04731
1271.04,0.03805
1247.9,0.03601
1224.75,0.04054
1201.61,0.04583
1178.46,0.03723
1155.32,0.03701
1132.17,0.03113
1109.03,0.03435
1085.88,0.03497
1062.74,0.04502
1039.59,0.05073
1016.45,0.05845
993.304,0.06508
970.159,0.08742
947.014,0.11393
923.869,0.11425
900.724,0.09693
877.579,0.11741
854.434,0.12530
831.289,0.11609
808.144,0.12104
784.999,0.11704
761.854,0.10337
738.709,0.08910
715.565,0.07698
692.42,0.07417
669.275,0.06349
646.13,0.06364
622.985,0.05737
599.84,0.06279

File: Basswood_Panel_IS_S_220928_R8.dpt
7497.03,0.85897
7473.89,0.84176
7450.74,0.83138
7427.6,0.82345
7404.45,0.80149
7381.31,0.80399
7358.16,0.79695
7335.02,0.78429
7311.87,0.77941
7288.73,0.77374
7265.58,0.77567
7242.44,0.77782
7219.29,0.77429
7196.15,0.76802
7173,0.76071
7149.86,0.74719
7126.71,0.74021
7103.57,0.71527
7080.42,0.69740
7057.28,0.68334
7034.13,0.65956
7010.99,0.64866
6987.84,0.64178
6964.7,0.63047
6941.55,0.62640
6918.41,0.62349
6895.26,0.62070
6872.12,0.62468
6848.97,0.62196
6825.83,0.62398
6802.68,0.61469
6779.54,0.62081
6756.39,0.61646
6733.25,0.62491
6710.1,0.62436
6686.96,0.62083
6663.82,0.62985
6640.67,0.63089
6617.53,0.63756
6594.38,0.63997
6571.24,0.63731
6548.09,0.64689
6524.95,0.64866
6501.8,0.65155
6478.66,0.65105
6455.51,0.64971
6432.37,0.65555
6409.22,0.65417
6386.08,0.65860
6362.93,0.65834
6339.79,0.65949
6316.64,0.66137
6293.5,0.66767
6270.35,0.67301
6247.21,0.67820
6224.06,0.68523
6200.92,0.69014
6177.77,0.69304
6154.63,0.69698
6131.48,0.70187
6108.34,0.70589
6085.19,0.70953
6062.05,0.70323
6038.9,0.70054
6015.76,0.69383
5992.61,0.68818
5969.47,0.68255
5946.32,0.67750
5923.18,0.67658
5900.03,0.67320
5876.89,0.66662
5853.74,0.66035
5830.6,0.65401
5807.45,0.64978
5784.31,0.64882
5761.16,0.66264
5738.02,0.66526
5714.87,0.66595
5691.73,0.66187
5668.58,0.66264
5645.44,0.66449
5622.29,0.66570
5599.15,0.66432
5576,0.66785
5552.86,0.66974
5529.71,0.67231
5506.57,0.67147
5483.42,0.67454
5460.28,0.67660
5437.13,0.68275
5413.99,0.68598
5390.84,0.68782
5367.7,0.68885
5344.55,0.68561
5321.41,0.67899
5298.26,0.65785
5275.12,0.62395
5251.97,0.58428
5228.83,0.55876
5205.68,0.54923
5182.54,0.54987
5159.39,0.55940
5136.25,0.57129
5113.1,0.58156
5089.96,0.59254
5066.81,0.60225
5043.67,0.61171
5020.52,0.61540
4997.38,0.61557
4974.23,0.60977
4951.09,0.59349
4927.94,0.57402
4904.8,0.55019
4881.65,0.52799
4858.51,0.50995
4835.36,0.49430
4812.22,0.48273
4789.07,0.47575
4765.93,0.47284
4742.78,0.47113
4719.64,0.47378
4696.49,0.47869
4673.35,0.48478
4650.2,0.49607
4627.06,0.50562
4603.92,0.51564
4580.77,0.52302
4557.63,0.52780
4534.48,0.53250
4511.34,0.53084
4488.19,0.51818
4465.05,0.48846
4441.9,0.45294
4418.76,0.42845
4395.61,0.42066
4372.47,0.42750
4349.32,0.42631
4326.18,0.42077
4303.03,0.41287
4279.89,0.40685
4256.74,0.40927
4233.6,0.41454
4210.45,0.41824
4187.31,0.42122
4164.16,0.42682
4141.02,0.42278
4117.87,0.41030
4094.73,0.39191
4071.58,0.37034
4048.44,0.34791
4025.29,0.33492
4002.15,0.33649
3979,0.34244
3955.86,0.35370
3932.71,0.36580
3909.57,0.37751
3886.42,0.38828
3863.28,0.39909
3840.13,0.41107
3816.99,0.41607
3793.84,0.41624
3770.7,0.41342
3747.55,0.40692
3724.41,0.39332
3701.26,0.36310
3678.12,0.30458
3654.97,0.22695
3631.83,0.16840
3608.68,0.12345
3585.54,0.09038
3562.39,0.06978
3539.25,0.05682
3516.1,0.04873
3492.96,0.04294
3469.81,0.03945
3446.67,0.03801
3423.52,0.03793
3400.38,0.03784
3377.23,0.03808
3354.09,0.03795
3330.94,0.04022
3307.8,0.04334
3284.65,0.04581
3261.51,0.05131
3238.36,0.05987
3215.22,0.06685
3192.07,0.07570
3168.93,0.08567
3145.78,0.09597
3122.64,0.10561
3099.49,0.11467
3076.35,0.12308
3053.2,0.13022
3030.06,0.13188
3006.91,0.11946
2983.77,0.10215
2960.62,0.07539
2937.48,0.06336
2914.33,0.06320
2891.19,0.06860
2868.04,0.07418
2844.9,0.08659
2821.75,0.11998
2798.61,0.14155
2775.46,0.15101
2752.32,0.15598
2729.17,0.15835
2706.03,0.16738
2682.88,0.17780
2659.74,0.18447
2636.59,0.19138
2613.45,0.19986
2590.3,0.20620
2567.16,0.20974
2544.02,0.21251
2520.87,0.21718
2497.73,0.22617
2474.58,0.23502
2451.44,0.24253
2428.29,0.25350
2405.15,0.26640
2382,0.27702
2358.86,0.28633
2335.71,0.29437
2312.57,0.29780
2289.42,0.29560
2266.28,0.29135
2243.13,0.28360
2219.99,0.28567
2196.84,0.28203
2173.7,0.26518
2150.55,0.25125
2127.41,0.24949
2104.26,0.25519
2081.12,0.26074
2057.97,0.26007
2034.83,0.26498
2011.68,0.27859
1988.54,0.28857
1965.39,0.28766
1942.25,0.29232
1919.1,0.30367
1895.96,0.30596
1872.81,0.30065
1849.67,0.28792
1826.52,0.26395
1803.38,0.22300
1780.23,0.15379
1757.09,0.06064
1733.94,0.05061
1710.8,0.07561
1687.65,0.10287
1664.51,0.08574
1641.36,0.08527
1618.22,0.08003
1595.07,0.06299
1571.93,0.11108
1548.78,0.12537
1525.64,0.09935
1502.49,0.05915
1479.35,0.06814
1456.2,0.04622
1433.06,0.04470
1409.91,0.05096
1386.77,0.04430
1363.62,0.04302
1340.48,0.04388
1317.33,0.04402
1294.19,0.04702
1271.04,0.03827
1247.9,0.03595
1224.75,0.04025
1201.61,0.04568
1178.46,0.03735
1155.32,0.03710
1132.17,0.03068
1109.03,0.03474
1085.88,0.03473
1062.74,0.04432
1039.59,0.05150
1016.45,0.05890
993.304,0.06450
970.159,0.08723
947.014,0.11487
923.869,0.11429
900.724,0.09669
877.579,0.11793
854.434,0.12500
831.289,0.11797
808.144,0.12223
784.999,0.11835
761.854,0.10363
738.709,0.08860
715.565,0.07684
692.42,0.07304
669.275,0.06351
646.13,0.06385
622.985,0.05824
599.84,0.05953