Folder: fsri_materials_database/01_Data/Basswood_Panel/FTIR/IS

Note: README.md
# Materials and Products Database
### Repository of materials and products properties and fire test data to improve fire modeling and fire investigation.

This project was supported in part by Award No. 2019-DU-BX-0018, awarded by the National Institute of Justice, Office of Justice Programs, U.S. Department of Justice. The opinions, findings, and conclusions or recommendations expressed in this publication / program / exhibition are those of the author(s) and do not necessarily reflect those of the Department of Justice.

***
***

__Cite this database:__ "McKinnon, M., Weinschenk, C., Dow, N., DiDomizio, M., and Madrzykowski, D. Materials and Products Database (Version 1.0.0), Fire Safety Research Institute, UL Research Institutes. Columbia, MD 21045, 2023."

__Cite the Technical Reference Guide:__ "McKinnon, M., Weinschenk, C., and Madrzykowski, D. Materials and Products Database - Technical Reference Guide, Fire Safety Research Institute, UL Research Institutes. Columbia, MD 21045, 2023."

__Cite the User Guide:__ "McKinnon, M., and Weinschenk, C. Materials and Products Database - User Guide, Fire Safety Research Institute, UL Research Institutes. Columbia, MD 21045, 2023."

***
***

## Database Structure

## 01_Data/
Raw data generated from each apparatus are included here in plain-text format. The data is organized first by material, next by the short name of test apparatus used, and where applicable additional filtering by test settings.

### Test Apparatus and Data File Structure
- __Cone Calorimeter__ (Cone)
    + Data file structure includes the material, the short name for the apparatus, heat flux setting and scan/scalar, date of test, and replicate number. Scan is for the raw output data and scalar is for the initial conditions and high-level test parameters. 
        * Example: __MDF_Cone_HF25scalar_210323_R1__ stands for the first replicate of scalar data generated from a medium density fiber board test in cone calorimeter exposed to 25 kW/m<sup>2</sup> on March 23, 2021.
    + A _Cone_Notes.csv_ is generated for each material from the __plot_Cone_data.py__ script. For materials whose experiments deviated from typical behavior relevant pictures are included in the respective material directory.
- __Fourier Transform Infrared Spectrometer__ (FTIR)
    + The FTIR directory contains subdirectories for the Attenuated Total Reflectance method (ATR) and the Integrating Sphere (IS)
    + Data file structure for the ATR experiment files includes the material, the abbreviated name for the apparatus, date of test, and replicate number. 
        * Example: __MDF_ATR_210323_R5__ stands for the fifth replicate of data collected with the ATR accessory conducted on June 8, 2021.
    + Data file structure for the IS experiment files includes the material, the abbreviated name for the apparatus, the measurand, whether the test is a sample measurement or standard reference, date of test, and replicate number.
        * Example: __OSB_IS_REFLECT_MEAS_2

File: Basswood_Panel_IS_S_220928_R1.dpt
7497.03,0.83735
7473.89,0.81168
7450.74,0.81630
7427.6,0.80826
7404.45,0.79760
7381.31,0.78696
7358.16,0.77394
7335.02,0.76904
7311.87,0.76389
7288.73,0.75583
7265.58,0.76293
7242.44,0.76596
7219.29,0.76307
7196.15,0.74539
7173,0.74456
7149.86,0.73159
7126.71,0.71911
7103.57,0.70491
7080.42,0.68413
7057.28,0.66577
7034.13,0.64635
7010.99,0.63417
6987.84,0.61686
6964.7,0.60952
6941.55,0.61182
6918.41,0.61471
6895.26,0.60342
6872.12,0.60545
6848.97,0.61357
6825.83,0.60457
6802.68,0.60781
6779.54,0.60327
6756.39,0.60585
6733.25,0.60293
6710.1,0.60759
6686.96,0.61119
6663.82,0.61093
6640.67,0.61889
6617.53,0.62284
6594.38,0.62490
6571.24,0.63008
6548.09,0.63241
6524.95,0.63637
6501.8,0.63782
6478.66,0.64135
6455.51,0.64094
6432.37,0.64197
6409.22,0.64327
6386.08,0.64155
6362.93,0.64899
6339.79,0.64980
6316.64,0.65055
6293.5,0.65466
6270.35,0.65772
6247.21,0.66277
6224.06,0.67235
6200.92,0.67718
6177.77,0.68426
6154.63,0.68584
6131.48,0.68955
6108.34,0.69534
6085.19,0.69296
6062.05,0.69075
6038.9,0.68874
6015.76,0.68615
5992.61,0.67676
5969.47,0.67385
5946.32,0.67030
5923.18,0.66511
5900.03,0.66285
5876.89,0.65820
5853.74,0.65300
5830.6,0.65059
5807.45,0.63885
5784.31,0.64488
5761.16,0.65076
5738.02,0.65433
5714.87,0.65535
5691.73,0.65200
5668.58,0.65253
5645.44,0.65393
5622.29,0.65545
5599.15,0.65553
5576,0.65684
5552.86,0.65746
5529.71,0.66074
5506.57,0.66083
5483.42,0.66320
5460.28,0.66634
5437.13,0.67142
5413.99,0.67472
5390.84,0.67634
5367.7,0.67546
5344.55,0.67050
5321.41,0.66115
5298.26,0.63441
5275.12,0.59098
5251.97,0.54565
5228.83,0.51697
5205.68,0.50429
5182.54,0.50670
5159.39,0.51478
5136.25,0.53050
5113.1,0.54384
5089.96,0.55538
5066.81,0.56757
5043.67,0.57809
5020.52,0.58600
4997.38,0.58993
4974.23,0.58712
4951.09,0.57758
4927.94,0.56065
4904.8,0.54063
4881.65,0.52136
4858.51,0.50244
4835.36,0.48710
4812.22,0.47644
4789.07,0.47075
4765.93,0.46658
4742.78,0.46559
4719.64,0.46760
4696.49,0.47179
4673.35,0.47777
4650.2,0.48842
4627.06,0.49854
4603.92,0.50747
4580.77,0.51483
4557.63,0.51923
4534.48,0.52359
4511.34,0.52306
4488.19,0.51133
4465.05,0.48236
4441.9,0.44804
4418.76,0.42338
4395.61,0.41649
4372.47,0.42315
4349.32,0.42170
4326.18,0.41548
4303.03,0.40940
4279.89,0.40287
4256.74,0.40356
4233.6,0.40935
4210.45,0.41243
4187.31,0.41464
4164.16,0.41841
4141.02,0.41476
4117.87,0.40162
4094.73,0.38408
4071.58,0.36225
4048.44,0.34194
4025.29,0.32831
4002.15,0.32969
3979,0.33523
3955.86,0.34509
3932.71,0.35640
3909.57,0.36785
3886.42,0.37738
3863.28,0.38831
3840.13,0.39842
3816.99,0.40171
3793.84,0.40057
3770.7,0.39507
3747.55,0.38710
3724.41,0.36854
3701.26,0.33461
3678.12,0.26847
3654.97,0.18830
3631.83,0.13647
3608.68,0.10194
3585.54,0.07900
3562.39,0.06329
3539.25,0.05345
3516.1,0.04654
3492.96,0.04196
3469.81,0.03896
3446.67,0.03676
3423.52,0.03695
3400.38,0.03658
3377.23,0.03723
3354.09,0.03756
3330.94,0.04010
3307.8,0.04211
3284.65,0.04387
3261.51,0.04922
3238.36,0.05592
3215.22,0.06207
3192.07,0.07030
3168.93,0.07844
3145.78,0.08782
3122.64,0.09683
3099.49,0.10523
3076.35,0.11321
3053.2,0.12107
3030.06,0.12336
3006.91,0.11375
2983.77,0.09947
2960.62,0.07507
2937.48,0.06263
2914.33,0.06294
2891.19,0.06822
2868.04,0.07343
2844.9,0.08563
2821.75,0.11723
2798.61,0.13735
2775.46,0.14687
2752.32,0.15158
2729.17,0.15442
2706.03,0.16273
2682.88,0.17318
2659.74,0.17990
2636.59,0.18686
2613.45,0.19533
2590.3,0.20220
2567.16,0.20553
2544.02,0.20780
2520.87,0.21255
2497.73,0.22145
2474.58,0.23059
2451.44,0.23836
2428.29,0.24912
2405.15,0.26131
2382,0.27079
2358.86,0.27907
2335.71,0.28636
2312.57,0.28857
2289.42,0.28645
2266.28,0.28128
2243.13,0.27348
2219.99,0.27374
2196.84,0.26949
2173.7,0.25329
2150.55,0.23996
2127.41,0.23745
2104.26,0.24320
2081.12,0.24796
2057.97,0.24748
2034.83,0.25229
2011.68,0.26563
1988.54,0.27504
1965.39,0.27549
1942.25,0.28035
1919.1,0.29188
1895.96,0.29419
1872.81,0.28967
1849.67,0.27734
1826.52,0.25591
1803.38,0.21746
1780.23,0.15448
1757.09,0.06236
1733.94,0.04977
1710.8,0.07296
1687.65,0.09725
1664.51,0.07836
1641.36,0.07636
1618.22,0.07506
1595.07,0.06166
1571.93,0.10806
1548.78,0.12097
1525.64,0.09732
1502.49,0.05927
1479.35,0.06742
1456.2,0.04611
1433.06,0.04440
1409.91,0.05091
1386.77,0.04393
1363.62,0.04338
1340.48,0.04400
1317.33,0.04386
1294.19,0.04721
1271.04,0.03848
1247.9,0.03598
1224.75,0.04062
1201.61,0.04581
1178.46,0.03747
1155.32,0.03680
1132.17,0.03105
1109.03,0.03456
1085.88,0.03464
1062.74,0.04438
1039.59,0.05114
1016.45,0.05868
993.304,0.06471
970.159,0.08650
947.014,0.11252
923.869,0.11186
900.724,0.09393
877.579,0.11359
854.434,0.11897
831.289,0.11024
808.144,0.11221
784.999,0.10750
761.854,0.09435
738.709,0.08149
715.565,0.07280
692.42,0.06935
669.275,0.06124
646.13,0.06039
622.985,0.05611
599.84,0.05866

File: Basswood_Panel_IS_S_220928_R2.dpt
7497.03,0.84858
7473.89,0.82582
7450.74,0.83337
7427.6,0.81754
7404.45,0.80206
7381.31,0.79777
7358.16,0.78504
7335.02,0.78751
7311.87,0.77715
7288.73,0.77734
7265.58,0.77246
7242.44,0.76807
7219.29,0.76990
7196.15,0.75584
7173,0.74686
7149.86,0.73831
7126.71,0.72884
7103.57,0.70686
7080.42,0.69239
7057.28,0.66457
7034.13,0.65388
7010.99,0.63852
6987.84,0.63215
6964.7,0.62607
6941.55,0.61787
6918.41,0.61819
6895.26,0.61730
6872.12,0.62230
6848.97,0.61390
6825.83,0.61099
6802.68,0.61590
6779.54,0.61328
6756.39,0.61345
6733.25,0.61353
6710.1,0.62095
6686.96,0.61840
6663.82,0.62051
6640.67,0.62406
6617.53,0.63194
6594.38,0.63705
6571.24,0.64303
6548.09,0.64050
6524.95,0.64183
6501.8,0.63944
6478.66,0.64498
6455.51,0.64642
6432.37,0.64686
6409.22,0.65118
6386.08,0.64728
6362.93,0.65359
6339.79,0.65399
6316.64,0.65672
6293.5,0.65688
6270.35,0.66404
6247.21,0.67026
6224.06,0.67704
6200.92,0.68204
6177.77,0.68744
6154.63,0.69345
6131.48,0.69650
6108.34,0.70015
6085.19,0.70307
6062.05,0.69820
6038.9,0.69577
6015.76,0.68981
5992.61,0.68446
5969.47,0.68036
5946.32,0.67404
5923.18,0.67385
5900.03,0.66800
5876.89,0.66107
5853.74,0.65737
5830.6,0.65295
5807.45,0.64693
5784.31,0.64918
5761.16,0.65641
5738.02,0.65933
5714.87,0.66121
5691.73,0.65779
5668.58,0.65680
5645.44,0.65776
5622.29,0.66206
5599.15,0.65865
5576,0.65985
5552.86,0.66530
5529.71,0.66603
5506.57,0.66863
5483.42,0.66904
5460.28,0.67005
5437.13,0.67613
5413.99,0.67977
5390.84,0.68124
5367.7,0.68043
5344.55,0.67771
5321.41,0.66438
5298.26,0.64280
5275.12,0.60241
5251.97,0.55859
5228.83,0.53104
5205.68,0.51983
5182.54,0.52118
5159.39,0.52969
5136.25,0.54393
5113.1,0.55807
5089.96,0.56916
5066.81,0.57909
5043.67,0.58913
5020.52,0.59669
4997.38,0.59963
4974.23,0.59524
4951.09,0.58442
4927.94,0.56551
4904.8,0.54535
4881.65,0.52437
4858.51,0.50686
4835.36,0.49087
4812.22,0.47925
4789.07,0.47376
4765.93,0.46932
4742.78,0.46799
4719.64,0.47143
4696.49,0.47431
4673.35,0.48106
4650.2,0.49231
4627.06,0.50108
4603.92,0.51083
4580.77,0.51795
4557.63,0.52315
4534.48,0.52710
4511.34,0.52711
4488.19,0.51471
4465.05,0.48482
4441.9,0.45115
4418.76,0.42651
4395.61,0.41819
4372.47,0.42435
4349.32,0.42405
4326.18,0.41734
4303.03,0.41140
4279.89,0.40444
4256.74,0.40655
4233.6,0.41142
4210.45,0.41470
4187.31,0.41702
4164.16,0.42225
4141.02,0.41768
4117.87,0.40520
4094.73,0.38692
4071.58,0.36558
4048.44,0.34522
4025.29,0.33156
4002.15,0.33209
3979,0.33849
3955.86,0.34828
3932.71,0.36059
3909.57,0.37165
3886.42,0.38141
3863.28,0.39177
3840.13,0.40300
3816.99,0.40656
3793.84,0.40610
3770.7,0.40163
3747.55,0.39324
3724.41,0.37706
3701.26,0.34416
3678.12,0.28076
3654.97,0.20191
3631.83,0.14619
3608.68,0.10952
3585.54,0.08299
3562.39,0.06589
3539.25,0.05489
3516.1,0.04751
3492.96,0.04297
3469.81,0.03987
3446.67,0.03738
3423.52,0.03763
3400.38,0.03697
3377.23,0.03741
3354.09,0.03724
3330.94,0.03895
3307.8,0.04283
3284.65,0.04547
3261.51,0.05014
3238.36,0.05707
3215.22,0.06400
3192.07,0.07264
3168.93,0.08121
3145.78,0.09102
3122.64,0.09973
3099.49,0.10953
3076.35,0.11692
3053.2,0.12434
3030.06,0.12625
3006.91,0.11594
2983.77,0.10041
2960.62,0.07470
2937.48,0.06309
2914.33,0.06276
2891.19,0.06857
2868.04,0.07315
2844.9,0.08636
2821.75,0.11861
2798.61,0.13904
2775.46,0.14850
2752.32,0.15321
2729.17,0.15580
2706.03,0.16508
2682.88,0.17448
2659.74,0.18204
2636.59,0.18892
2613.45,0.19690
2590.3,0.20372
2567.16,0.20730
2544.02,0.20955
2520.87,0.21438
2497.73,0.22279
2474.58,0.23191
2451.44,0.23995
2428.29,0.25072
2405.15,0.26309
2382,0.27326
2358.86,0.28165
2335.71,0.28920
2312.57,0.29207
2289.42,0.28950
2266.28,0.28484
2243.13,0.27719
2219.99,0.27836
2196.84,0.27435
2173.7,0.25766
2150.55,0.24460
2127.41,0.24209
2104.26,0.24745
2081.12,0.25258
2057.97,0.25222
2034.83,0.25676
2011.68,0.27049
1988.54,0.27957
1965.39,0.27996
1942.25,0.28424
1919.1,0.29614
1895.96,0.29865
1872.81,0.29367
1849.67,0.28112
1826.52,0.25888
1803.38,0.21933
1780.23,0.15398
1757.09,0.06174
1733.94,0.04985
1710.8,0.07395
1687.65,0.09920
1664.51,0.08172
1641.36,0.07950
1618.22,0.07691
1595.07,0.06190
1571.93,0.10915
1548.78,0.12287
1525.64,0.09785
1502.49,0.05913
1479.35,0.06772
1456.2,0.04590
1433.06,0.04449
1409.91,0.05107
1386.77,0.04434
1363.62,0.04320
1340.48,0.04355
1317.33,0.04391
1294.19,0.04678
1271.04,0.03828
1247.9,0.03595
1224.75,0.04033
1201.61,0.04592
1178.46,0.03730
1155.32,0.03708
1132.17,0.03073
1109.03,0.03494
1085.88,0.03490
1062.74,0.04493
1039.59,0.05127
1016.45,0.05824
993.304,0.06461
970.159,0.08700
947.014,0.11351
923.869,0.11302
900.724,0.09494
877.579,0.11568
854.434,0.12194
831.289,0.11215
808.144,0.11536
784.999,0.11202
761.854,0.09855
738.709,0.08498
715.565,0.07376
692.42,0.07196
669.275,0.06227
646.13,0.06131
622.985,0.05454
599.84,0.05862

File: Basswood_Panel_IS_S_220928_R3.dpt
7497.03,0.84367
7473.89,0.83922
7450.74,0.81626
7427.6,0.80676
7404.45,0.80725
7381.31,0.80085
7358.16,0.79811
7335.02,0.78007
7311.87,0.77125
7288.73,0.76616
7265.58,0.77400
7242.44,0.76786
7219.29,0.76635
7196.15,0.75754
7173,0.75249
7149.86,0.73983
7126.71,0.72502
7103.57,0.70683
7080.42,0.68854
7057.28,0.67089
7034.13,0.66031
7010.99,0.64138
6987.84,0.63087
6964.7,0.62580
6941.55,0.61718
6918.41,0.61674
6895.26,0.61764
6872.12,0.62036
6848.97,0.61775
6825.83,0.61522
6802.68,0.61511
6779.54,0.61582
6756.39,0.61904
6733.25,0.61436
6710.1,0.61270
6686.96,0.61967
6663.82,0.62244
6640.67,0.63032
6617.53,0.62953
6594.38,0.63522
6571.24,0.63414
6548.09,0.64180
6524.95,0.64170
6501.8,0.64429
6478.66,0.64838
6455.51,0.64965
6432.37,0.64671
6409.22,0.65192
6386.08,0.64953
6362.93,0.65221
6339.79,0.65315
6316.64,0.65503
6293.5,0.65604
6270.35,0.66315
6247.21,0.67265
6224.06,0.67856
6200.92,0.68547
6177.77,0.68917
6154.63,0.69492
6131.48,0.69842
6108.34,0.69887
6085.19,0.70009
6062.05,0.69970
6038.9,0.69654
6015.76,0.68868
5992.61,0.68408
5969.47,0.67998
5946.32,0.67422
5923.18,0.67232
5900.03,0.66895
5876.89,0.65859
5853.74,0.65713
5830.6,0.65318
5807.45,0.64220
5784.31,0.64711
5761.16,0.65514
5738.02,0.65831
5714.87,0.66095
5691.73,0.65879
5668.58,0.65609
5645.44,0.65808
5622.29,0.66025
5599.15,0.66132
5576,0.65899
5552.86,0.66363
5529.71,0.66347
5506.57,0.66573
5483.42,0.66793
5460.28,0.67130
5437.13,0.67568
5413.99,0.68069
5390.84,0.68054
5367.7,0.68038
5344.55,0.67735
5321.41,0.66651
5298.26,0.64604
5275.12,0.60610
5251.97,0.56344
5228.83,0.53548
5205.68,0.52636
5182.54,0.52752
5159.39,0.53787
5136.25,0.54881
5113.1,0.56253
5089.96,0.57428
5066.81,0.58445
5043.67,0.59272
5020.52,0.60039
4997.38,0.60255
4974.23,0.59886
4951.09,0.58487
4927.94,0.56530
4904.8,0.54416
4881.65,0.52433
4858.51,0.50622
4835.36,0.49143
4812.22,0.47906
4789.07,0.47190
4765.93,0.46928
4742.78,0.46773
4719.64,0.47052
4696.49,0.47382
4673.35,0.48158
4650.2,0.49156
4627.06,0.50095
4603.92,0.51046
4580.77,0.51795
4557.63,0.52331
4534.48,0.52644
4511.34,0.52692
4488.19,0.51362
4465.05,0.48574
4441.9,0.44992
4418.76,0.42459
4395.61,0.41699
4372.47,0.42380
4349.32,0.42337
4326.18,0.41662
4303.03,0.41027
4279.89,0.40368
4256.74,0.40604
4233.6,0.41125
4210.45,0.41403
4187.31,0.41733
4164.16,0.42249
4141.02,0.41827
4117.87,0.40559
4094.73,0.38717
4071.58,0.36544
4048.44,0.34476
4025.29,0.33096
4002.15,0.33263
3979,0.33857
3955.86,0.34901
3932.71,0.36096
3909.57,0.37232
3886.42,0.38205
3863.28,0.39306
3840.13,0.40470
3816.99,0.40807
3793.84,0.40782
3770.7,0.40419
3747.55,0.39537
3724.41,0.38054
3701.26,0.34925
3678.12,0.28583
3654.97,0.20712
3631.83,0.15261
3608.68,0.11302
3585.54,0.08558
3562.39,0.06745
3539.25,0.05586
3516.1,0.04768
3492.96,0.04289
3469.81,0.03991
3446.67,0.03811
3423.52,0.03762
3400.38,0.03703
3377.23,0.03720
3354.09,0.03800
3330.94,0.03908
3307.8,0.04265
3284.65,0.04509
3261.51,0.05086
3238.36,0.05740
3215.22,0.06430
3192.07,0.07385
3168.93,0.08190
3145.78,0.09205
3122.64,0.10145
3099.49,0.11108
3076.35,0.11871
3053.2,0.12635
3030.06,0.12843
3006.91,0.11646
2983.77,0.10062
2960.62,0.07527
2937.48,0.06313
2914.33,0.06325
2891.19,0.06809
2868.04,0.07367
2844.9,0.08581
2821.75,0.11853
2798.61,0.13910
2775.46,0.14916
2752.32,0.15358
2729.17,0.15595
2706.03,0.16506
2682.88,0.17477
2659.74,0.18176
2636.59,0.18904
2613.45,0.19752
2590.3,0.20422
2567.16,0.20773
2544.02,0.20961
2520.87,0.21496
2497.73,0.22336
2474.58,0.23246
2451.44,0.23996
2428.29,0.25055
2405.15,0.26362
2382,0.27383
2358.86,0.28211
2335.71,0.29006
2312.57,0.29295
2289.42,0.29060
2266.28,0.28607
2243.13,0.27868
2219.99,0.27949
2196.84,0.27588
2173.7,0.25898
2150.55,0.24557
2127.41,0.24322
2104.26,0.24903
2081.12,0.25389
2057.97,0.25382
2034.83,0.25853
2011.68,0.27222
1988.54,0.28176
1965.39,0.28131
1942.25,0.28604
1919.1,0.29774
1895.96,0.29970
1872.81,0.29502
1849.67,0.28216
1826.52,0.25975
1803.38,0.21962
1780.23,0.15373
1757.09,0.06153
1733.94,0.05050
1710.8,0.07409
1687.65,0.10037
1664.51,0.08277
1641.36,0.08081
1618.22,0.07818
1595.07,0.06215
1571.93,0.10994
1548.78,0.12357
1525.64,0.09803
1502.49,0.05902
1479.35,0.06740
1456.2,0.04629
1433.06,0.04444
1409.91,0.05059
1386.77,0.04398
1363.62,0.04291
1340.48,0.04371
1317.33,0.04394
1294.19,0.04707
1271.04,0.03839
1247.9,0.03612
1224.75,0.04055
1201.61,0.04600
1178.46,0.03774
1155.32,0.03714
1132.17,0.03083
1109.03,0.03466
1085.88,0.03472
1062.74,0.04442
1039.59,0.05053
1016.45,0.05757
993.304,0.06523
970.159,0.08730
947.014,0.11404
923.869,0.11347
900.724,0.09578
877.579,0.11663
854.434,0.12228
831.289,0.11344
808.144,0.11698
784.999,0.11423
761.854,0.09968
738.709,0.08622
715.565,0.07447
692.42,0.07241
669.275,0.06277
646.13,0.06267
622.985,0.05690
599.84,0.06104

File: Basswood_Panel_IS_S_220928_R4.dpt
7497.03,0.84078
7473.89,0.83751
7450.74,0.81641
7427.6,0.80752
7404.45,0.80971
7381.31,0.78892
7358.16,0.79342
7335.02,0.78064
7311.87,0.77113
7288.73,0.77807
7265.58,0.76781
7242.44,0.77089
7219.29,0.77490
7196.15,0.75539
7173,0.74967
7149.86,0.73565
7126.71,0.72689
7103.57,0.70845
7080.42,0.69351
7057.28,0.66647
7034.13,0.65495
7010.99,0.63804
6987.84,0.63019
6964.7,0.62354
6941.55,0.62019
6918.41,0.61690
6895.26,0.62006
6872.12,0.61944
6848.97,0.61810
6825.83,0.61835
6802.68,0.61320
6779.54,0.61391
6756.39,0.61632
6733.25,0.61700
6710.1,0.62275
6686.96,0.62210
6663.82,0.62174
6640.67,0.62726
6617.53,0.63012
6594.38,0.64371
6571.24,0.64277
6548.09,0.64047
6524.95,0.64591
6501.8,0.64944
6478.66,0.64765
6455.51,0.64967
6432.37,0.65038
6409.22,0.65353
6386.08,0.65504
6362.93,0.65501
6339.79,0.65759
6316.64,0.65562
6293.5,0.66430
6270.35,0.66658
6247.21,0.67101
6224.06,0.67909
6200.92,0.68508
6177.77,0.68946
6154.63,0.69541
6131.48,0.69807
6108.34,0.70211
6085.19,0.70224
6062.05,0.70197
6038.9,0.69731
6015.76,0.69075
5992.61,0.68421
5969.47,0.67948
5946.32,0.67390
5923.18,0.67444
5900.03,0.67127
5876.89,0.66190
5853.74,0.66007
5830.6,0.65285
5807.45,0.64482
5784.31,0.64760
5761.16,0.65702
5738.02,0.66218
5714.87,0.65938
5691.73,0.65972
5668.58,0.65762
5645.44,0.66085
5622.29,0.66137
5599.15,0.66293
5576,0.66228
5552.86,0.66399
5529.71,0.66889
5506.57,0.66876
5483.42,0.67098
5460.28,0.67113
5437.13,0.67798
5413.99,0.68300
5390.84,0.68496
5367.7,0.68297
5344.55,0.68072
5321.41,0.67272
5298.26,0.64835
5275.12,0.61348
5251.97,0.57284
5228.83,0.54441
5205.68,0.53278
5182.54,0.53550
5159.39,0.54541
5136.25,0.55872
5113.1,0.56986
5089.96,0.58178
5066.81,0.59204
5043.67,0.60119
5020.52,0.60605
4997.38,0.60691
4974.23,0.60144
4951.09,0.58783
4927.94,0.56813
4904.8,0.54659
4881.65,0.52573
4858.51,0.50661
4835.36,0.49226
4812.22,0.48008
4789.07,0.47521
4765.93,0.47053
4742.78,0.47026
4719.64,0.47249
4696.49,0.47519
4673.35,0.48179
4650.2,0.49383
4627.06,0.50337
4603.92,0.51186
4580.77,0.51891
4557.63,0.52465
4534.48,0.52877
4511.34,0.52894
4488.19,0.51583
4465.05,0.48622
4441.9,0.45143
4418.76,0.42703
4395.61,0.41931
4372.47,0.42585
4349.32,0.42417
4326.18,0.41780
4303.03,0.41150
4279.89,0.40522
4256.74,0.40806
4233.6,0.41327
4210.45,0.41599
4187.31,0.41855
4164.16,0.42368
4141.02,0.42000
4117.87,0.40740
4094.73,0.38849
4071.58,0.36813
4048.44,0.34693
4025.29,0.33325
4002.15,0.33388
3979,0.33962
3955.86,0.35094
3932.71,0.36341
3909.57,0.37424
3886.42,0.38474
3863.28,0.39540
3840.13,0.40635
3816.99,0.41109
3793.84,0.41084
3770.7,0.40771
3747.55,0.40091
3724.41,0.38552
3701.26,0.35429
3678.12,0.29318
3654.97,0.21469
3631.83,0.15790
3608.68,0.11605
3585.54,0.08707
3562.39,0.06843
3539.25,0.05580
3516.1,0.04867
3492.96,0.04324
3469.81,0.03958
3446.67,0.03829
3423.52,0.03745
3400.38,0.03775
3377.23,0.03657
3354.09,0.03818
3330.94,0.04048
3307.8,0.04246
3284.65,0.04489
3261.51,0.05051
3238.36,0.05740
3215.22,0.06578
3192.07,0.07360
3168.93,0.08407
3145.78,0.09400
3122.64,0.10296
3099.49,0.11268
3076.35,0.12014
3053.2,0.12804
3030.06,0.12915
3006.91,0.11760
2983.77,0.10141
2960.62,0.07537
2937.48,0.06341
2914.33,0.06317
2891.19,0.06784
2868.04,0.07342
2844.9,0.08640
2821.75,0.11927
2798.61,0.14026
2775.46,0.14951
2752.32,0.15459
2729.17,0.15689
2706.03,0.16572
2682.88,0.17625
2659.74,0.18254
2636.59,0.18985
2613.45,0.19830
2590.3,0.20505
2567.16,0.20851
2544.02,0.21045
2520.87,0.21600
2497.73,0.22447
2474.58,0.23353
2451.44,0.24116
2428.29,0.25182
2405.15,0.26465
2382,0.27541
2358.86,0.28345
2335.71,0.29166
2312.57,0.29488
2289.42,0.29263
2266.28,0.28798
2243.13,0.28058
2219.99,0.28218
2196.84,0.27832
2173.7,0.26145
2150.55,0.24778
2127.41,0.24584
2104.26,0.25144
2081.12,0.25693
2057.97,0.25599
2034.83,0.26089
2011.68,0.27465
1988.54,0.28442
1965.39,0.28376
1942.25,0.28848
1919.1,0.30016
1895.96,0.30228
1872.81,0.29715
1849.67,0.28476
1826.52,0.26183
1803.38,0.22105
1780.23,0.15393
1757.09,0.06183
1733.94,0.05055
1710.8,0.07462
1687.65,0.10142
1664.51,0.08356
1641.36,0.08288
1618.22,0.07889
1595.07,0.06198
1571.93,0.11044
1548.78,0.12449
1525.64,0.09913
1502.49,0.05920
1479.35,0.06785
1456.2,0.04634
1433.06,0.04465
1409.91,0.05063
1386.77,0.04392
1363.62,0.04317
1340.48,0.04368
1317.33,0.04419
1294.19,0.04736
1271.04,0.03815
1247.9,0.03567
1224.75,0.04022
1201.61,0.04545
1178.46,0.03709
1155.32,0.03686
1132.17,0.03063
1109.03,0.03474
1085.88,0.03525
1062.74,0.04503
1039.59,0.05056
1016.45,0.05791
993.304,0.06495
970.159,0.08706
947.014,0.11421
923.869,0.11358
900.724,0.09586
877.579,0.11671
854.434,0.12334
831.289,0.11463
808.144,0.11890
784.999,0.11643
761.854,0.10146
738.709,0.08707
715.565,0.07534
692.42,0.07234
669.275,0.06318
646.13,0.06295
622.985,0.05485
599.84,0.06108