Folder: fsri_materials_database/01_Data/Bamboo_Rug_Fabric/MCC (part 2)

File: Bamboo_Rug_Fabric_MCC_30K_min_211129_R3.txt
Sample ID:	C:\MCC\MCC Cal\Test\Bamboo_RugB_MCC_30K_min_211129_R3.txt
Sample Weight (mg):	4.89
Heating Rate (C/s):	0.5
Combustor Temp (C):	900
N2 Flow Rate (cc/min):	80
O2 Flow Rate (cc/min):	20
Calibration File:	C:\MCC\MCC Cal\Coeff1 JN10440_30_210304.txt.txt
T Correction Coefficients:	0	1.024463	0
Time Shift (s):	14
*
Time (s)	Temperature (C)	N2 flow rate (cc/min)	O2 flow rate (cc/min)	Flow Rate (cc/min)	Oxygen (%)	HRR (W/g)	Heating rate (C/s)
0.000	110.763	80.003	19.995	103.120	20.248	-0.007	0.022
8.000	110.738	80.003	19.994	103.137	20.250	-0.137	-0.017
16.000	110.767	80.005	19.996	103.138	20.248	0.025	0.030
24.000	110.857	80.005	19.997	103.174	20.240	0.504	0.012
32.000	111.177	80.005	19.994	103.295	20.226	1.476	0.086
39.999	111.956	80.006	19.994	103.284	20.222	1.730	0.116
47.999	113.121	80.003	19.995	103.322	20.215	2.191	0.194
55.999	114.625	80.002	19.995	103.359	20.210	2.498	0.216
63.999	116.503	80.003	19.994	103.333	20.207	2.694	0.260
71.999	118.716	80.005	19.993	103.372	20.204	2.924	0.268
79.999	121.304	80.003	19.996	103.372	20.199	3.214	0.335
87.999	124.101	80.003	19.996	103.377	20.203	2.944	0.360
95.999	127.151	80.005	19.995	103.372	20.193	3.599	0.401
103.999	130.336	80.003	19.995	103.378	20.193	3.642	0.413
111.999	133.742	80.003	19.994	103.395	20.192	3.683	0.442
119.999	137.323	80.006	19.993	103.393	20.195	3.510	0.469
127.999	140.999	80.006	19.994	103.378	20.194	3.546	0.470
136.000	144.908	80.005	19.993	103.381	20.197	3.356	0.508
144.000	148.806	80.005	19.994	103.376	20.197	3.354	0.495
152.000	152.766	80.004	19.994	103.371	20.192	3.665	0.514
160.000	156.695	80.004	19.995	103.370	20.189	3.870	0.489
168.000	160.701	80.003	19.994	103.375	20.190	3.798	0.494
176.000	164.815	80.004	19.994	103.359	20.193	3.649	0.534
184.000	168.811	80.006	19.993	103.339	20.195	3.520	0.479
192.000	172.724	80.006	19.993	103.324	20.194	3.539	0.486
200.000	176.497	80.005	19.995	103.329	20.191	3.742	0.473
208.000	180.258	80.007	19.995	103.329	20.190	3.836	0.480
216.000	183.976	80.003	19.993	103.330	20.188	3.983	0.468
224.000	187.706	80.004	19.994	103.340	20.182	4.366	0.451
232.000	191.489	80.004	19.994	103.348	20.180	4.451	0.460
240.000	195.429	80.003	19.994	103.320	20.176	4.741	0.473
248.000	199.299	80.005	19.994	103.322	20.177	4.708	0.467
256.000	203.088	80.005	19.995	103.330	20.176	4.713	0.477
264.000	206.905	80.006	19.994	103.310	20.176	4.743	0.471
272.000	210.734	80.005	19.995	103.313	20.170	5.147	0.501
280.000	214.500	80.005	19.993	103.309	20.170	5.141	0.461
288.000	218.276	80.005	19.995	103.331	20.166	5.412	0.489
296.000	222.219	80.002	19.995	103.336	20.161	5.746	0.536
304.000	226.176	80.004	19.994	103.330	20.154	6.181	0.526
312.000	230.323	80.004	19.994	103.334	20.159	5.842	0.519
320.000	234.466	80.005	19.994	103.333	20.151	6.394	0.506
328.000	238.638	80.003	19.995	103.329	20.144	6.870	0.510
336.000	242.903	80.005	19.994	103.332	20.140	7.130	0.549
344.000	247.017	80.006	19.993	103.325	20.130	7.806	0.491
352.000	251.229	80.005	19.994	103.333	20.114	8.848	0.551
360.000	255.403	80.005	19.995	103.333	20.098	9.920	0.514
368.000	259.468	80.005	19.994	103.335	20.077	11.305	0.513
376.000	263.509	80.004	19.994	103.336	20.053	12.826	0.505
384.000	267.494	80.003	19.997	103.336	20.040	13.724	0.502
392.000	271.400	80.003	19.995	103.345	20.019	15.098	0.480
400.000	275.271	80.005	19.994	103.345	19.994	16.729	0.462
408.000	279.074	80.005	19.994	103.361	19.977	17.856	0.480
416.000	282.910	80.004	19.994	103.371	19.962	18.866	0.484
424.000	286.739	80.005	19.994	103.372	19.947	19.822	0.488
432.000	290.582	80.004	19.994	103.373	19.932	20.857	0.467
440.000	294.375	80.005	19.993	103.375	19.917	21.818	0.463
448.000	298.414	80.007	19.995	103.401	19.904	22.684	0.555
456.000	302.460	80.004	19.996	103.391	19.886	23.914	0.517
464.000	306.710	80.003	19.993	103.409	19.857	25.788	0.571
472.000	311.048	80.004	19.995	103.417	19.826	27.829	0.550
480.000	315.406	80.003	19.996	103.443	19.785	30.532	0.550
488.000	319.690	80.004	19.996	103.450	19.730	34.201	0.532
496.000	323.972	80.002	19.995	103.483	19.661	38.814	0.552
504.000	328.147	80.006	19.994	103.527	19.564	45.248	0.521
512.000	332.362	80.005	19.995	103.581	19.425	54.456	0.544
520.000	336.495	80.006	19.994	103.670	19.227	67.584	0.505
528.000	340.622	80.008	19.994	103.763	18.973	84.427	0.537
536.000	344.683	80.005	19.994	103.800	18.736	99.970	0.527
544.000	348.656	80.003	19.996	103.675	18.699	102.237	0.516
552.000	352.617	80.004	19.994	103.470	18.979	83.728	0.507
560.000	356.435	80.004	19.994	103.376	19.364	58.323	0.462
568.000	360.248	80.002	19.996	103.374	19.629	40.824	0.476
576.000	364.143	80.004	19.996	103.368	19.764	31.937	0.508
584.000	367.969	80.006	19.997	103.359	19.815	28.566	0.450
592.000	371.903	80.004	19.995	103.344	19.835	27.217	0.506
600.000	375.826	80.006	19.995	103.362	19.840	26.902	0.482
608.000	379.742	80.005	19.994	103.365	19.833	27.371	0.495
616.000	383.704	80.005	19.994	103.368	19.822	28.092	0.461
624.000	387.656	80.004	19.994	103.377	19.807	29.079	0.521
632.000	391.770	80.003	19.993	103.379	19.789	30.256	0.526
640.000	395.847	80.004	19.994	103.394	19.766	31.805	0.543
648.000	399.945	80.003	19.995	103.399	19.739	33.583	0.520
656.000	404.166	80.004	19.995	103.406	19.711	35.459	0.501
664.000	408.331	80.007	19.994	103.409	19.679	37.571	0.470
672.000	412.575	80.005	19.994	103.406	19.669	38.211	0.456
680.000	416.492	80.004	19.995	103.410	19.667	38.335	0.498
688.000	420.482	80.008	19.995	103.409	19.690	36.798	0.446
696.000	424.414	80.007	19.994	103.381	19.724	34.544	0.521
704.000	428.275	80.005	19.996	103.372	19.773	31.295	0.490
712.000	432.127	80.004	19.994	103.341	19.825	27.870	0.515
720.000	436.030	80.004	19.994	103.331	19.871	24.885	0.469
728.000	439.936	80.003	19.995	103.355	19.915	21.967	0.485
736.000	443.899	80.004	19.994	103.335	19.949	19.701	0.490
744.000	447.896	80.006	19.994	103.328	19.982	17.499	0.484
752.000	452.006	80.005	19.994	103.313	20.019	15.097	0.530
760.000	456.134	80.004	19.996	103.301	20.044	13.425	0.490
768.000	460.280	80.005	19.995	103.289	20.068	11.864	0.506
776.000	464.430	80.007	19.996	103.252	20.085	10.710	0.497
784.000	468.541	80.002	19.995	103.257	20.104	9.480	0.541
792.000	472.654	80.005	19.994	103.255	20.111	9.002	0.511
800.000	476.863	80.005	19.996	103.254	20.119	8.526	0.510
808.000	481.050	80.005	19.996	103.256	20.128	7.928	0.487
816.000	485.195	80.003	19.994	103.239	20.129	7.820	0.484
824.000	489.331	80.003	19.995	103.227	20.133	7.569	0.505
832.000	493.482	80.007	19.997	103.242	20.139	7.197	0.522
840.000	497.574	80.005	19.995	103.230	20.144	6.842	0.522
848.000	501.681	80.006	19.995	103.247	20.147	6.627	0.524
856.000	505.777	80.007	19.997	103.227	20.145	6.813	0.531
864.000	509.829	80.005	19.995	103.220	20.146	6.695	0.486
872.000	513.871	80.005	19.995	103.234	20.149	6.509	0.514
880.000	517.918	80.005	19.994	103.220	20.153	6.223	0.510
888.000	521.962	80.004	19.994	103.230	20.150	6.448	0.522
896.000	526.010	80.004	19.994	103.218	20.151	6.374	0.492
904.000	530.095	80.006	19.994	103.227	20.155	6.098	0.523
912.000	534.214	80.007	19.994	103.239	20.156	6.061	0.493
920.000	538.351	80.005	19.994	103.213	20.152	6.291	0.531
928.000	542.443	80.005	19.995	103.222	20.146	6.741	0.529
936.000	546.495	80.007	19.994	103.232	20.147	6.625	0.525
944.000	550.553	80.005	19.995	103.250	20.151	6.375	0.536
952.000	554.518	80.003	19.994	103.229	20.149	6.514	0.487
960.000	558.582	80.004	19.994	103.221	20.145	6.777	0.526
968.000	562.605	80.005	19.995	103.228	20.149	6.541	0.530
976.000	566.705	80.003	19.994	103.222	20.147	6.671	0.520
984.000	570.760	80.005	19.994	103.214	20.148	6.596	0.506
992.000	574.901	80.006	19.995	103.219	20.147	6.635	0.508
1000.000	578.929	80.007	19.994	103.222	20.146	6.701	0.508
1008.000	583.060	80.005	19.995	103.231	20.145	6.771	0.516
1016.000	587.273	80.007	19.995	103.226	20.143	6.899	0.531
1024.000	591.553	80.007	19.996	103.214	20.138	7.262	0.536
1031.999	595.864	80.007	19.995	103.223	20.138	7.277	0.497
1039.999	600.122	80.006	19.996	103.217	20.136	7.358	0.510
1047.999	604.332	80.005	19.996	103.235	20.137	7.307	0.523
1056.000	608.548	80.007	19.995	103.235	20.138	7.224	0.503
1063.999	612.741	80.005	19.994	103.217	20.136	7.365	0.544
1071.999	616.992	80.007	19.994	103.218	20.134	7.486	0.515
1079.999	621.118	80.005	19.994	103.227	20.138	7.269	0.496
1088.000	625.266	80.006	19.995	103.218	20.141	7.025	0.544
1095.999	629.372	80.008	19.993	103.214	20.143	6.910	0.490
1103.999	633.514	80.009	19.994	103.215	20.143	6.914	0.506
1111.999	637.582	80.007	19.995	103.218	20.145	6.771	0.504
1119.999	641.682	80.005	19.995	103.214	20.152	6.329	0.507
1127.999	645.729	80.006	19.995	103.215	20.147	6.679	0.519
1136.000	649.758	80.006	19.996	103.215	20.148	6.601	0.481
1144.000	653.887	80.005	19.995	103.207	20.151	6.405	0.520
1151.999	657.921	80.006	19.995	103.216	20.143	6.888	0.487
1159.999	662.003	80.007	19.995	103.212	20.146	6.736	0.473
1168.000	666.093	80.006	19.996	103.212	20.146	6.691	0.541
1175.999	670.090	80.007	19.995	103.207	20.141	7.022	0.494
1184.000	674.103	80.008	19.994	103.206	20.142	6.982	0.499
1191.999	678.126	80.006	19.994	103.202	20.141	7.050	0.489
1199.999	682.174	80.005	19.993	103.215	20.143	6.906	0.494
1207.999	686.260	80.004	19.994	103.214	20.139	7.169	0.504
1216.000	690.350	80.006	19.995	103.217	20.135	7.420	0.495
1223.999	694.435	80.004	19.996	103.222	20.143	6.946	0.509
1231.999	698.455	80.006	19.997	103.202	20.137	7.312	0.510
1239.999	702.494	80.007	19.994	103.213	20.140	7.100	0.462
1248.001	706.533	80.007	19.995	103.209	20.136	7.357	0.520
1255.999	710.522	80.007	19.995	103.216	20.135	7.451	0.482
1263.999	714.525	80.007	19.994	103.212	20.137	7.332	0.503
1271.999	718.553	80.006	19.994	103.204	20.135	7.462	0.518
1279.999	722.626	80.006	19.994	103.216	20.132	7.659	0.489
1287.999	726.660	80.007	19.994	103.207	20.132	7.670	0.480
1296.000	730.704	80.007	19.995	103.213	20.130	7.803	0.515
1303.999	734.754	80.005	19.995	103.212	20.134	7.529	0.503
1311.999	738.763	80.006	19.995	103.213	20.135	7.418	0.512
1319.999	742.803	80.005	19.995	103.210	20.132	7.644	0.526
1321.999	743.793	80.006	19.995	103.202	20.133	7.567	0.511