Folder: fsri_materials_database/01_Data/LDPE/Cone

Note: README.md
# Materials and Products Database
### Repository of materials and products properties and fire test data to improve fire modeling and fire investigation.

This project was supported in part by Award No. 2019-DU-BX-0018, awarded by the National Institute of Justice, Office of Justice Programs, U.S. Department of Justice. The opinions, findings, and conclusions or recommendations expressed in this publication / program / exhibition are those of the author(s) and do not necessarily reflect those of the Department of Justice.

***
***

__Cite this database:__ "McKinnon, M., Weinschenk, C., Dow, N., DiDomizio, M., and Madrzykowski, D. Materials and Products Database (Version 1.0.0), Fire Safety Research Institute, UL Research Institutes. Columbia, MD 21045, 2023."

__Cite the Technical Reference Guide:__ "McKinnon, M., Weinschenk, C., and Madrzykowski, D. Materials and Products Database - Technical Reference Guide, Fire Safety Research Institute, UL Research Institutes. Columbia, MD 21045, 2023."

__Cite the User Guide:__ "McKinnon, M., and Weinschenk, C. Materials and Products Database - User Guide, Fire Safety Research Institute, UL Research Institutes. Columbia, MD 21045, 2023."

***
***

## Database Structure

## 01_Data/
Raw data generated from each apparatus are included here in plain-text format. The data is organized first by material, next by the short name of test apparatus used, and where applicable additional filtering by test settings.

### Test Apparatus and Data File Structure
- __Cone Calorimeter__ (Cone)
    + Data file structure includes the material, the short name for the apparatus, heat flux setting and scan/scalar, date of test, and replicate number. Scan is for the raw output data and scalar is for the initial conditions and high-level test parameters. 
        * Example: __MDF_Cone_HF25scalar_210323_R1__ stands for the first replicate of scalar data generated from a medium density fiber board test in cone calorimeter exposed to 25 kW/m<sup>2</sup> on March 23, 2021.
    + A _Cone_Notes.csv_ is generated for each material from the __plot_Cone_data.py__ script. For materials whose experiments deviated from typical behavior relevant pictures are included in the respective material directory.
- __Fourier Transform Infrared Spectrometer__ (FTIR)
    + The FTIR directory contains subdirectories for the Attenuated Total Reflectance method (ATR) and the Integrating Sphere (IS)
    + Data file structure for the ATR experiment files includes the material, the abbreviated name for the apparatus, date of test, and replicate number. 
        * Example: __MDF_ATR_210323_R5__ stands for the fifth replicate of data collected with the ATR accessory conducted on June 8, 2021.
    + Data file structure for the IS experiment files includes the material, the abbreviated name for the apparatus, the measurand, whether the test is a sample measurement or standard reference, date of test, and replicate number.
        * Example: __OSB_IS_REFLECT_MEAS_2

File: LDPE_HRRPUA_25.csv
Time after Ignition,LDPE_R1,LDPE_R2,LDPE_R3,Mean,Std. Dev.
0.0,29.5,23.2,12.5,21.8,8.6
1.0,31.3,25.2,14.3,23.6,8.6
2.0,33.3,27.3,15.5,25.4,9.1
3.0,35.6,30.1,17.1,27.6,9.5
4.0,39.9,32.0,18.8,30.3,10.6
5.0,42.7,33.1,19.7,31.8,11.5
6.0,45.5,36.4,21.9,34.6,11.9
7.0,46.0,38.6,23.4,36.0,11.5
8.0,49.0,40.4,25.1,38.2,12.1
9.0,51.5,42.6,27.6,40.6,12.1
10.0,54.1,45.9,29.3,43.1,12.6
11.0,56.6,47.5,30.7,44.9,13.1
12.0,57.5,50.0,32.4,46.6,12.9
13.0,61.2,50.4,33.5,48.4,14.0
14.0,66.3,52.9,35.5,51.6,15.5
15.0,71.0,54.7,37.4,54.4,16.8
16.0,73.4,57.9,39.8,57.0,16.8
17.0,76.5,60.4,40.9,59.3,17.8
18.0,79.1,62.7,42.7,61.5,18.3
19.0,80.8,64.7,45.3,63.6,17.8
20.0,83.6,65.9,46.5,65.4,18.6
21.0,85.0,67.9,49.8,67.5,17.6
22.0,89.7,68.2,51.7,69.9,19.0
23.0,93.7,70.4,54.1,72.7,19.9
24.0,96.0,72.2,55.8,74.7,20.2
25.0,102.4,76.9,58.1,79.1,22.2
26.0,105.1,77.1,59.0,80.4,23.2
27.0,109.1,81.2,61.4,83.9,23.9
28.0,112.0,83.5,65.2,86.9,23.6
29.0,114.4,86.3,67.6,89.4,23.6
30.0,119.6,91.5,70.2,93.8,24.8
31.0,122.5,91.8,73.4,95.9,24.8
32.0,125.3,95.0,77.2,99.2,24.3
33.0,128.7,98.0,81.0,102.6,24.2
34.0,130.2,100.3,83.1,104.5,23.9
35.0,132.3,102.2,86.4,106.9,23.3
36.0,135.8,106.4,89.9,110.7,23.2
37.0,139.3,110.9,95.7,115.3,22.1
38.0,141.5,113.4,99.1,118.0,21.5
39.0,144.1,118.5,102.2,121.6,21.1
40.0,145.2,120.0,106.2,123.8,19.8
41.0,149.5,123.7,104.6,125.9,22.6
42.0,151.0,124.3,110.9,128.7,20.4
43.0,153.0,127.6,115.9,132.2,19.0
44.0,156.1,132.4,120.5,136.3,18.1
45.0,160.1,134.9,124.0,139.7,18.5
46.0,162.8,138.0,129.1,143.3,17.5
47.0,167.8,142.1,131.0,147.0,18.8
48.0,169.4,142.5,136.5,149.5,17.5
49.0,179.3,147.8,140.3,155.8,20.7
50.0,178.9,153.3,142.6,158.3,18.7
51.0,187.8,154.6,149.2,163.9,20.9
52.0,195.6,155.2,152.0,167.6,24.3
53.0,199.6,157.5,154.4,170.5,25.3
54.0,199.7,164.5,156.7,173.6,22.9
55.0,209.2,168.8,161.8,179.9,25.6
56.0,212.5,166.3,162.7,180.5,27.8
57.0,216.7,170.9,168.8,185.4,27.1
58.0,223.0,176.1,175.9,191.7,27.2
59.0,231.7,184.3,178.4,198.1,29.3
60.0,254.3,189.9,179.6,208.0,40.5
61.0,254.9,194.4,185.0,211.5,37.9
62.0,265.0,203.2,191.7,220.0,39.4
63.0,263.6,208.6,192.7,221.6,37.2
64.0,274.0,217.7,198.9,230.2,39.1
65.0,280.5,225.3,206.0,237.3,38.7
66.0,292.1,229.8,213.1,245.0,41.6
67.0,301.7,231.8,217.7,250.4,45.0
68.0,316.8,241.1,234.9,264.3,45.6
69.0,333.1,255.4,241.0,276.5,49.5
70.0,347.0,262.9,248.7,286.2,53.1
71.0,356.9,275.7,264.1,298.9,50.5
72.0,374.5,282.5,268.0,308.3,57.7
73.0,380.8,300.0,285.4,322.1,51.4
74.0,386.8,320.8,295.0,334.2,47.4
75.0,399.5,330.5,303.5,344.5,49.5
76.0,399.3,339.8,317.1,352.1,42.4
77.0,433.0,340.2,328.6,367.3,57.2
78.0,443.3,351.5,339.1,378.0,56.9
79.0,454.2,362.0,361.1,392.4,53.5
80.0,489.6,379.7,364.5,411.3,68.3
81.0,485.1,388.1,376.8,416.7,59.5
82.0,492.3,413.4,385.7,430.5,55.3
83.0,502.9,407.9,395.1,435.3,58.9
84.0,532.7,418.2,407.4,452.8,69.4
85.0,507.4,432.6,415.5,451.8,48.9
86.0,523.4,450.6,416.0,463.4,54.8
87.0,532.2,442.1,432.9,469.1,54.8
88.0,544.0,448.1,441.0,477.7,57.6
89.0,547.9,469.2,455.3,490.8,50.0
90.0,553.9,489.9,462.5,502.1,46.9
91.0,571.6,494.4,488.0,518.0,46.5
92.0,577.0,477.1,489.8,514.6,54.4
93.0,604.3,492.3,487.4,528.0,66.1
94.0,605.6,527.5,525.4,552.8,45.7
95.0,588.1,537.2,536.2,553.8,29.7
96.0,632.7,554.7,544.3,577.2,48.3
97.0,639.5,555.3,543.0,579.3,52.5
98.0,642.5,579.3,573.2,598.3,38.4
99.0,650.9,601.9,584.0,612.3,34.6
100.0,636.4,583.3,579.2,599.6,31.9
101.0,679.8,603.2,587.2,623.4,49.5
102.0,675.7,632.0,602.1,636.6,37.0
103.0,678.6,637.6,618.3,644.8,30.8
104.0,662.2,648.0,617.0,642.4,23.1
105.0,721.4,660.4,645.7,675.8,40.1
106.0,770.9,694.8,659.4,708.4,57.0
107.0,770.7,667.2,655.6,697.8,63.4
108.0,741.7,662.9,678.1,694.2,41.8
109.0,770.4,686.0,676.2,710.9,51.8
110.0,737.0,731.2,681.6,716.6,30.4
111.0,791.4,747.7,719.3,752.8,36.3
112.0,777.9,737.3,717.6,744.2,30.8
113.0,805.4,742.8,696.1,748.1,54.8
114.0,808.6,752.5,693.2,751.5,57.7
115.0,831.1,783.8,737.4,784.1,46.8
116.0,871.9,780.8,734.7,795.8,69.8
117.0,820.8,836.1,752.5,803.1,44.5
118.0,849.7,793.8,760.3,801.3,45.1
119.0,819.6,849.0,775.5,814.7,37.0
120.0,872.9,832.8,782.5,829.4,45.3
121.0,880.6,892.5,800.4,857.8,50.1
122.0,874.1,827.8,776.8,826.2,48.6
123.0,880.8,893.3,777.4,850.5,63.6
124.0,889.1,955.2,836.4,893.6,59.6
125.0,910.7,958.9,849.9,906.5,54.6
126.0,849.9,983.0,876.1,903.0,70.5
127.0,975.7,978.3,874.5,942.8,59.2
128.0,898.6,966.9,812.2,892.6,77.5
129.0,945.8,981.7,896.6,941.4,42.7
130.0,943.7,981.5,932.9,952.7,25.5
131.0,971.9,1102.1,858.0,977.3,122.1
132.0,954.1,1089.2,917.8,987.0,90.3
133.0,946.5,1099.6,893.2,979.8,107.1
134.0,1003.2,1104.5,905.8,1004.5,99.4
135.0,956.3,1050.3,948.9,985.2,56.5
136.0,1018.8,1114.5,980.6,1037.9,69.0
137.0,1057.6,1140.0,957.1,1051.6,91.6
138.0,1020.5,1127.6,1028.9,1059.0,59.6
139.0,1008.4,1168.9,1027.2,1068.2,87.8
140.0,1036.0,1319.6,1122.5,1159.4,145.4
141.0,1031.7,1222.4,1088.0,1114.0,98.0
142.0,1028.5,1260.0,1059.6,1116.0,125.6
143.0,1114.8,1274.7,1130.0,1173.2,88.3
144.0,1052.7,1362.1,1022.2,1145.7,188.1
145.0,1112.7,1232.1,1095.3,1146.7,74.5
146.0,1062.9,1418.5,1103.6,1195.0,194.6
147.0,1062.3,1418.3,1141.8,1207.5,186.8
148.0,1176.9,1456.6,1300.8,1311.5,140.2
149.0,1213.4,1474.9,1218.9,1302.4,149.4
150.0,1109.5,1431.8,1175.0,1238.8,170.4
151.0,1031.8,1395.4,1256.7,1228.0,183.5
152.0,1164.8,1604.9,1202.9,1324.2,243.9
153.0,1196.6,1491.5,1268.3,1318.8,153.8
154.0,1156.6,1460.4,1179.5,1265.5,169.2
155.0,1215.0,1423.6,1269.3,1302.6,108.3
156.0,1135.6,1660.1,1273.8,1356.5,271.8
157.0,1326.4,1345.4,1458.4,1376.7,71.4
158.0,1216.9,1628.1,1349.2,1398.1,209.9
159.0,1229.3,1500.5,1452.5,1394.1,144.7
160.0,1267.9,1624.9,1466.2,1453.0,178.9
161.0,1313.9,1784.8,1308.2,1469.0,273.5
162.0,1339.6,1572.5,1530.2,1480.8,124.1
163.0,1189.5,1677.5,1611.4,1492.8,264.8
164.0,1341.2,1665.6,1588.5,1531.8,169.5
165.0,1269.1,1675.0,1528.4,1490.9,205.5
166.0,1305.4,1816.8,1454.7,1525.6,263.0
167.0,1161.3,1735.0,1597.9,1498.1,299.6
168.0,1224.4,1919.1,1530.1,1557.9,348.2
169.0,1264.4,1714.4,1318.2,1432.3,245.8
170.0,1242.4,1734.4,1612.3,1529.7,256.2
171.0,1322.0,1785.8,1644.9,1584.2,237.8
172.0,1319.9,1711.0,1625.8,1552.2,205.7
173.0,1328.1,1615.9,1463.5,1469.2,144.0
174.0,1277.7,1764.6,1263.9,1435.4,285.2
175.0,1249.7,1695.9,1922.7,1622.8,342.4
176.0,1223.6,1616.2,1588.3,1476.1,219.1
177.0,1428.1,1591.0,1858.6,1625.9,217.4
178.0,1393.3,1608.2,1855.6,1619.0,231.4
179.0,1381.2,1657.7,1762.1,1600.3,196.9
180.0,1275.0,1535.0,1901.8,1570.6,314.9
181.0,1410.1,1551.9,1732.8,1564.9,161.8
182.0,1357.3,1439.3,1602.2,1466.3,124.7
183.0,1410.7,1399.0,1612.8,1474.2,120.2
184.0,1296.4,1325.3,1755.4,1459.0,257.1
185.0,1276.1,1342.0,1521.5,1379.9,127.0
186.0,1264.6,1240.3,1553.8,1352.9,174.4
187.0,1316.6,1211.1,1627.3,1385.0,216.4
188.0,1265.4,1207.4,1594.7,1355.8,208.9
189.0,1247.4,1092.1,1408.5,1249.3,158.2
190.0,1214.9,1026.9,1413.9,1218.6,193.5
191.0,1185.0,955.9,1416.8,1185.9,230.5
192.0,1196.4,912.9,1369.8,1159.7,230.7
193.0,1164.5,841.2,1318.9,1108.2,243.8
194.0,1126.5,806.2,1271.8,1068.2,238.2
195.0,1142.0,740.1,1238.2,1040.1,264.2
196.0,1045.0,665.0,1178.9,963.0,266.6
197.0,1076.6,580.8,1162.1,939.9,313.9
198.0,975.9,508.8,1053.9,846.2,294.8
199.0,978.8,433.2,1100.5,837.5,355.4
200.0,957.8,387.3,1060.8,801.9,362.8
201.0,999.0,330.9,1027.0,785.6,394.0
202.0,889.9,276.4,954.7,707.0,374.3
203.0,865.5,243.9,930.9,680.1,379.2
204.0,846.0,204.6,864.6,638.4,375.8
205.0,792.7,169.9,823.5,595.4,368.8
206.0,800.5,143.0,741.3,561.6,363.7
207.0,731.0,121.0,670.2,507.4,336.0
208.0,729.7,104.2,612.7,482.2,332.5
209.0,684.2,90.1,547.1,440.5,311.0
210.0,648.5,76.4,481.7,402.2,294.3
211.0,635.0,65.9,414.9,371.9,286.9
212.0,598.5,,371.2,484.8,160.8
213.0,566.2,,330.1,448.1,167.0
214.0,551.3,,277.7,414.5,193.5
215.0,538.7,,231.6,385.2,217.1
216.0,499.3,,194.4,346.9,215.6
217.0,472.6,,161.5,317.0,219.9
218.0,441.0,,,441.0,
219.0,413.1,,,413.1,
220.0,394.8,,,394.8,
221.0,369.7,,,369.7,
222.0,344.2,,,344.2,
223.0,327.8,,,327.8,
224.0,312.2,,,312.2,
225.0,295.8,,,295.8,
226.0,284.1,,,284.1,
227.0,255.6,,,255.6,
228.0,233.3,,,233.3,
229.0,207.0,,,207.0,
230.0,181.9,,,181.9,
231.0,158.3,,,158.3,
232.0,138.1,,,138.1,
233.0,119.6,,,119.6,
234.0,104.8,,,104.8,
235.0,93.0,,,93.0,
236.0,81.8,,,81.8,
237.0,72.0,,,72.0,
238.0,62.3,,,62.3,
239.0,54.5,,,54.5,
240.0,46.5,,,46.5,
240.75,41.0,,,41.0,

File: LDPE_HRRPUA_50.csv
Time after Ignition,LDPE_R1,LDPE_R2,LDPE_R3,Mean,Std. Dev.
0.0,15.9,7.5,13.6,12.3,4.3
0.75,18.0,10.0,16.2,14.7,4.2
1.5,21.3,12.4,19.5,17.8,4.7
2.25,26.0,17.7,23.6,22.4,4.3
3.0,30.5,22.9,28.1,27.2,3.9
3.75,35.0,27.4,33.9,32.1,4.1
4.5,41.1,31.9,39.6,37.5,4.9
5.25,46.5,35.6,46.3,42.8,6.3
6.0,50.6,38.9,52.8,47.4,7.4
6.75,56.3,43.1,59.0,52.8,8.5
7.5,61.7,47.9,62.8,57.5,8.3
8.25,65.7,53.3,68.5,62.5,8.1
9.0,69.9,59.9,73.7,67.8,7.1
9.75,74.7,67.7,80.5,74.3,6.4
10.5,79.6,74.1,85.9,79.9,5.9
11.25,82.5,81.8,92.1,85.4,5.8
12.0,88.3,86.6,97.5,90.8,5.9
12.75,92.8,92.7,106.4,97.3,7.9
13.5,99.2,96.9,112.2,102.8,8.2
14.25,106.0,103.8,118.1,109.3,7.7
15.0,108.5,109.6,124.1,114.1,8.7
15.75,116.5,114.0,130.2,120.2,8.7
16.5,121.6,120.6,138.0,126.8,9.7
17.25,130.6,129.0,143.5,134.4,8.0
18.0,135.0,135.5,147.1,139.2,6.8
18.75,148.6,145.1,159.8,151.2,7.7
19.5,158.2,150.5,170.2,159.7,9.9
20.25,168.6,157.1,172.4,166.0,8.0
21.0,181.7,168.7,188.7,179.7,10.1
21.75,184.3,177.2,192.2,184.6,7.5
22.5,193.9,186.0,203.1,194.3,8.6
23.25,209.2,197.9,207.1,204.7,6.0
24.0,209.8,206.8,216.8,211.1,5.1
24.75,230.7,213.5,222.5,222.2,8.6
25.5,237.5,222.8,230.3,230.2,7.3
26.25,249.1,224.9,245.1,239.7,13.0
27.0,259.4,237.9,250.9,249.4,10.9
27.75,264.2,248.0,254.9,255.7,8.1
28.5,282.3,261.6,273.2,272.4,10.4
29.25,284.7,264.7,284.3,277.9,11.4
30.0,299.9,279.2,302.1,293.8,12.6
30.75,304.0,294.6,326.7,308.4,16.5
31.5,326.3,307.5,340.1,324.6,16.4
32.25,333.9,332.4,338.8,335.1,3.4
33.0,335.8,348.6,357.8,347.4,11.0
33.75,350.1,373.9,393.1,372.4,21.5
34.5,380.4,380.8,420.0,393.7,22.7
35.25,365.0,384.4,434.5,394.6,35.9
36.0,393.9,416.2,453.0,421.0,29.9
36.75,395.5,413.7,480.5,429.9,44.8
37.5,407.8,447.7,472.8,442.8,32.8
38.25,419.0,449.7,508.3,459.0,45.4
39.0,419.4,464.7,525.8,469.9,53.4
39.75,446.7,495.2,531.7,491.2,42.6
40.5,446.0,500.7,567.5,504.7,60.9
41.25,502.2,535.2,575.3,537.5,36.6
42.0,494.8,539.3,613.8,549.3,60.2
42.75,502.5,563.9,627.0,564.4,62.3
43.5,532.5,578.3,663.8,591.5,66.7
44.25,534.2,631.4,675.6,613.7,72.3
45.0,555.6,602.7,695.5,617.9,71.2
45.75,591.4,696.3,720.2,669.3,68.5
46.5,605.3,670.6,719.9,665.3,57.5
47.25,600.6,711.3,743.7,685.2,75.0
48.0,611.3,659.0,716.6,662.3,52.7
48.75,658.3,702.8,761.6,707.6,51.8
49.5,661.4,735.3,778.7,725.2,59.3
50.25,668.0,733.7,798.3,733.3,65.1
51.0,662.9,719.7,839.3,740.6,90.0
51.75,706.8,754.5,891.1,784.1,95.7
52.5,757.0,772.1,842.8,790.6,45.8
53.25,752.9,836.5,912.4,833.9,79.8
54.0,769.6,907.2,855.0,844.0,69.5
54.75,785.4,809.5,942.9,845.9,84.8
55.5,871.7,859.9,1014.2,915.3,85.8
56.25,835.4,837.0,961.4,877.9,72.3
57.0,858.4,912.7,1039.7,937.0,93.0
57.75,967.7,964.1,1002.4,978.1,21.1
58.5,950.7,927.8,1055.0,977.8,67.8
59.25,913.3,990.7,1055.4,986.5,71.2
60.0,1002.2,1018.5,1179.6,1066.8,98.1
60.75,982.7,1065.5,1120.5,1056.2,69.4
61.5,991.9,1083.6,1208.9,1094.8,108.9
62.25,1091.1,998.9,1154.6,1081.5,78.3
63.0,1056.8,1109.8,1168.3,1111.6,55.8
63.75,1099.0,1122.8,1154.4,1125.4,27.8
64.5,1124.9,1155.3,1330.1,1203.4,110.8
65.25,1060.0,1141.5,1100.2,1100.6,40.8
66.0,1153.9,1190.7,1310.3,1218.3,81.8
66.75,1275.1,1289.0,1483.7,1349.3,116.6
67.5,1146.3,1174.0,1356.8,1225.7,114.4
68.25,1311.0,1405.1,1257.9,1324.7,74.6
69.0,1259.0,1258.5,1306.3,1274.6,27.5
69.75,1487.3,1353.7,1389.0,1410.0,69.2
70.5,1257.7,1487.0,1499.3,1414.7,136.1
71.25,1455.7,1554.7,1640.0,1550.1,92.2
72.0,1452.9,1324.3,1467.6,1414.9,78.8
72.75,1461.8,1452.1,1632.2,1515.4,101.3
73.5,1629.8,1574.9,1551.4,1585.4,40.2
74.25,1687.7,1454.5,1608.8,1583.7,118.6
75.0,1721.8,1615.4,1512.1,1616.4,104.9
75.75,1492.1,1635.0,1892.1,1673.1,202.7
76.5,1898.6,1680.1,1930.9,1836.5,136.5
77.25,1831.7,1467.2,1646.6,1648.5,182.3
78.0,1784.0,1663.1,1804.8,1750.7,76.5
78.75,1734.8,1716.4,1742.7,1731.3,13.5
79.5,1824.9,1832.5,1871.0,1842.8,24.7
80.25,1867.4,1948.3,1700.5,1838.7,126.4
81.0,1970.3,2002.9,1840.2,1937.8,86.1
81.75,1946.8,2003.5,1940.1,1963.5,34.8
82.5,2257.9,1891.9,1969.1,2039.6,192.9
83.25,2287.2,1835.2,2004.8,2042.4,228.3
84.0,1798.4,2096.9,2082.4,1992.6,168.3
84.75,2086.8,1835.8,1654.1,1858.9,217.2
85.5,2064.9,1874.0,1943.2,1960.7,96.7
86.25,2014.0,1935.5,1903.3,1950.9,57.0
87.0,2014.9,1629.4,2055.3,1899.9,235.1
87.75,2138.7,1896.3,1978.8,2004.6,123.3
88.5,2024.6,2021.1,2247.8,2097.8,129.8
89.25,2144.5,2207.8,2043.0,2131.8,83.2
90.0,2036.6,2198.7,2265.8,2167.0,117.8
90.75,2054.2,1919.6,2281.0,2084.9,182.6
91.5,2034.4,1841.4,2288.6,2054.8,224.3
92.25,2021.2,1733.5,2159.4,1971.3,217.3
93.0,1940.6,1739.4,2126.8,1935.6,193.7
93.75,1987.6,1912.3,2313.2,2071.0,213.1
94.5,1855.1,1718.7,2302.3,1958.7,305.3
95.25,2000.4,2071.4,2343.9,2138.5,181.3
96.0,1980.4,1795.6,1972.2,1916.1,104.4
96.75,1849.5,2295.5,1905.4,2016.8,243.0
97.5,1888.2,1732.0,2512.9,2044.3,413.2
98.25,1975.7,1863.7,2101.3,1980.2,118.8
99.0,1793.7,1913.4,2148.4,1951.8,180.4
99.75,2021.0,2057.1,2108.3,2062.1,43.9
100.5,1744.0,2061.2,1897.6,1901.0,158.6
101.25,1757.8,1842.3,2099.1,1899.7,177.7
102.0,1851.9,2102.7,2185.2,2046.6,173.6
102.75,1781.7,1770.9,2317.7,1956.8,312.6
103.5,1763.3,1829.4,2625.1,2072.6,479.6
104.25,1740.3,1673.9,2264.3,1892.8,323.4
105.0,1755.4,2056.1,2854.1,2221.8,567.8
105.75,1681.0,1919.3,2363.3,1987.9,346.3
106.5,1642.9,1999.6,2642.3,2094.9,506.5
107.25,1822.7,1862.4,2193.7,1959.6,203.7
108.0,1506.3,2112.1,2428.5,2015.6,468.6
108.75,1641.1,2050.7,2168.5,1953.4,276.8
109.5,1631.5,2107.6,2162.4,1967.2,292.0
110.25,1538.0,1736.2,2317.8,1864.0,405.3
111.0,1721.5,1997.1,2293.1,2003.9,285.9
111.75,1653.5,1940.6,2346.2,1980.1,348.0
112.5,1692.8,1808.3,2081.7,1860.9,199.7
113.25,1491.3,1752.5,1945.6,1729.8,228.0
114.0,1596.0,1931.5,1866.4,1798.0,177.9
114.75,1779.1,1774.6,1917.7,1823.8,81.4
115.5,1511.1,1739.4,1903.0,1717.8,196.8
116.25,1552.9,1828.1,1824.5,1735.2,157.9
117.0,1580.3,1777.9,1690.7,1683.0,99.0
117.75,1652.1,1622.0,1680.3,1651.5,29.1
118.5,1479.1,1625.0,1634.7,1579.6,87.2
119.25,1658.3,1614.9,1530.3,1601.2,65.1
120.0,1587.1,1698.0,1451.3,1578.8,123.6
120.75,1505.1,1604.4,1356.7,1488.7,124.7
121.5,1590.5,1538.0,1241.0,1456.5,188.5
122.25,1457.9,1497.0,1123.1,1359.3,205.5
123.0,1577.7,1498.7,991.0,1355.8,318.4
123.75,1397.2,1469.5,873.8,1246.8,325.1
124.5,1496.2,1406.5,764.7,1222.5,399.0
125.25,1424.4,1347.4,658.6,1143.4,421.7
126.0,1355.6,1353.5,570.8,1093.3,452.5
126.75,1348.6,1186.5,495.8,1010.3,452.9
127.5,1358.1,1207.4,442.2,1002.6,491.1
128.25,1323.0,1113.1,381.3,939.1,494.3
129.0,1261.8,1052.8,339.2,884.6,483.7
129.75,1178.1,985.4,294.0,819.2,464.9
130.5,1077.6,920.4,255.6,751.2,436.4
131.25,1007.9,868.3,222.8,699.7,418.8
132.0,900.1,811.9,193.5,635.2,385.0
132.75,818.9,738.2,175.4,577.5,350.5
133.5,724.4,687.6,153.7,521.9,319.4
134.25,660.7,614.7,,637.7,32.5
135.0,582.0,544.7,,563.4,26.4
135.75,511.6,465.3,,488.4,32.7
136.5,447.3,407.5,,427.4,28.1
137.25,384.5,,,384.5,
138.0,336.3,,,336.3,
138.75,286.0,,,286.0,
139.5,247.7,,,247.7,
140.25,211.8,,,211.8,
140.5,204.6,,,204.6,

File: LDPE_HRRPUA_75.csv
Time after Ignition,LDPE_R1,LDPE_R2,LDPE_R3,Mean,Std. Dev.
0.0,38.0,41.2,13.3,30.8,15.3
0.5,42.4,46.6,16.7,35.2,16.2
1.0,45.8,51.5,20.0,39.1,16.8
1.5,53.4,60.3,24.5,46.1,19.0
2.0,62.8,66.7,29.3,53.0,20.5
2.5,70.5,75.7,33.5,59.9,23.0
3.0,79.7,84.7,38.2,67.5,25.6
3.5,86.8,92.6,42.9,74.1,27.2
4.0,95.0,99.8,48.2,81.0,28.5
4.5,101.7,110.3,53.5,88.5,30.6
5.0,110.1,117.4,58.4,95.3,32.1
5.5,117.7,124.2,63.8,101.9,33.2
6.0,127.8,130.2,66.5,108.1,36.1
6.5,132.5,137.4,69.8,113.3,37.7
7.0,146.0,146.0,74.5,122.1,41.3
7.5,150.8,156.0,80.4,129.1,42.2
8.0,167.6,161.3,83.9,137.6,46.6
8.5,176.6,172.5,88.8,146.0,49.6
9.0,190.7,177.3,93.6,153.9,52.6
9.5,200.1,191.8,101.7,164.5,54.6
10.0,212.9,204.1,110.9,175.9,56.5
10.5,229.3,218.6,122.8,190.2,58.7
11.0,232.7,230.1,132.0,198.3,57.4
11.5,241.1,242.3,145.0,209.4,55.8
12.0,256.1,250.7,154.8,220.5,57.0
12.5,273.8,260.2,164.6,232.9,59.5
13.0,279.4,266.2,175.6,240.4,56.5
13.5,287.3,277.5,180.8,248.5,58.9
14.0,302.9,298.6,195.1,265.6,61.1
14.5,328.5,294.7,205.2,276.1,63.7
15.0,342.0,308.0,215.3,288.4,65.6
15.5,349.1,321.8,226.5,299.1,64.4
16.0,367.4,314.1,233.2,304.9,67.6
16.5,387.9,326.6,260.2,324.9,63.9
17.0,391.1,348.5,257.9,332.5,68.0
17.5,405.8,353.8,279.9,346.5,63.3
18.0,404.5,373.3,288.9,355.5,59.8
18.5,432.5,371.9,297.4,367.2,67.7
19.0,448.1,388.2,317.0,384.4,65.7
19.5,435.4,413.0,320.5,389.6,60.9
20.0,453.3,429.7,324.5,402.5,68.6
20.5,477.7,416.3,332.1,408.7,73.1
21.0,481.6,426.1,352.5,420.1,64.8
21.5,484.9,445.0,360.7,430.2,63.4
22.0,478.9,468.3,383.1,443.4,52.5
22.5,507.2,484.3,392.5,461.3,60.7
23.0,538.7,475.9,415.1,476.6,61.8
23.5,569.9,517.7,432.4,506.7,69.4
24.0,618.0,544.0,452.0,538.0,83.2
24.5,641.0,585.3,455.5,560.6,95.2
25.0,640.4,567.0,470.2,559.2,85.4
25.5,648.4,616.8,470.8,578.7,94.7
26.0,714.7,655.7,486.5,619.0,118.5
26.5,701.7,649.1,527.3,626.0,89.5
27.0,732.7,693.4,538.9,655.0,102.5
27.5,729.2,696.0,583.9,669.7,76.2
28.0,759.9,720.3,541.5,673.9,116.4
28.5,783.9,773.5,566.3,707.9,122.8
29.0,818.7,726.7,619.5,721.7,99.7
29.5,882.6,765.2,574.7,740.9,155.4
30.0,934.8,807.0,642.8,794.9,146.4
30.5,924.3,812.0,649.7,795.4,138.1
31.0,955.9,930.6,692.1,859.5,145.5
31.5,955.4,899.4,694.0,849.6,137.7
32.0,978.7,983.0,746.7,902.8,135.2
32.5,1007.8,936.0,743.6,895.8,136.6
33.0,1094.3,980.9,815.0,963.4,140.5
33.5,987.0,1043.5,807.8,946.1,123.1
34.0,1100.1,966.9,874.5,980.5,113.4
34.5,1175.0,1117.9,846.4,1046.5,175.6
35.0,1154.5,1150.6,863.7,1056.3,166.8
35.5,1166.0,1090.8,861.1,1039.3,158.8
36.0,1222.9,1204.9,1002.4,1143.4,122.4
36.5,1223.8,1052.0,953.6,1076.5,136.8
37.0,1374.0,1117.6,960.3,1150.6,208.8
37.5,1278.3,1087.3,1081.0,1148.9,112.1
38.0,1262.9,1375.9,1112.2,1250.4,132.3
38.5,1425.7,1242.6,1111.3,1259.9,157.9
39.0,1373.9,1262.5,1092.7,1243.0,141.6
39.5,1441.5,1260.0,1170.1,1290.5,138.2
40.0,1467.7,1231.0,1172.6,1290.5,156.3
40.5,1389.0,1350.7,1093.5,1277.7,160.7
41.0,1367.6,1210.8,1201.2,1259.9,93.4
41.5,1326.1,1510.8,1217.8,1351.6,148.2
42.0,1540.4,1438.2,1329.1,1435.9,105.7
42.5,1416.3,1419.3,1225.5,1353.7,111.0
43.0,1386.2,1475.3,1261.3,1374.3,107.5
43.5,1670.1,1574.4,1265.3,1503.3,211.6
44.0,1856.7,1403.9,1245.0,1501.9,317.4
44.5,1576.7,1734.5,1348.4,1553.2,194.1
45.0,2008.7,1807.4,1405.1,1740.4,307.3
45.5,1370.8,1709.0,1305.3,1461.7,216.6
46.0,1639.3,1601.0,1309.1,1516.5,180.6
46.5,1787.2,1607.5,1563.3,1652.7,118.6
47.0,1434.4,1869.4,1588.4,1630.8,220.6
47.5,1942.4,1854.4,1595.7,1797.5,180.2
48.0,2086.2,2081.3,1544.6,1904.0,311.3
48.5,1963.9,1846.7,1624.1,1811.6,172.6
49.0,2044.2,1866.0,1554.2,1821.4,248.0
49.5,1709.0,2131.9,1613.5,1818.1,275.9
50.0,2059.5,2124.2,1739.5,1974.4,206.0
50.5,1756.5,1926.6,1670.8,1784.6,130.2
51.0,2121.2,1921.2,1669.2,1903.9,226.5
51.5,2059.7,2282.1,1580.2,1974.0,358.7
52.0,2548.2,1582.3,1784.7,1971.7,509.4
52.5,2116.0,2331.9,1485.4,1977.8,439.8
53.0,2178.5,1859.7,1696.5,1911.6,245.1
53.5,2341.7,2141.2,1706.9,2063.3,324.5
54.0,1783.9,2467.3,2090.1,2113.7,342.3
54.5,1840.6,2019.2,1630.2,1830.0,194.7
55.0,2360.4,1945.7,1652.3,1986.1,355.8
55.5,2340.7,1874.6,1707.7,1974.3,328.1
56.0,2144.0,2253.4,1953.9,2117.1,151.5
56.5,2304.2,2087.6,1837.2,2076.3,233.7
57.0,2383.4,2164.4,1979.1,2175.6,202.4
57.5,2089.6,2748.2,1896.3,2244.7,446.6
58.0,2109.7,1985.5,2016.1,2037.1,64.7
58.5,2015.7,2750.8,2025.3,2263.9,421.7
59.0,2482.8,2508.2,1988.7,2326.6,292.9
59.5,2812.3,1966.5,2047.2,2275.4,466.7
60.0,2396.1,2295.7,1790.2,2160.6,324.7
60.5,2815.7,2777.3,2250.6,2614.6,315.8
61.0,2041.1,2476.5,1934.5,2150.7,287.1
61.5,2198.3,2044.8,2249.3,2164.1,106.5
62.0,2731.7,2017.1,2231.9,2326.9,366.6
62.5,2795.8,2698.8,1960.5,2485.0,456.8
63.0,2706.7,2858.7,2280.5,2615.3,299.7
63.5,1956.3,2936.7,1904.5,2265.8,581.6
64.0,2287.5,2390.7,2275.7,2318.0,63.3
64.5,2388.8,2759.8,2002.6,2383.7,378.6
65.0,2191.1,1831.1,2048.1,2023.4,181.3
65.5,2866.8,2715.6,1841.9,2474.8,553.3
66.0,2302.5,2393.6,1805.5,2167.2,316.5
66.5,2140.9,2890.6,1717.4,2249.6,594.1
67.0,2720.9,2651.5,2345.5,2572.7,199.7
67.5,2443.7,2942.2,2316.4,2567.4,330.7
68.0,2780.0,2610.7,2323.5,2571.4,230.8
68.5,2405.3,2928.3,1882.0,2405.2,523.2
69.0,2330.0,2914.7,2154.0,2466.2,398.2
69.5,2359.8,2509.2,2142.7,2337.3,184.3
70.0,2305.8,2394.2,2170.7,2290.2,112.6
70.5,2464.3,2390.5,1858.8,2237.9,330.3
71.0,2636.6,2868.7,2489.0,2664.8,191.4
71.5,2370.4,2490.0,2275.9,2378.8,107.3
72.0,1920.9,2713.8,2445.3,2360.0,403.3
72.5,2224.7,2586.8,2014.0,2275.2,289.7
73.0,2071.6,3218.3,2021.2,2437.0,677.1
73.5,2175.1,2826.3,1645.0,2215.5,591.7
74.0,2442.3,2627.4,2537.0,2535.6,92.5
74.5,2389.6,2755.5,2471.1,2538.7,192.1
75.0,2387.3,2624.6,2316.2,2442.7,161.5
75.5,2454.8,2767.1,2090.8,2437.6,338.5
76.0,2312.6,3128.4,1927.1,2456.0,613.3
76.5,2087.0,2812.9,1970.4,2290.1,456.5
77.0,1738.8,3052.7,1898.6,2230.0,716.9
77.5,2519.5,3397.1,2303.6,2740.0,579.1
78.0,2083.4,2991.6,2444.2,2506.4,457.3
78.5,2368.1,2763.9,1902.2,2344.7,431.3
79.0,2000.1,3287.3,2374.1,2553.8,662.2
79.5,2617.7,2614.0,1939.0,2390.3,390.8
80.0,2471.2,2513.5,2262.5,2415.8,134.4
80.5,2404.5,3098.1,2383.5,2628.7,406.7
81.0,2576.8,2778.3,2234.1,2529.7,275.1
81.5,2744.6,2946.0,2402.6,2697.7,274.7
82.0,2268.6,3290.9,2406.4,2655.3,554.7
82.5,2199.5,2796.1,2480.4,2492.0,298.5
83.0,2375.3,2823.3,2298.8,2499.2,283.3
83.5,1931.4,2775.0,2113.7,2273.4,443.9
84.0,2602.0,2802.3,2780.2,2728.2,109.9
84.5,2276.2,2736.8,1981.9,2331.6,380.5
85.0,2621.1,2674.6,2482.9,2592.9,99.0
85.5,2192.6,2597.6,2502.5,2430.9,211.8
86.0,2276.6,2555.5,2302.9,2378.4,154.0
86.5,2065.3,2535.2,2432.5,2344.3,247.0
87.0,2524.8,2458.2,2267.6,2416.9,133.5
87.5,2181.1,2384.6,2424.8,2330.2,130.7
88.0,2176.3,2200.1,2437.7,2271.4,144.5
88.5,2314.2,2024.3,2212.3,2183.6,147.1
89.0,2225.6,1900.8,2341.3,2155.9,228.4
89.5,2273.6,1780.7,2605.8,2220.0,415.1
90.0,2274.4,,2240.4,2257.4,24.0
90.5,2208.6,,2304.1,2256.4,67.5
91.0,2160.4,,2389.6,2275.0,162.0
91.5,2020.4,,2308.2,2164.3,203.5
92.0,1923.7,,2254.7,2089.2,234.1
92.5,1779.9,,2374.1,2077.0,420.2