Folder: fsri_materials_database/01_Data/Pressure_Treated_Deck/FTIR/IS (part 2)

File: Pressure_Treated_Deck_IS_S_221012_R5.dpt
7497.03,0.79624
7473.89,0.80660
7450.74,0.80167
7427.6,0.80315
7404.45,0.77969
7381.31,0.78523
7358.16,0.78273
7335.02,0.76730
7311.87,0.76337
7288.73,0.76869
7265.58,0.76908
7242.44,0.76674
7219.29,0.76447
7196.15,0.75754
7173,0.75307
7149.86,0.75094
7126.71,0.73864
7103.57,0.73066
7080.42,0.70513
7057.28,0.68903
7034.13,0.67325
7010.99,0.66006
6987.84,0.64526
6964.7,0.64390
6941.55,0.63132
6918.41,0.62803
6895.26,0.62823
6872.12,0.62907
6848.97,0.63693
6825.83,0.63474
6802.68,0.63393
6779.54,0.62619
6756.39,0.62641
6733.25,0.63920
6710.1,0.63049
6686.96,0.63861
6663.82,0.64512
6640.67,0.64496
6617.53,0.64820
6594.38,0.65538
6571.24,0.65736
6548.09,0.65761
6524.95,0.65967
6501.8,0.66208
6478.66,0.66570
6455.51,0.66196
6432.37,0.67034
6409.22,0.67011
6386.08,0.66862
6362.93,0.66921
6339.79,0.67777
6316.64,0.67709
6293.5,0.67673
6270.35,0.68290
6247.21,0.69190
6224.06,0.69470
6200.92,0.69956
6177.77,0.70537
6154.63,0.71305
6131.48,0.71544
6108.34,0.72177
6085.19,0.72206
6062.05,0.71709
6038.9,0.71899
6015.76,0.70786
5992.61,0.69986
5969.47,0.70570
5946.32,0.70178
5923.18,0.70122
5900.03,0.69662
5876.89,0.69343
5853.74,0.69619
5830.6,0.69324
5807.45,0.68860
5784.31,0.68930
5761.16,0.69311
5738.02,0.69117
5714.87,0.69358
5691.73,0.69248
5668.58,0.69002
5645.44,0.69062
5622.29,0.69210
5599.15,0.69159
5576,0.69151
5552.86,0.69579
5529.71,0.69481
5506.57,0.69942
5483.42,0.69875
5460.28,0.70141
5437.13,0.70402
5413.99,0.70748
5390.84,0.71199
5367.7,0.71124
5344.55,0.70766
5321.41,0.69724
5298.26,0.67801
5275.12,0.63951
5251.97,0.59440
5228.83,0.56085
5205.68,0.54662
5182.54,0.54670
5159.39,0.55357
5136.25,0.56594
5113.1,0.58041
5089.96,0.59360
5066.81,0.60487
5043.67,0.61520
5020.52,0.62110
4997.38,0.62488
4974.23,0.62153
4951.09,0.60755
4927.94,0.58905
4904.8,0.56692
4881.65,0.54847
4858.51,0.52987
4835.36,0.51496
4812.22,0.50306
4789.07,0.49825
4765.93,0.49441
4742.78,0.49327
4719.64,0.49628
4696.49,0.49972
4673.35,0.50353
4650.2,0.51322
4627.06,0.52240
4603.92,0.53519
4580.77,0.54531
4557.63,0.55164
4534.48,0.55593
4511.34,0.55589
4488.19,0.54792
4465.05,0.52574
4441.9,0.49757
4418.76,0.46728
4395.61,0.45253
4372.47,0.45939
4349.32,0.46366
4326.18,0.45823
4303.03,0.44736
4279.89,0.44108
4256.74,0.44503
4233.6,0.44733
4210.45,0.44732
4187.31,0.44919
4164.16,0.45478
4141.02,0.44910
4117.87,0.43522
4094.73,0.41517
4071.58,0.39151
4048.44,0.36928
4025.29,0.35486
4002.15,0.35191
3979,0.35657
3955.86,0.36624
3932.71,0.37747
3909.57,0.38928
3886.42,0.39988
3863.28,0.40937
3840.13,0.41974
3816.99,0.42241
3793.84,0.42077
3770.7,0.41703
3747.55,0.40843
3724.41,0.39005
3701.26,0.35666
3678.12,0.29005
3654.97,0.20379
3631.83,0.14731
3608.68,0.11040
3585.54,0.08524
3562.39,0.07064
3539.25,0.06127
3516.1,0.05538
3492.96,0.05158
3469.81,0.04907
3446.67,0.04760
3423.52,0.04821
3400.38,0.04912
3377.23,0.05002
3354.09,0.05139
3330.94,0.05403
3307.8,0.05735
3284.65,0.06022
3261.51,0.06477
3238.36,0.07060
3215.22,0.07642
3192.07,0.08277
3168.93,0.09110
3145.78,0.10000
3122.64,0.10866
3099.49,0.11772
3076.35,0.12505
3053.2,0.13276
3030.06,0.13766
3006.91,0.13158
2983.77,0.11847
2960.62,0.09418
2937.48,0.08048
2914.33,0.08019
2891.19,0.08265
2868.04,0.08876
2844.9,0.10406
2821.75,0.13121
2798.61,0.15126
2775.46,0.16089
2752.32,0.16539
2729.17,0.16877
2706.03,0.17699
2682.88,0.18664
2659.74,0.19380
2636.59,0.20059
2613.45,0.20810
2590.3,0.21518
2567.16,0.21914
2544.02,0.22148
2520.87,0.22780
2497.73,0.23745
2474.58,0.24770
2451.44,0.25710
2428.29,0.26827
2405.15,0.28108
2382,0.29238
2358.86,0.30158
2335.71,0.30738
2312.57,0.31012
2289.42,0.30835
2266.28,0.30445
2243.13,0.29991
2219.99,0.29692
2196.84,0.29206
2173.7,0.27916
2150.55,0.26913
2127.41,0.26639
2104.26,0.26964
2081.12,0.27030
2057.97,0.26546
2034.83,0.27130
2011.68,0.28405
1988.54,0.29263
1965.39,0.29975
1942.25,0.31080
1919.1,0.31722
1895.96,0.31671
1872.81,0.31434
1849.67,0.30866
1826.52,0.29594
1803.38,0.26427
1780.23,0.20986
1757.09,0.12045
1733.94,0.09161
1710.8,0.10940
1687.65,0.11321
1664.51,0.09106
1641.36,0.09221
1618.22,0.09177
1595.07,0.08657
1571.93,0.12548
1548.78,0.14289
1525.64,0.09584
1502.49,0.06899
1479.35,0.07856
1456.2,0.06134
1433.06,0.05837
1409.91,0.06462
1386.77,0.05964
1363.62,0.05877
1340.48,0.06017
1317.33,0.05822
1294.19,0.05829
1271.04,0.05142
1247.9,0.05659
1224.75,0.05630
1201.61,0.05824
1178.46,0.04977
1155.32,0.05065
1132.17,0.04396
1109.03,0.04811
1085.88,0.05040
1062.74,0.06912
1039.59,0.07448
1016.45,0.08715
993.304,0.09319
970.159,0.11040
947.014,0.12455
923.869,0.13092
900.724,0.11132
877.579,0.11913
854.434,0.12558
831.289,0.12303
808.144,0.10762
784.999,0.11039
761.854,0.10169
738.709,0.09422
715.565,0.08583
692.42,0.08065
669.275,0.07427
646.13,0.07449
622.985,0.07172
599.84,0.07811

File: Pressure_Treated_Deck_IS_S_221012_R6.dpt
7497.03,0.81074
7473.89,0.79888
7450.74,0.78697
7427.6,0.79302
7404.45,0.77910
7381.31,0.77891
7358.16,0.77677
7335.02,0.77820
7311.87,0.77759
7288.73,0.77668
7265.58,0.76183
7242.44,0.75934
7219.29,0.76600
7196.15,0.77128
7173,0.76396
7149.86,0.74950
7126.71,0.73167
7103.57,0.72503
7080.42,0.70984
7057.28,0.69233
7034.13,0.67206
7010.99,0.65850
6987.84,0.65278
6964.7,0.64007
6941.55,0.63155
6918.41,0.63469
6895.26,0.63872
6872.12,0.63215
6848.97,0.63234
6825.83,0.62623
6802.68,0.63122
6779.54,0.62792
6756.39,0.63300
6733.25,0.63521
6710.1,0.63215
6686.96,0.64238
6663.82,0.64519
6640.67,0.64725
6617.53,0.65483
6594.38,0.65118
6571.24,0.65767
6548.09,0.65367
6524.95,0.65907
6501.8,0.66733
6478.66,0.66660
6455.51,0.66379
6432.37,0.66520
6409.22,0.67061
6386.08,0.67471
6362.93,0.67517
6339.79,0.67705
6316.64,0.67849
6293.5,0.67705
6270.35,0.68097
6247.21,0.68771
6224.06,0.69533
6200.92,0.70329
6177.77,0.70871
6154.63,0.71379
6131.48,0.71912
6108.34,0.72133
6085.19,0.72051
6062.05,0.71798
6038.9,0.71353
6015.76,0.70600
5992.61,0.70382
5969.47,0.69979
5946.32,0.70194
5923.18,0.70277
5900.03,0.69827
5876.89,0.69516
5853.74,0.69630
5830.6,0.69138
5807.45,0.68998
5784.31,0.68839
5761.16,0.69021
5738.02,0.69464
5714.87,0.69119
5691.73,0.69262
5668.58,0.69025
5645.44,0.69207
5622.29,0.69051
5599.15,0.69209
5576,0.68928
5552.86,0.69465
5529.71,0.69638
5506.57,0.69604
5483.42,0.70121
5460.28,0.70054
5437.13,0.70510
5413.99,0.70747
5390.84,0.71300
5367.7,0.71138
5344.55,0.70843
5321.41,0.69952
5298.26,0.67929
5275.12,0.64160
5251.97,0.59434
5228.83,0.56454
5205.68,0.55039
5182.54,0.54686
5159.39,0.55503
5136.25,0.56778
5113.1,0.58199
5089.96,0.59476
5066.81,0.60584
5043.67,0.61653
5020.52,0.62455
4997.38,0.62535
4974.23,0.62021
4951.09,0.60875
4927.94,0.58915
4904.8,0.56802
4881.65,0.54706
4858.51,0.53070
4835.36,0.51531
4812.22,0.50367
4789.07,0.49652
4765.93,0.49290
4742.78,0.49272
4719.64,0.49773
4696.49,0.49965
4673.35,0.50483
4650.2,0.51376
4627.06,0.52193
4603.92,0.53470
4580.77,0.54520
4557.63,0.55224
4534.48,0.55562
4511.34,0.55646
4488.19,0.54843
4465.05,0.52609
4441.9,0.49818
4418.76,0.46752
4395.61,0.45308
4372.47,0.46012
4349.32,0.46371
4326.18,0.45809
4303.03,0.44825
4279.89,0.44112
4256.74,0.44460
4233.6,0.44833
4210.45,0.44807
4187.31,0.44941
4164.16,0.45436
4141.02,0.44918
4117.87,0.43538
4094.73,0.41557
4071.58,0.39211
4048.44,0.36966
4025.29,0.35507
4002.15,0.35192
3979,0.35638
3955.86,0.36652
3932.71,0.37785
3909.57,0.39016
3886.42,0.39998
3863.28,0.40922
3840.13,0.42028
3816.99,0.42277
3793.84,0.42153
3770.7,0.41833
3747.55,0.40921
3724.41,0.39086
3701.26,0.35802
3678.12,0.29211
3654.97,0.20528
3631.83,0.14841
3608.68,0.11088
3585.54,0.08619
3562.39,0.07101
3539.25,0.06137
3516.1,0.05532
3492.96,0.05162
3469.81,0.04934
3446.67,0.04883
3423.52,0.04776
3400.38,0.04902
3377.23,0.04990
3354.09,0.05100
3330.94,0.05442
3307.8,0.05701
3284.65,0.05987
3261.51,0.06425
3238.36,0.07013
3215.22,0.07624
3192.07,0.08328
3168.93,0.09126
3145.78,0.10032
3122.64,0.10889
3099.49,0.11745
3076.35,0.12497
3053.2,0.13371
3030.06,0.13862
3006.91,0.13197
2983.77,0.11880
2960.62,0.09381
2937.48,0.08062
2914.33,0.08016
2891.19,0.08263
2868.04,0.08855
2844.9,0.10454
2821.75,0.13100
2798.61,0.15147
2775.46,0.16041
2752.32,0.16565
2729.17,0.16862
2706.03,0.17728
2682.88,0.18724
2659.74,0.19384
2636.59,0.20071
2613.45,0.20825
2590.3,0.21499
2567.16,0.21954
2544.02,0.22158
2520.87,0.22793
2497.73,0.23770
2474.58,0.24799
2451.44,0.25780
2428.29,0.26848
2405.15,0.28170
2382,0.29229
2358.86,0.30180
2335.71,0.30786
2312.57,0.31079
2289.42,0.30868
2266.28,0.30469
2243.13,0.29982
2219.99,0.29760
2196.84,0.29281
2173.7,0.27979
2150.55,0.26960
2127.41,0.26717
2104.26,0.27017
2081.12,0.27090
2057.97,0.26637
2034.83,0.27230
2011.68,0.28487
1988.54,0.29363
1965.39,0.30053
1942.25,0.31126
1919.1,0.31744
1895.96,0.31721
1872.81,0.31458
1849.67,0.30952
1826.52,0.29625
1803.38,0.26442
1780.23,0.20998
1757.09,0.12010
1733.94,0.09170
1710.8,0.10979
1687.65,0.11305
1664.51,0.09150
1641.36,0.09251
1618.22,0.09150
1595.07,0.08675
1571.93,0.12499
1548.78,0.14361
1525.64,0.09606
1502.49,0.06913
1479.35,0.07856
1456.2,0.06163
1433.06,0.05834
1409.91,0.06488
1386.77,0.05967
1363.62,0.05916
1340.48,0.06008
1317.33,0.05806
1294.19,0.05831
1271.04,0.05164
1247.9,0.05657
1224.75,0.05646
1201.61,0.05796
1178.46,0.04949
1155.32,0.05067
1132.17,0.04391
1109.03,0.04852
1085.88,0.05042
1062.74,0.06984
1039.59,0.07518
1016.45,0.08670
993.304,0.09314
970.159,0.11071
947.014,0.12415
923.869,0.13100
900.724,0.11098
877.579,0.11899
854.434,0.12510
831.289,0.12281
808.144,0.10883
784.999,0.10972
761.854,0.10253
738.709,0.09536
715.565,0.08660
692.42,0.08175
669.275,0.07391
646.13,0.07595
622.985,0.07142
599.84,0.07664

File: Pressure_Treated_Deck_IS_S_221012_R8.dpt
7497.03,0.81354
7473.89,0.79969
7450.74,0.78522
7427.6,0.79297
7404.45,0.78461
7381.31,0.78402
7358.16,0.77292
7335.02,0.77298
7311.87,0.76878
7288.73,0.77229
7265.58,0.76746
7242.44,0.76141
7219.29,0.76023
7196.15,0.75842
7173,0.75482
7149.86,0.74831
7126.71,0.73716
7103.57,0.72495
7080.42,0.70626
7057.28,0.69144
7034.13,0.67323
7010.99,0.66020
6987.84,0.64036
6964.7,0.63928
6941.55,0.63051
6918.41,0.63020
6895.26,0.63535
6872.12,0.63368
6848.97,0.63270
6825.83,0.63412
6802.68,0.63124
6779.54,0.63547
6756.39,0.63224
6733.25,0.63230
6710.1,0.63686
6686.96,0.64281
6663.82,0.64465
6640.67,0.64804
6617.53,0.65065
6594.38,0.65812
6571.24,0.65996
6548.09,0.65954
6524.95,0.66580
6501.8,0.66480
6478.66,0.66492
6455.51,0.66763
6432.37,0.66760
6409.22,0.67394
6386.08,0.67098
6362.93,0.67627
6339.79,0.67675
6316.64,0.67444
6293.5,0.68211
6270.35,0.68600
6247.21,0.68809
6224.06,0.69971
6200.92,0.69997
6177.77,0.71049
6154.63,0.71705
6131.48,0.71872
6108.34,0.72222
6085.19,0.72660
6062.05,0.71923
6038.9,0.72113
6015.76,0.71466
5992.61,0.70478
5969.47,0.70336
5946.32,0.70476
5923.18,0.70648
5900.03,0.70263
5876.89,0.69569
5853.74,0.69790
5830.6,0.69643
5807.45,0.69686
5784.31,0.69100
5761.16,0.69460
5738.02,0.69593
5714.87,0.69339
5691.73,0.69410
5668.58,0.69436
5645.44,0.69362
5622.29,0.69457
5599.15,0.69238
5576,0.69391
5552.86,0.69689
5529.71,0.69870
5506.57,0.69989
5483.42,0.70121
5460.28,0.70449
5437.13,0.70835
5413.99,0.71486
5390.84,0.71590
5367.7,0.71460
5344.55,0.71166
5321.41,0.70332
5298.26,0.68277
5275.12,0.64551
5251.97,0.60028
5228.83,0.56703
5205.68,0.55295
5182.54,0.55164
5159.39,0.56107
5136.25,0.57282
5113.1,0.58626
5089.96,0.59842
5066.81,0.61044
5043.67,0.62159
5020.52,0.62757
4997.38,0.63003
4974.23,0.62599
4951.09,0.61045
4927.94,0.59205
4904.8,0.57043
4881.65,0.54919
4858.51,0.53117
4835.36,0.51827
4812.22,0.50629
4789.07,0.49853
4765.93,0.49487
4742.78,0.49550
4719.64,0.49880
4696.49,0.50182
4673.35,0.50679
4650.2,0.51479
4627.06,0.52414
4603.92,0.53802
4580.77,0.54815
4557.63,0.55455
4534.48,0.55812
4511.34,0.56041
4488.19,0.54957
4465.05,0.52729
4441.9,0.49915
4418.76,0.46893
4395.61,0.45491
4372.47,0.46087
4349.32,0.46456
4326.18,0.46015
4303.03,0.44915
4279.89,0.44252
4256.74,0.44618
4233.6,0.45022
4210.45,0.44850
4187.31,0.45078
4164.16,0.45662
4141.02,0.45112
4117.87,0.43676
4094.73,0.41780
4071.58,0.39371
4048.44,0.37152
4025.29,0.35645
4002.15,0.35370
3979,0.35782
3955.86,0.36762
3932.71,0.38002
3909.57,0.39142
3886.42,0.40186
3863.28,0.41071
3840.13,0.42230
3816.99,0.42526
3793.84,0.42374
3770.7,0.41962
3747.55,0.41244
3724.41,0.39368
3701.26,0.36025
3678.12,0.29502
3654.97,0.20805
3631.83,0.14997
3608.68,0.11188
3585.54,0.08720
3562.39,0.07131
3539.25,0.06187
3516.1,0.05563
3492.96,0.05132
3469.81,0.04842
3446.67,0.04769
3423.52,0.04817
3400.38,0.04920
3377.23,0.04956
3354.09,0.05112
3330.94,0.05464
3307.8,0.05706
3284.65,0.06046
3261.51,0.06425
3238.36,0.07005
3215.22,0.07545
3192.07,0.08353
3168.93,0.09150
3145.78,0.10110
3122.64,0.11020
3099.49,0.11876
3076.35,0.12592
3053.2,0.13453
3030.06,0.13882
3006.91,0.13275
2983.77,0.11909
2960.62,0.09413
2937.48,0.08106
2914.33,0.08067
2891.19,0.08276
2868.04,0.08958
2844.9,0.10479
2821.75,0.13165
2798.61,0.15183
2775.46,0.16139
2752.32,0.16606
2729.17,0.16964
2706.03,0.17828
2682.88,0.18777
2659.74,0.19483
2636.59,0.20182
2613.45,0.20923
2590.3,0.21601
2567.16,0.22071
2544.02,0.22237
2520.87,0.22891
2497.73,0.23881
2474.58,0.24904
2451.44,0.25889
2428.29,0.26963
2405.15,0.28287
2382,0.29342
2358.86,0.30290
2335.71,0.30913
2312.57,0.31203
2289.42,0.30997
2266.28,0.30668
2243.13,0.30167
2219.99,0.29945
2196.84,0.29419
2173.7,0.28135
2150.55,0.27164
2127.41,0.26833
2104.26,0.27176
2081.12,0.27299
2057.97,0.26786
2034.83,0.27356
2011.68,0.28641
1988.54,0.29508
1965.39,0.30230
1942.25,0.31322
1919.1,0.31970
1895.96,0.31908
1872.81,0.31646
1849.67,0.31128
1826.52,0.29814
1803.38,0.26580
1780.23,0.21074
1757.09,0.12025
1733.94,0.09217
1710.8,0.10993
1687.65,0.11393
1664.51,0.09189
1641.36,0.09312
1618.22,0.09262
1595.07,0.08704
1571.93,0.12601
1548.78,0.14346
1525.64,0.09653
1502.49,0.06928
1479.35,0.07882
1456.2,0.06162
1433.06,0.05872
1409.91,0.06525
1386.77,0.06023
1363.62,0.05854
1340.48,0.05971
1317.33,0.05779
1294.19,0.05858
1271.04,0.05103
1247.9,0.05670
1224.75,0.05674
1201.61,0.05839
1178.46,0.04898
1155.32,0.05084
1132.17,0.04391
1109.03,0.04866
1085.88,0.05056
1062.74,0.06910
1039.59,0.07480
1016.45,0.08699
993.304,0.09392
970.159,0.11030
947.014,0.12502
923.869,0.13087
900.724,0.11121
877.579,0.11934
854.434,0.12575
831.289,0.12398
808.144,0.10781
784.999,0.11021
761.854,0.10231
738.709,0.09416
715.565,0.08692
692.42,0.08175
669.275,0.07315
646.13,0.07506
622.985,0.07097
599.84,0.07552

File: Pressure_Treated_Deck_IS_T_221012_R1.dpt
7497.03,0.03266
7473.89,0.02170
7450.74,0.02279
7427.6,0.02127
7404.45,0.02029
7381.31,0.02180
7358.16,0.03030
7335.02,0.02472
7311.87,0.02159
7288.73,0.02454
7265.58,0.01675
7242.44,0.03070
7219.29,0.02711
7196.15,0.02031
7173,0.03237
7149.86,0.01929
7126.71,0.01964
7103.57,0.02554
7080.42,0.02184
7057.28,0.01672
7034.13,0.02473
7010.99,0.02657
6987.84,0.01931
6964.7,0.01739
6941.55,0.01960
6918.41,0.01688
6895.26,0.02871
6872.12,0.01869
6848.97,0.01904
6825.83,0.02506
6802.68,0.02791
6779.54,0.02584
6756.39,0.02617
6733.25,0.02594
6710.1,0.02764
6686.96,0.02415
6663.82,0.01684
6640.67,0.02273
6617.53,0.02500
6594.38,0.01634
6571.24,0.02531
6548.09,0.01721
6524.95,0.02403
6501.8,0.02482
6478.66,0.02125
6455.51,0.02379
6432.37,0.01962
6409.22,0.02429
6386.08,0.02260
6362.93,0.02324
6339.79,0.02182
6316.64,0.01978
6293.5,0.02112
6270.35,0.02010
6247.21,0.02075
6224.06,0.02165
6200.92,0.02520
6177.77,0.02601
6154.63,0.01996
6131.48,0.02049
6108.34,0.01987
6085.19,0.02136
6062.05,0.02062
6038.9,0.02150
6015.76,0.02195
5992.61,0.02114
5969.47,0.02127
5946.32,0.02317
5923.18,0.02363
5900.03,0.02045
5876.89,0.02167
5853.74,0.02172
5830.6,0.02130
5807.45,0.02170
5784.31,0.02185
5761.16,0.02462
5738.02,0.02148
5714.87,0.02195
5691.73,0.02294
5668.58,0.01897
5645.44,0.01979
5622.29,0.01871
5599.15,0.02107
5576,0.01969
5552.86,0.01973
5529.71,0.02061
5506.57,0.02415
5483.42,0.02167
5460.28,0.02071
5437.13,0.02104
5413.99,0.02081
5390.84,0.02189
5367.7,0.02177
5344.55,0.02167
5321.41,0.02022
5298.26,0.02154
5275.12,0.02037
5251.97,0.02325
5228.83,0.02048
5205.68,0.02221
5182.54,0.02184
5159.39,0.02197
5136.25,0.02196
5113.1,0.02129
5089.96,0.02191
5066.81,0.02128
5043.67,0.02352
5020.52,0.02082
4997.38,0.02118
4974.23,0.02139
4951.09,0.02077
4927.94,0.02275
4904.8,0.02263
4881.65,0.02227
4858.51,0.02234
4835.36,0.02107
4812.22,0.02258
4789.07,0.02245
4765.93,0.02201
4742.78,0.02132
4719.64,0.02329
4696.49,0.02071
4673.35,0.02237
4650.2,0.02195
4627.06,0.02183
4603.92,0.02255
4580.77,0.02196
4557.63,0.02191
4534.48,0.02111
4511.34,0.02242
4488.19,0.02190
4465.05,0.02278
4441.9,0.02192
4418.76,0.02161
4395.61,0.02187
4372.47,0.02154
4349.32,0.02203
4326.18,0.02244
4303.03,0.02183
4279.89,0.02193
4256.74,0.02138
4233.6,0.02324
4210.45,0.02293
4187.31,0.02146
4164.16,0.02209
4141.02,0.02200
4117.87,0.02145
4094.73,0.02200
4071.58,0.02219
4048.44,0.02226
4025.29,0.02188
4002.15,0.02179
3979,0.02255
3955.86,0.02304
3932.71,0.02265
3909.57,0.02230
3886.42,0.02252
3863.28,0.02266
3840.13,0.02147
3816.99,0.02262
3793.84,0.02260
3770.7,0.02237
3747.55,0.02267
3724.41,0.02265
3701.26,0.02214
3678.12,0.02267
3654.97,0.02179
3631.83,0.02133
3608.68,0.02191
3585.54,0.02082
3562.39,0.02137
3539.25,0.02100
3516.1,0.02078
3492.96,0.02091
3469.81,0.02076
3446.67,0.02060
3423.52,0.02038
3400.38,0.01966
3377.23,0.02078
3354.09,0.02009
3330.94,0.01989
3307.8,0.02118
3284.65,0.02061
3261.51,0.02013
3238.36,0.02082
3215.22,0.02037
3192.07,0.02068
3168.93,0.02101
3145.78,0.02105
3122.64,0.02040
3099.49,0.02059
3076.35,0.02081
3053.2,0.02033
3030.06,0.02061
3006.91,0.02027
2983.77,0.02001
2960.62,0.01987
2937.48,0.01936
2914.33,0.02058
2891.19,0.02041
2868.04,0.02040
2844.9,0.02180
2821.75,0.02089
2798.61,0.02147
2775.46,0.02147
2752.32,0.02158
2729.17,0.02184
2706.03,0.02139
2682.88,0.02129
2659.74,0.02192
2636.59,0.02133
2613.45,0.02133
2590.3,0.02112
2567.16,0.02136
2544.02,0.02160
2520.87,0.02120
2497.73,0.02196
2474.58,0.02131
2451.44,0.02127
2428.29,0.02110
2405.15,0.02163
2382,0.02150
2358.86,0.02163
2335.71,0.02112
2312.57,0.02135
2289.42,0.02149
2266.28,0.02125
2243.13,0.02105
2219.99,0.02138
2196.84,0.02115
2173.7,0.02129
2150.55,0.02090
2127.41,0.02119
2104.26,0.02122
2081.12,0.02135
2057.97,0.02118
2034.83,0.02126
2011.68,0.02078
1988.54,0.02112
1965.39,0.02148
1942.25,0.02104
1919.1,0.02124
1895.96,0.02075
1872.81,0.02079
1849.67,0.02095
1826.52,0.02040
1803.38,0.02008
1780.23,0.01944
1757.09,0.01764
1733.94,0.01995
1710.8,0.02046
1687.65,0.01942
1664.51,0.01858
1641.36,0.01897
1618.22,0.01915
1595.07,0.01916
1571.93,0.01897
1548.78,0.01833
1525.64,0.01910
1502.49,0.01884
1479.35,0.01879
1456.2,0.01868
1433.06,0.01905
1409.91,0.01888
1386.77,0.01808
1363.62,0.01840
1340.48,0.01819
1317.33,0.01714
1294.19,0.01835
1271.04,0.01950
1247.9,0.02047
1224.75,0.01968
1201.61,0.01891
1178.46,0.01795
1155.32,0.01777
1132.17,0.01761
1109.03,0.01888
1085.88,0.01889
1062.74,0.01990
1039.59,0.01975
1016.45,0.01929
993.304,0.02130
970.159,0.02068
947.014,0.01998
923.869,0.01934
900.724,0.01894
877.579,0.01870
854.434,0.01924
831.289,0.01883
808.144,0.01973
784.999,0.01801
761.854,0.01888
738.709,0.01788
715.565,0.01772
692.42,0.01833
669.275,0.01712
646.13,0.01558
622.985,0.01495
599.84,0.01513

File: Pressure_Treated_Deck_IS_T_221012_R6.dpt
7497.03,0.02353
7473.89,0.01745
7450.74,0.02310
7427.6,0.02531
7404.45,0.01679
7381.31,0.02235
7358.16,0.03147
7335.02,0.02369
7311.87,0.02179
7288.73,0.02700
7265.58,0.02346
7242.44,0.02281
7219.29,0.02106
7196.15,0.01765
7173,0.02161
7149.86,0.02283
7126.71,0.01551
7103.57,0.01932
7080.42,0.02245
7057.28,0.01947
7034.13,0.01934
7010.99,0.02842
6987.84,0.01775
6964.7,0.02630
6941.55,0.01741
6918.41,0.01339
6895.26,0.02799
6872.12,0.01843
6848.97,0.02147
6825.83,0.02639
6802.68,0.01705
6779.54,0.02453
6756.39,0.02910
6733.25,0.02356
6710.1,0.02064
6686.96,0.02342
6663.82,0.02076
6640.67,0.02202
6617.53,0.02470
6594.38,0.01848
6571.24,0.01808
6548.09,0.01867
6524.95,0.02299
6501.8,0.01868
6478.66,0.02238
6455.51,0.02231
6432.37,0.02261
6409.22,0.02521
6386.08,0.02353
6362.93,0.02088
6339.79,0.01950
6316.64,0.02032
6293.5,0.02250
6270.35,0.02126
6247.21,0.02396
6224.06,0.01789
6200.92,0.02293
6177.77,0.02174
6154.63,0.02162
6131.48,0.02171
6108.34,0.02183
6085.19,0.02022
6062.05,0.02104
6038.9,0.02400
6015.76,0.01826
5992.61,0.02128
5969.47,0.02421
5946.32,0.02161
5923.18,0.01856
5900.03,0.02088
5876.89,0.02082
5853.74,0.02116
5830.6,0.02439
5807.45,0.02327
5784.31,0.02402
5761.16,0.02090
5738.02,0.02138
5714.87,0.02149
5691.73,0.02140
5668.58,0.02161
5645.44,0.01876
5622.29,0.02135
5599.15,0.02080
5576,0.02048
5552.86,0.01903
5529.71,0.02104
5506.57,0.02208
5483.42,0.02196
5460.28,0.02313
5437.13,0.02101
5413.99,0.02433
5390.84,0.02209
5367.7,0.02081
5344.55,0.02189
5321.41,0.02124
5298.26,0.02214
5275.12,0.02194
5251.97,0.02130
5228.83,0.02146
5205.68,0.02067
5182.54,0.02138
5159.39,0.02178
5136.25,0.02126
5113.1,0.02132
5089.96,0.02109
5066.81,0.02213
5043.67,0.02266
5020.52,0.02269
4997.38,0.02320
4974.23,0.02303
4951.09,0.02189
4927.94,0.02055
4904.8,0.02201
4881.65,0.02113
4858.51,0.02333
4835.36,0.02134
4812.22,0.02207
4789.07,0.02165
4765.93,0.02227
4742.78,0.02183
4719.64,0.02070
4696.49,0.02112
4673.35,0.02207
4650.2,0.02205
4627.06,0.02213
4603.92,0.02178
4580.77,0.02210
4557.63,0.02217
4534.48,0.02158
4511.34,0.02147
4488.19,0.02211
4465.05,0.02131
4441.9,0.02136
4418.76,0.02130
4395.61,0.02195
4372.47,0.02166
4349.32,0.02201
4326.18,0.02175
4303.03,0.02221
4279.89,0.02226
4256.74,0.02233
4233.6,0.02253
4210.45,0.02196
4187.31,0.02204
4164.16,0.02128
4141.02,0.02192
4117.87,0.02239
4094.73,0.02244
4071.58,0.02201
4048.44,0.02274
4025.29,0.02147
4002.15,0.02274
3979,0.02281
3955.86,0.02246
3932.71,0.02279
3909.57,0.02192
3886.42,0.02246
3863.28,0.02225
3840.13,0.02279
3816.99,0.02192
3793.84,0.02216
3770.7,0.02207
3747.55,0.02259
3724.41,0.02192
3701.26,0.02235
3678.12,0.02139
3654.97,0.02180
3631.83,0.02175
3608.68,0.02133
3585.54,0.02055
3562.39,0.02082
3539.25,0.02139
3516.1,0.02076
3492.96,0.02098
3469.81,0.01958
3446.67,0.02019
3423.52,0.01983
3400.38,0.01945
3377.23,0.02107
3354.09,0.02006
3330.94,0.01979
3307.8,0.01943
3284.65,0.02026
3261.51,0.01979
3238.36,0.02042
3215.22,0.02067
3192.07,0.02076
3168.93,0.02062
3145.78,0.02033
3122.64,0.02070
3099.49,0.02050
3076.35,0.02039
3053.2,0.02108
3030.06,0.02005
3006.91,0.02007
2983.77,0.02007
2960.62,0.01903
2937.48,0.01961
2914.33,0.02033
2891.19,0.02051
2868.04,0.02032
2844.9,0.02099
2821.75,0.02115
2798.61,0.02099
2775.46,0.02103
2752.32,0.02099
2729.17,0.02124
2706.03,0.02140
2682.88,0.02092
2659.74,0.02143
2636.59,0.02127
2613.45,0.02092
2590.3,0.02135
2567.16,0.02105
2544.02,0.02109
2520.87,0.02119
2497.73,0.02116
2474.58,0.02113
2451.44,0.02118
2428.29,0.02147
2405.15,0.02127
2382,0.02110
2358.86,0.02076
2335.71,0.02133
2312.57,0.02125
2289.42,0.02140
2266.28,0.02150
2243.13,0.02111
2219.99,0.02113
2196.84,0.02099
2173.7,0.02126
2150.55,0.02105
2127.41,0.02075
2104.26,0.02084
2081.12,0.02101
2057.97,0.02086
2034.83,0.02105
2011.68,0.02118
1988.54,0.02095
1965.39,0.02107
1942.25,0.02085
1919.1,0.02087
1895.96,0.02095
1872.81,0.02078
1849.67,0.02056
1826.52,0.02028
1803.38,0.02000
1780.23,0.01908
1757.09,0.01762
1733.94,0.01964
1710.8,0.02080
1687.65,0.01921
1664.51,0.01841
1641.36,0.01867
1618.22,0.01916
1595.07,0.01877
1571.93,0.01825
1548.78,0.01808
1525.64,0.01949
1502.49,0.01886
1479.35,0.01868
1456.2,0.01837
1433.06,0.01910
1409.91,0.01839
1386.77,0.01822
1363.62,0.01815
1340.48,0.01823
1317.33,0.01709
1294.19,0.01780
1271.04,0.01917
1247.9,0.02018
1224.75,0.01959
1201.61,0.01851
1178.46,0.01813
1155.32,0.01764
1132.17,0.01790
1109.03,0.01871
1085.88,0.01795
1062.74,0.02029
1039.59,0.01937
1016.45,0.01934
993.304,0.02158
970.159,0.02029
947.014,0.02015
923.869,0.01877
900.724,0.01947
877.579,0.01905
854.434,0.01891
831.289,0.01916
808.144,0.01906
784.999,0.01842
761.854,0.01848
738.709,0.01860
715.565,0.01794
692.42,0.01745
669.275,0.01657
646.13,0.01582
622.985,0.01666
599.84,0.01370