Folder: fsri_materials_database/01_Data/Pressure_Treated_Deck/FTIR/IS

Note: README.md
# Materials and Products Database
### Repository of materials and products properties and fire test data to improve fire modeling and fire investigation.

This project was supported in part by Award No. 2019-DU-BX-0018, awarded by the National Institute of Justice, Office of Justice Programs, U.S. Department of Justice. The opinions, findings, and conclusions or recommendations expressed in this publication / program / exhibition are those of the author(s) and do not necessarily reflect those of the Department of Justice.

***
***

__Cite this database:__ "McKinnon, M., Weinschenk, C., Dow, N., DiDomizio, M., and Madrzykowski, D. Materials and Products Database (Version 1.0.0), Fire Safety Research Institute, UL Research Institutes. Columbia, MD 21045, 2023."

__Cite the Technical Reference Guide:__ "McKinnon, M., Weinschenk, C., and Madrzykowski, D. Materials and Products Database - Technical Reference Guide, Fire Safety Research Institute, UL Research Institutes. Columbia, MD 21045, 2023."

__Cite the User Guide:__ "McKinnon, M., and Weinschenk, C. Materials and Products Database - User Guide, Fire Safety Research Institute, UL Research Institutes. Columbia, MD 21045, 2023."

***
***

## Database Structure

## 01_Data/
Raw data generated from each apparatus are included here in plain-text format. The data is organized first by material, next by the short name of test apparatus used, and where applicable additional filtering by test settings.

### Test Apparatus and Data File Structure
- __Cone Calorimeter__ (Cone)
    + Data file structure includes the material, the short name for the apparatus, heat flux setting and scan/scalar, date of test, and replicate number. Scan is for the raw output data and scalar is for the initial conditions and high-level test parameters. 
        * Example: __MDF_Cone_HF25scalar_210323_R1__ stands for the first replicate of scalar data generated from a medium density fiber board test in cone calorimeter exposed to 25 kW/m<sup>2</sup> on March 23, 2021.
    + A _Cone_Notes.csv_ is generated for each material from the __plot_Cone_data.py__ script. For materials whose experiments deviated from typical behavior relevant pictures are included in the respective material directory.
- __Fourier Transform Infrared Spectrometer__ (FTIR)
    + The FTIR directory contains subdirectories for the Attenuated Total Reflectance method (ATR) and the Integrating Sphere (IS)
    + Data file structure for the ATR experiment files includes the material, the abbreviated name for the apparatus, date of test, and replicate number. 
        * Example: __MDF_ATR_210323_R5__ stands for the fifth replicate of data collected with the ATR accessory conducted on June 8, 2021.
    + Data file structure for the IS experiment files includes the material, the abbreviated name for the apparatus, the measurand, whether the test is a sample measurement or standard reference, date of test, and replicate number.
        * Example: __OSB_IS_REFLECT_MEAS_2

File: Pressure_Treated_Deck_IS_S_221012_R1.dpt
7497.03,0.80337
7473.89,0.78526
7450.74,0.78204
7427.6,0.78637
7404.45,0.78489
7381.31,0.77655
7358.16,0.77142
7335.02,0.75982
7311.87,0.76655
7288.73,0.75489
7265.58,0.75483
7242.44,0.75965
7219.29,0.75158
7196.15,0.76427
7173,0.75203
7149.86,0.73462
7126.71,0.72746
7103.57,0.71448
7080.42,0.69644
7057.28,0.67409
7034.13,0.66456
7010.99,0.64735
6987.84,0.63648
6964.7,0.63364
6941.55,0.62241
6918.41,0.61695
6895.26,0.62001
6872.12,0.61939
6848.97,0.62289
6825.83,0.62501
6802.68,0.62455
6779.54,0.62262
6756.39,0.62580
6733.25,0.62428
6710.1,0.63297
6686.96,0.62813
6663.82,0.63658
6640.67,0.64023
6617.53,0.64293
6594.38,0.64563
6571.24,0.64928
6548.09,0.65179
6524.95,0.65584
6501.8,0.64939
6478.66,0.65767
6455.51,0.65927
6432.37,0.65605
6409.22,0.66077
6386.08,0.66887
6362.93,0.66565
6339.79,0.67056
6316.64,0.66650
6293.5,0.67272
6270.35,0.67317
6247.21,0.68393
6224.06,0.68890
6200.92,0.69631
6177.77,0.70008
6154.63,0.70595
6131.48,0.71139
6108.34,0.70924
6085.19,0.71416
6062.05,0.71569
6038.9,0.70986
6015.76,0.70049
5992.61,0.69579
5969.47,0.69696
5946.32,0.69771
5923.18,0.70097
5900.03,0.69422
5876.89,0.69408
5853.74,0.68946
5830.6,0.68718
5807.45,0.68627
5784.31,0.68630
5761.16,0.69093
5738.02,0.68795
5714.87,0.68684
5691.73,0.68936
5668.58,0.68540
5645.44,0.68538
5622.29,0.68474
5599.15,0.68716
5576,0.68586
5552.86,0.68989
5529.71,0.69091
5506.57,0.69219
5483.42,0.69500
5460.28,0.69530
5437.13,0.70195
5413.99,0.70408
5390.84,0.70772
5367.7,0.70861
5344.55,0.70273
5321.41,0.69165
5298.26,0.66858
5275.12,0.62596
5251.97,0.57645
5228.83,0.54296
5205.68,0.52778
5182.54,0.52585
5159.39,0.53448
5136.25,0.54926
5113.1,0.56280
5089.96,0.57430
5066.81,0.58765
5043.67,0.59980
5020.52,0.60839
4997.38,0.61179
4974.23,0.60942
4951.09,0.60117
4927.94,0.58405
4904.8,0.56238
4881.65,0.54437
4858.51,0.52600
4835.36,0.51323
4812.22,0.50101
4789.07,0.49596
4765.93,0.49205
4742.78,0.49158
4719.64,0.49401
4696.49,0.49698
4673.35,0.50026
4650.2,0.51000
4627.06,0.51981
4603.92,0.53232
4580.77,0.54179
4557.63,0.54817
4534.48,0.55300
4511.34,0.55309
4488.19,0.54400
4465.05,0.52220
4441.9,0.49399
4418.76,0.46472
4395.61,0.45090
4372.47,0.45734
4349.32,0.46200
4326.18,0.45576
4303.03,0.44595
4279.89,0.43896
4256.74,0.44214
4233.6,0.44467
4210.45,0.44483
4187.31,0.44614
4164.16,0.45122
4141.02,0.44610
4117.87,0.43044
4094.73,0.41117
4071.58,0.38826
4048.44,0.36621
4025.29,0.35147
4002.15,0.34897
3979,0.35316
3955.86,0.36244
3932.71,0.37294
3909.57,0.38480
3886.42,0.39463
3863.28,0.40457
3840.13,0.41398
3816.99,0.41621
3793.84,0.41446
3770.7,0.40852
3747.55,0.39995
3724.41,0.37967
3701.26,0.34407
3678.12,0.27608
3654.97,0.18862
3631.83,0.13481
3608.68,0.10273
3585.54,0.08121
3562.39,0.06730
3539.25,0.05950
3516.1,0.05429
3492.96,0.05081
3469.81,0.04811
3446.67,0.04760
3423.52,0.04761
3400.38,0.04877
3377.23,0.04906
3354.09,0.05041
3330.94,0.05378
3307.8,0.05705
3284.65,0.05943
3261.51,0.06397
3238.36,0.06822
3215.22,0.07451
3192.07,0.07983
3168.93,0.08772
3145.78,0.09589
3122.64,0.10364
3099.49,0.11268
3076.35,0.11963
3053.2,0.12798
3030.06,0.13329
3006.91,0.12884
2983.77,0.11682
2960.62,0.09315
2937.48,0.08036
2914.33,0.07946
2891.19,0.08239
2868.04,0.08870
2844.9,0.10355
2821.75,0.12944
2798.61,0.14896
2775.46,0.15844
2752.32,0.16320
2729.17,0.16631
2706.03,0.17473
2682.88,0.18424
2659.74,0.19165
2636.59,0.19825
2613.45,0.20620
2590.3,0.21238
2567.16,0.21681
2544.02,0.21907
2520.87,0.22517
2497.73,0.23486
2474.58,0.24504
2451.44,0.25456
2428.29,0.26543
2405.15,0.27811
2382,0.28792
2358.86,0.29405
2335.71,0.29997
2312.57,0.30422
2289.42,0.30298
2266.28,0.29862
2243.13,0.29366
2219.99,0.29043
2196.84,0.28470
2173.7,0.27233
2150.55,0.26238
2127.41,0.25931
2104.26,0.26220
2081.12,0.26283
2057.97,0.25910
2034.83,0.26505
2011.68,0.27761
1988.54,0.28644
1965.39,0.29311
1942.25,0.30408
1919.1,0.31063
1895.96,0.31004
1872.81,0.30813
1849.67,0.30326
1826.52,0.29049
1803.38,0.26064
1780.23,0.20819
1757.09,0.12053
1733.94,0.09052
1710.8,0.10718
1687.65,0.10978
1664.51,0.08792
1641.36,0.08825
1618.22,0.08897
1595.07,0.08539
1571.93,0.12287
1548.78,0.14064
1525.64,0.09523
1502.49,0.06877
1479.35,0.07841
1456.2,0.06139
1433.06,0.05857
1409.91,0.06462
1386.77,0.06045
1363.62,0.05904
1340.48,0.05954
1317.33,0.05792
1294.19,0.05856
1271.04,0.05123
1247.9,0.05685
1224.75,0.05634
1201.61,0.05829
1178.46,0.04972
1155.32,0.05099
1132.17,0.04404
1109.03,0.04855
1085.88,0.04970
1062.74,0.06870
1039.59,0.07456
1016.45,0.08651
993.304,0.09331
970.159,0.10990
947.014,0.12379
923.869,0.12909
900.724,0.10934
877.579,0.11681
854.434,0.12237
831.289,0.11914
808.144,0.10348
784.999,0.10523
761.854,0.09770
738.709,0.09032
715.565,0.08294
692.42,0.07857
669.275,0.07335
646.13,0.07326
622.985,0.06973
599.84,0.07416

File: Pressure_Treated_Deck_IS_S_221012_R2.dpt
7497.03,0.79978
7473.89,0.78066
7450.74,0.77973
7427.6,0.76953
7404.45,0.77686
7381.31,0.77445
7358.16,0.76615
7335.02,0.76370
7311.87,0.76029
7288.73,0.75210
7265.58,0.76205
7242.44,0.76457
7219.29,0.76415
7196.15,0.75900
7173,0.74180
7149.86,0.74216
7126.71,0.72569
7103.57,0.71530
7080.42,0.69833
7057.28,0.68118
7034.13,0.66458
7010.99,0.65207
6987.84,0.64087
6964.7,0.63518
6941.55,0.63208
6918.41,0.62374
6895.26,0.62606
6872.12,0.62906
6848.97,0.62224
6825.83,0.62369
6802.68,0.62364
6779.54,0.62092
6756.39,0.62614
6733.25,0.62791
6710.1,0.63146
6686.96,0.63854
6663.82,0.63476
6640.67,0.64198
6617.53,0.64360
6594.38,0.64673
6571.24,0.65191
6548.09,0.65183
6524.95,0.65417
6501.8,0.65799
6478.66,0.65299
6455.51,0.65489
6432.37,0.66197
6409.22,0.66006
6386.08,0.66087
6362.93,0.66733
6339.79,0.67037
6316.64,0.66981
6293.5,0.67264
6270.35,0.67164
6247.21,0.68199
6224.06,0.69237
6200.92,0.69519
6177.77,0.70180
6154.63,0.70729
6131.48,0.71227
6108.34,0.71139
6085.19,0.71662
6062.05,0.71421
6038.9,0.70904
6015.76,0.70629
5992.61,0.69744
5969.47,0.69350
5946.32,0.69815
5923.18,0.69902
5900.03,0.69628
5876.89,0.69087
5853.74,0.69262
5830.6,0.68796
5807.45,0.68696
5784.31,0.68575
5761.16,0.68671
5738.02,0.68737
5714.87,0.68716
5691.73,0.68889
5668.58,0.68786
5645.44,0.68615
5622.29,0.68436
5599.15,0.68516
5576,0.68708
5552.86,0.68787
5529.71,0.68927
5506.57,0.69160
5483.42,0.69450
5460.28,0.69676
5437.13,0.70142
5413.99,0.70263
5390.84,0.70822
5367.7,0.70607
5344.55,0.70289
5321.41,0.69131
5298.26,0.66811
5275.12,0.62942
5251.97,0.58104
5228.83,0.54815
5205.68,0.53236
5182.54,0.52989
5159.39,0.53928
5136.25,0.55198
5113.1,0.56640
5089.96,0.57853
5066.81,0.59169
5043.67,0.60272
5020.52,0.61174
4997.38,0.61373
4974.23,0.61251
4951.09,0.60158
4927.94,0.58454
4904.8,0.56275
4881.65,0.54452
4858.51,0.52556
4835.36,0.51132
4812.22,0.49927
4789.07,0.49500
4765.93,0.49190
4742.78,0.49072
4719.64,0.49276
4696.49,0.49674
4673.35,0.50226
4650.2,0.50998
4627.06,0.52021
4603.92,0.53221
4580.77,0.54233
4557.63,0.54843
4534.48,0.55264
4511.34,0.55321
4488.19,0.54472
4465.05,0.52272
4441.9,0.49584
4418.76,0.46519
4395.61,0.45086
4372.47,0.45793
4349.32,0.46191
4326.18,0.45627
4303.03,0.44584
4279.89,0.43931
4256.74,0.44272
4233.6,0.44541
4210.45,0.44436
4187.31,0.44675
4164.16,0.45091
4141.02,0.44634
4117.87,0.43136
4094.73,0.41139
4071.58,0.38954
4048.44,0.36691
4025.29,0.35183
4002.15,0.34886
3979,0.35403
3955.86,0.36248
3932.71,0.37467
3909.57,0.38494
3886.42,0.39589
3863.28,0.40573
3840.13,0.41576
3816.99,0.41794
3793.84,0.41559
3770.7,0.41077
3747.55,0.40115
3724.41,0.38215
3701.26,0.34795
3678.12,0.28055
3654.97,0.19293
3631.83,0.13922
3608.68,0.10527
3585.54,0.08296
3562.39,0.06897
3539.25,0.05977
3516.1,0.05462
3492.96,0.05077
3469.81,0.04834
3446.67,0.04741
3423.52,0.04775
3400.38,0.04844
3377.23,0.04978
3354.09,0.05084
3330.94,0.05412
3307.8,0.05661
3284.65,0.05871
3261.51,0.06381
3238.36,0.06922
3215.22,0.07521
3192.07,0.08193
3168.93,0.08910
3145.78,0.09649
3122.64,0.10593
3099.49,0.11447
3076.35,0.12159
3053.2,0.12963
3030.06,0.13484
3006.91,0.12986
2983.77,0.11685
2960.62,0.09315
2937.48,0.08081
2914.33,0.08004
2891.19,0.08224
2868.04,0.08854
2844.9,0.10343
2821.75,0.12994
2798.61,0.14934
2775.46,0.15911
2752.32,0.16358
2729.17,0.16669
2706.03,0.17566
2682.88,0.18510
2659.74,0.19232
2636.59,0.19860
2613.45,0.20638
2590.3,0.21334
2567.16,0.21748
2544.02,0.21987
2520.87,0.22594
2497.73,0.23545
2474.58,0.24592
2451.44,0.25544
2428.29,0.26633
2405.15,0.27874
2382,0.28956
2358.86,0.29814
2335.71,0.30385
2312.57,0.30627
2289.42,0.30478
2266.28,0.30041
2243.13,0.29552
2219.99,0.29243
2196.84,0.28708
2173.7,0.27420
2150.55,0.26419
2127.41,0.26139
2104.26,0.26475
2081.12,0.26590
2057.97,0.26089
2034.83,0.26687
2011.68,0.27969
1988.54,0.28800
1965.39,0.29505
1942.25,0.30617
1919.1,0.31232
1895.96,0.31197
1872.81,0.30999
1849.67,0.30483
1826.52,0.29256
1803.38,0.26145
1780.23,0.20888
1757.09,0.12058
1733.94,0.09132
1710.8,0.10820
1687.65,0.11065
1664.51,0.08905
1641.36,0.08959
1618.22,0.09008
1595.07,0.08611
1571.93,0.12382
1548.78,0.14130
1525.64,0.09510
1502.49,0.06901
1479.35,0.07803
1456.2,0.06081
1433.06,0.05852
1409.91,0.06477
1386.77,0.05991
1363.62,0.05905
1340.48,0.05963
1317.33,0.05799
1294.19,0.05868
1271.04,0.05117
1247.9,0.05637
1224.75,0.05655
1201.61,0.05815
1178.46,0.04970
1155.32,0.05043
1132.17,0.04399
1109.03,0.04842
1085.88,0.04986
1062.74,0.06890
1039.59,0.07425
1016.45,0.08652
993.304,0.09333
970.159,0.10983
947.014,0.12388
923.869,0.12988
900.724,0.11051
877.579,0.11738
854.434,0.12355
831.289,0.12051
808.144,0.10578
784.999,0.10668
761.854,0.09909
738.709,0.09117
715.565,0.08433
692.42,0.08019
669.275,0.07245
646.13,0.07378
622.985,0.06996
599.84,0.07683

File: Pressure_Treated_Deck_IS_S_221012_R3.dpt
7497.03,0.81341
7473.89,0.79885
7450.74,0.79654
7427.6,0.79527
7404.45,0.77964
7381.31,0.78537
7358.16,0.78388
7335.02,0.75892
7311.87,0.76004
7288.73,0.76675
7265.58,0.76189
7242.44,0.76495
7219.29,0.77342
7196.15,0.75077
7173,0.76177
7149.86,0.74173
7126.71,0.73877
7103.57,0.72086
7080.42,0.70333
7057.28,0.68277
7034.13,0.67169
7010.99,0.65031
6987.84,0.64511
6964.7,0.63186
6941.55,0.63408
6918.41,0.63014
6895.26,0.62828
6872.12,0.62867
6848.97,0.62850
6825.83,0.63092
6802.68,0.63434
6779.54,0.63371
6756.39,0.62924
6733.25,0.63065
6710.1,0.63344
6686.96,0.63301
6663.82,0.64379
6640.67,0.64412
6617.53,0.64821
6594.38,0.65417
6571.24,0.65690
6548.09,0.66124
6524.95,0.65495
6501.8,0.65988
6478.66,0.66448
6455.51,0.66157
6432.37,0.66711
6409.22,0.66945
6386.08,0.66900
6362.93,0.67209
6339.79,0.67757
6316.64,0.67454
6293.5,0.67817
6270.35,0.68599
6247.21,0.68901
6224.06,0.69498
6200.92,0.69826
6177.77,0.70939
6154.63,0.70851
6131.48,0.71811
6108.34,0.71843
6085.19,0.72143
6062.05,0.72213
6038.9,0.71181
6015.76,0.70868
5992.61,0.70493
5969.47,0.69950
5946.32,0.70182
5923.18,0.70653
5900.03,0.69902
5876.89,0.69705
5853.74,0.69268
5830.6,0.69274
5807.45,0.69034
5784.31,0.68945
5761.16,0.69127
5738.02,0.69421
5714.87,0.69311
5691.73,0.69200
5668.58,0.69037
5645.44,0.69310
5622.29,0.68850
5599.15,0.68808
5576,0.69055
5552.86,0.69252
5529.71,0.69501
5506.57,0.69741
5483.42,0.69877
5460.28,0.70271
5437.13,0.70565
5413.99,0.71090
5390.84,0.71459
5367.7,0.71185
5344.55,0.70952
5321.41,0.69865
5298.26,0.67458
5275.12,0.63514
5251.97,0.58745
5228.83,0.55619
5205.68,0.53819
5182.54,0.53908
5159.39,0.54646
5136.25,0.55903
5113.1,0.57265
5089.96,0.58586
5066.81,0.59870
5043.67,0.60973
5020.52,0.61727
4997.38,0.62092
4974.23,0.61679
4951.09,0.60659
4927.94,0.58712
4904.8,0.56806
4881.65,0.54739
4858.51,0.53021
4835.36,0.51518
4812.22,0.50561
4789.07,0.49795
4765.93,0.49438
4742.78,0.49363
4719.64,0.49701
4696.49,0.50051
4673.35,0.50429
4650.2,0.51387
4627.06,0.52327
4603.92,0.53589
4580.77,0.54565
4557.63,0.55127
4534.48,0.55636
4511.34,0.55717
4488.19,0.54768
4465.05,0.52607
4441.9,0.49737
4418.76,0.46829
4395.61,0.45362
4372.47,0.45997
4349.32,0.46401
4326.18,0.45831
4303.03,0.44762
4279.89,0.44153
4256.74,0.44453
4233.6,0.44827
4210.45,0.44677
4187.31,0.44921
4164.16,0.45366
4141.02,0.44944
4117.87,0.43497
4094.73,0.41434
4071.58,0.39094
4048.44,0.36929
4025.29,0.35445
4002.15,0.35119
3979,0.35577
3955.86,0.36525
3932.71,0.37806
3909.57,0.38824
3886.42,0.39762
3863.28,0.40792
3840.13,0.41839
3816.99,0.42006
3793.84,0.41861
3770.7,0.41383
3747.55,0.40486
3724.41,0.38554
3701.26,0.35123
3678.12,0.28435
3654.97,0.19772
3631.83,0.14166
3608.68,0.10701
3585.54,0.08373
3562.39,0.06904
3539.25,0.06064
3516.1,0.05487
3492.96,0.05097
3469.81,0.04882
3446.67,0.04798
3423.52,0.04773
3400.38,0.04825
3377.23,0.04943
3354.09,0.05082
3330.94,0.05386
3307.8,0.05739
3284.65,0.05923
3261.51,0.06407
3238.36,0.06911
3215.22,0.07565
3192.07,0.08170
3168.93,0.09003
3145.78,0.09817
3122.64,0.10661
3099.49,0.11520
3076.35,0.12276
3053.2,0.13080
3030.06,0.13669
3006.91,0.13066
2983.77,0.11790
2960.62,0.09370
2937.48,0.08109
2914.33,0.08029
2891.19,0.08266
2868.04,0.08929
2844.9,0.10391
2821.75,0.13074
2798.61,0.14999
2775.46,0.16000
2752.32,0.16452
2729.17,0.16809
2706.03,0.17665
2682.88,0.18652
2659.74,0.19296
2636.59,0.19974
2613.45,0.20748
2590.3,0.21437
2567.16,0.21851
2544.02,0.22109
2520.87,0.22734
2497.73,0.23669
2474.58,0.24697
2451.44,0.25694
2428.29,0.26759
2405.15,0.28026
2382,0.29110
2358.86,0.30005
2335.71,0.30561
2312.57,0.30834
2289.42,0.30664
2266.28,0.30255
2243.13,0.29725
2219.99,0.29493
2196.84,0.28924
2173.7,0.27642
2150.55,0.26638
2127.41,0.26367
2104.26,0.26692
2081.12,0.26783
2057.97,0.26308
2034.83,0.26902
2011.68,0.28187
1988.54,0.29053
1965.39,0.29738
1942.25,0.30841
1919.1,0.31467
1895.96,0.31428
1872.81,0.31224
1849.67,0.30683
1826.52,0.29423
1803.38,0.26340
1780.23,0.20938
1757.09,0.12060
1733.94,0.09096
1710.8,0.10858
1687.65,0.11167
1664.51,0.08951
1641.36,0.09042
1618.22,0.09097
1595.07,0.08615
1571.93,0.12427
1548.78,0.14248
1525.64,0.09593
1502.49,0.06909
1479.35,0.07839
1456.2,0.06197
1433.06,0.05886
1409.91,0.06486
1386.77,0.06006
1363.62,0.05888
1340.48,0.05971
1317.33,0.05815
1294.19,0.05853
1271.04,0.05135
1247.9,0.05664
1224.75,0.05634
1201.61,0.05829
1178.46,0.04936
1155.32,0.05051
1132.17,0.04387
1109.03,0.04862
1085.88,0.04985
1062.74,0.06907
1039.59,0.07426
1016.45,0.08709
993.304,0.09304
970.159,0.10957
947.014,0.12387
923.869,0.13039
900.724,0.11032
877.579,0.11797
854.434,0.12315
831.289,0.12155
808.144,0.10656
784.999,0.10878
761.854,0.09944
738.709,0.09255
715.565,0.08458
692.42,0.08051
669.275,0.07220
646.13,0.07295
622.985,0.06980
599.84,0.07083

File: Pressure_Treated_Deck_IS_S_221012_R4.dpt
7497.03,0.80091
7473.89,0.78947
7450.74,0.79447
7427.6,0.80107
7404.45,0.79309
7381.31,0.77558
7358.16,0.78010
7335.02,0.77637
7311.87,0.76840
7288.73,0.76815
7265.58,0.76271
7242.44,0.76618
7219.29,0.76747
7196.15,0.75296
7173,0.75687
7149.86,0.74541
7126.71,0.74211
7103.57,0.71657
7080.42,0.70742
7057.28,0.68883
7034.13,0.66821
7010.99,0.65351
6987.84,0.63727
6964.7,0.64153
6941.55,0.63540
6918.41,0.62808
6895.26,0.63152
6872.12,0.63112
6848.97,0.62576
6825.83,0.62906
6802.68,0.62635
6779.54,0.62555
6756.39,0.63102
6733.25,0.63503
6710.1,0.63271
6686.96,0.64026
6663.82,0.64504
6640.67,0.64704
6617.53,0.64885
6594.38,0.65445
6571.24,0.65806
6548.09,0.65676
6524.95,0.65830
6501.8,0.65894
6478.66,0.66077
6455.51,0.66229
6432.37,0.66423
6409.22,0.66742
6386.08,0.67111
6362.93,0.67304
6339.79,0.67149
6316.64,0.67581
6293.5,0.67881
6270.35,0.67950
6247.21,0.68591
6224.06,0.69492
6200.92,0.69970
6177.77,0.70849
6154.63,0.71299
6131.48,0.71464
6108.34,0.72150
6085.19,0.72183
6062.05,0.71942
6038.9,0.71668
6015.76,0.70493
5992.61,0.70272
5969.47,0.70339
5946.32,0.69930
5923.18,0.70295
5900.03,0.69935
5876.89,0.69510
5853.74,0.69347
5830.6,0.69144
5807.45,0.68728
5784.31,0.68917
5761.16,0.69171
5738.02,0.69278
5714.87,0.69232
5691.73,0.69153
5668.58,0.69011
5645.44,0.68944
5622.29,0.68960
5599.15,0.69035
5576,0.69141
5552.86,0.69619
5529.71,0.69477
5506.57,0.69835
5483.42,0.69836
5460.28,0.70022
5437.13,0.70398
5413.99,0.70796
5390.84,0.71296
5367.7,0.71206
5344.55,0.70823
5321.41,0.69886
5298.26,0.67578
5275.12,0.63608
5251.97,0.59094
5228.83,0.55893
5205.68,0.54232
5182.54,0.54281
5159.39,0.55065
5136.25,0.56433
5113.1,0.57774
5089.96,0.59049
5066.81,0.60231
5043.67,0.61192
5020.52,0.61967
4997.38,0.62349
4974.23,0.61959
4951.09,0.60564
4927.94,0.58763
4904.8,0.56839
4881.65,0.54684
4858.51,0.52912
4835.36,0.51547
4812.22,0.50440
4789.07,0.49618
4765.93,0.49380
4742.78,0.49367
4719.64,0.49468
4696.49,0.49933
4673.35,0.50386
4650.2,0.51327
4627.06,0.52247
4603.92,0.53500
4580.77,0.54459
4557.63,0.55122
4534.48,0.55666
4511.34,0.55691
4488.19,0.54847
4465.05,0.52506
4441.9,0.49734
4418.76,0.46753
4395.61,0.45240
4372.47,0.45922
4349.32,0.46404
4326.18,0.45873
4303.03,0.44747
4279.89,0.44088
4256.74,0.44412
4233.6,0.44710
4210.45,0.44772
4187.31,0.44918
4164.16,0.45529
4141.02,0.44932
4117.87,0.43431
4094.73,0.41356
4071.58,0.39103
4048.44,0.36940
4025.29,0.35417
4002.15,0.35165
3979,0.35696
3955.86,0.36553
3932.71,0.37632
3909.57,0.38872
3886.42,0.39950
3863.28,0.40843
3840.13,0.41898
3816.99,0.42250
3793.84,0.41974
3770.7,0.41557
3747.55,0.40700
3724.41,0.38852
3701.26,0.35464
3678.12,0.28824
3654.97,0.20175
3631.83,0.14488
3608.68,0.10992
3585.54,0.08532
3562.39,0.07023
3539.25,0.06135
3516.1,0.05522
3492.96,0.05151
3469.81,0.04865
3446.67,0.04726
3423.52,0.04817
3400.38,0.04887
3377.23,0.04968
3354.09,0.05136
3330.94,0.05445
3307.8,0.05681
3284.65,0.05999
3261.51,0.06411
3238.36,0.06920
3215.22,0.07600
3192.07,0.08219
3168.93,0.09056
3145.78,0.09917
3122.64,0.10856
3099.49,0.11699
3076.35,0.12488
3053.2,0.13255
3030.06,0.13773
3006.91,0.13160
2983.77,0.11850
2960.62,0.09337
2937.48,0.08087
2914.33,0.07990
2891.19,0.08210
2868.04,0.08938
2844.9,0.10479
2821.75,0.13168
2798.61,0.15080
2775.46,0.16028
2752.32,0.16493
2729.17,0.16843
2706.03,0.17713
2682.88,0.18643
2659.74,0.19351
2636.59,0.20015
2613.45,0.20786
2590.3,0.21466
2567.16,0.21883
2544.02,0.22097
2520.87,0.22807
2497.73,0.23706
2474.58,0.24778
2451.44,0.25705
2428.29,0.26799
2405.15,0.28020
2382,0.29160
2358.86,0.30067
2335.71,0.30695
2312.57,0.30921
2289.42,0.30776
2266.28,0.30338
2243.13,0.29847
2219.99,0.29627
2196.84,0.29106
2173.7,0.27795
2150.55,0.26853
2127.41,0.26540
2104.26,0.26822
2081.12,0.26923
2057.97,0.26468
2034.83,0.27058
2011.68,0.28305
1988.54,0.29208
1965.39,0.29875
1942.25,0.30974
1919.1,0.31618
1895.96,0.31547
1872.81,0.31334
1849.67,0.30776
1826.52,0.29505
1803.38,0.26404
1780.23,0.20975
1757.09,0.12046
1733.94,0.09191
1710.8,0.10925
1687.65,0.11219
1664.51,0.09065
1641.36,0.09125
1618.22,0.09125
1595.07,0.08658
1571.93,0.12471
1548.78,0.14284
1525.64,0.09611
1502.49,0.06939
1479.35,0.07855
1456.2,0.06145
1433.06,0.05850
1409.91,0.06486
1386.77,0.06027
1363.62,0.05894
1340.48,0.05976
1317.33,0.05783
1294.19,0.05875
1271.04,0.05175
1247.9,0.05642
1224.75,0.05670
1201.61,0.05833
1178.46,0.05002
1155.32,0.05096
1132.17,0.04414
1109.03,0.04909
1085.88,0.05053
1062.74,0.06980
1039.59,0.07437
1016.45,0.08690
993.304,0.09316
970.159,0.11007
947.014,0.12468
923.869,0.13117
900.724,0.11065
877.579,0.11862
854.434,0.12460
831.289,0.12185
808.144,0.10678
784.999,0.10877
761.854,0.10117
738.709,0.09300
715.565,0.08592
692.42,0.08153
669.275,0.07514
646.13,0.07505
622.985,0.07077
599.84,0.07563