Folder: fsri_materials_database/01_Data/PlasticA/FTIR/IS (part 2)

File: PlasticA_IS_S_220906_R7.dpt
7497.03,0.70534
7473.89,0.71898
7450.74,0.70888
7427.6,0.69642
7404.45,0.69430
7381.31,0.70517
7358.16,0.68980
7335.02,0.67548
7311.87,0.68075
7288.73,0.66283
7265.58,0.64464
7242.44,0.64121
7219.29,0.62721
7196.15,0.62380
7173,0.62232
7149.86,0.61895
7126.71,0.60619
7103.57,0.59503
7080.42,0.59934
7057.28,0.59778
7034.13,0.60563
7010.99,0.60977
6987.84,0.60715
6964.7,0.61079
6941.55,0.61445
6918.41,0.62226
6895.26,0.62722
6872.12,0.63249
6848.97,0.63380
6825.83,0.63625
6802.68,0.63474
6779.54,0.64040
6756.39,0.64277
6733.25,0.64733
6710.1,0.64848
6686.96,0.64911
6663.82,0.65711
6640.67,0.65939
6617.53,0.65144
6594.38,0.66002
6571.24,0.65841
6548.09,0.65516
6524.95,0.65225
6501.8,0.66408
6478.66,0.65695
6455.51,0.65779
6432.37,0.65709
6409.22,0.65730
6386.08,0.65473
6362.93,0.64497
6339.79,0.64608
6316.64,0.64213
6293.5,0.64071
6270.35,0.63505
6247.21,0.62677
6224.06,0.61889
6200.92,0.60822
6177.77,0.58373
6154.63,0.53848
6131.48,0.48096
6108.34,0.44272
6085.19,0.46608
6062.05,0.47719
6038.9,0.43915
6015.76,0.35989
5992.61,0.30148
5969.47,0.26903
5946.32,0.26793
5923.18,0.28041
5900.03,0.28522
5876.89,0.29696
5853.74,0.29621
5830.6,0.29719
5807.45,0.29492
5784.31,0.30279
5761.16,0.33416
5738.02,0.33952
5714.87,0.31242
5691.73,0.30182
5668.58,0.30841
5645.44,0.32352
5622.29,0.34443
5599.15,0.34493
5576,0.35740
5552.86,0.36397
5529.71,0.36857
5506.57,0.37068
5483.42,0.37596
5460.28,0.37691
5437.13,0.37614
5413.99,0.37543
5390.84,0.37369
5367.7,0.37638
5344.55,0.38367
5321.41,0.38639
5298.26,0.38420
5275.12,0.36513
5251.97,0.34459
5228.83,0.35401
5205.68,0.37221
5182.54,0.37206
5159.39,0.36196
5136.25,0.35438
5113.1,0.37950
5089.96,0.38521
5066.81,0.38711
5043.67,0.38864
5020.52,0.38832
4997.38,0.38543
4974.23,0.37977
4951.09,0.37725
4927.94,0.37656
4904.8,0.37308
4881.65,0.36467
4858.51,0.36469
4835.36,0.36649
4812.22,0.36700
4789.07,0.35806
4765.93,0.34021
4742.78,0.32592
4719.64,0.27354
4696.49,0.25703
4673.35,0.17518
4650.2,0.19088
4627.06,0.16958
4603.92,0.16839
4580.77,0.18956
4557.63,0.21762
4534.48,0.23431
4511.34,0.22882
4488.19,0.21353
4465.05,0.21467
4441.9,0.19972
4418.76,0.18127
4395.61,0.15153
4372.47,0.12815
4349.32,0.11561
4326.18,0.11407
4303.03,0.11788
4279.89,0.11134
4256.74,0.10244
4233.6,0.10350
4210.45,0.10640
4187.31,0.11127
4164.16,0.11682
4141.02,0.11631
4117.87,0.11254
4094.73,0.10903
4071.58,0.09553
4048.44,0.08887
4025.29,0.09552
4002.15,0.11065
3979,0.11553
3955.86,0.11828
3932.71,0.11617
3909.57,0.11798
3886.42,0.12208
3863.28,0.12248
3840.13,0.12000
3816.99,0.11787
3793.84,0.12019
3770.7,0.12182
3747.55,0.12389
3724.41,0.11597
3701.26,0.10934
3678.12,0.09416
3654.97,0.08286
3631.83,0.08443
3608.68,0.08689
3585.54,0.08682
3562.39,0.08224
3539.25,0.07927
3516.1,0.08081
3492.96,0.08178
3469.81,0.08346
3446.67,0.08231
3423.52,0.08166
3400.38,0.08206
3377.23,0.08159
3354.09,0.08114
3330.94,0.08003
3307.8,0.06910
3284.65,0.07133
3261.51,0.07785
3238.36,0.07832
3215.22,0.07731
3192.07,0.07571
3168.93,0.07487
3145.78,0.07436
3122.64,0.07068
3099.49,0.06334
3076.35,0.06055
3053.2,0.06022
3030.06,0.05894
3006.91,0.05950
2983.77,0.05896
2960.62,0.05836
2937.48,0.05918
2914.33,0.06216
2891.19,0.06204
2868.04,0.06156
2844.9,0.06241
2821.75,0.06390
2798.61,0.06565
2775.46,0.06772
2752.32,0.06929
2729.17,0.06951
2706.03,0.06923
2682.88,0.06833
2659.74,0.06799
2636.59,0.06804
2613.45,0.06952
2590.3,0.06980
2567.16,0.06982
2544.02,0.06975
2520.87,0.06882
2497.73,0.06971
2474.58,0.07094
2451.44,0.07062
2428.29,0.07054
2405.15,0.06971
2382,0.06880
2358.86,0.06814
2335.71,0.06694
2312.57,0.06664
2289.42,0.06745
2266.28,0.06634
2243.13,0.05978
2219.99,0.06596
2196.84,0.06789
2173.7,0.06954
2150.55,0.06939
2127.41,0.06968
2104.26,0.06941
2081.12,0.06873
2057.97,0.06788
2034.83,0.06668
2011.68,0.06543
1988.54,0.06255
1965.39,0.06115
1942.25,0.06137
1919.1,0.06256
1895.96,0.06105
1872.81,0.06044
1849.67,0.06175
1826.52,0.06006
1803.38,0.05993
1780.23,0.06027
1757.09,0.05996
1733.94,0.05977
1710.8,0.06129
1687.65,0.06000
1664.51,0.06025
1641.36,0.05992
1618.22,0.06006
1595.07,0.06036
1571.93,0.05994
1548.78,0.05910
1525.64,0.05915
1502.49,0.05658
1479.35,0.05890
1456.2,0.05584
1433.06,0.06148
1409.91,0.06029
1386.77,0.05950
1363.62,0.05981
1340.48,0.06009
1317.33,0.06005
1294.19,0.06029
1271.04,0.06057
1247.9,0.06036
1224.75,0.06009
1201.61,0.06038
1178.46,0.06009
1155.32,0.06003
1132.17,0.06028
1109.03,0.05999
1085.88,0.05966
1062.74,0.06024
1039.59,0.05967
1016.45,0.06070
993.304,0.05908
970.159,0.05718
947.014,0.06158
923.869,0.05887
900.724,0.06050
877.579,0.05923
854.434,0.05764
831.289,0.05735
808.144,0.05632
784.999,0.05303
761.854,0.05537
738.709,0.05710
715.565,0.04711
692.42,0.07463
669.275,0.06399
646.13,0.06005
622.985,0.05963
599.84,0.05836

File: PlasticA_IS_S_220906_R8.dpt
7497.03,0.72094
7473.89,0.70832
7450.74,0.70120
7427.6,0.69359
7404.45,0.69131
7381.31,0.69087
7358.16,0.68899
7335.02,0.67948
7311.87,0.67115
7288.73,0.66229
7265.58,0.64382
7242.44,0.64584
7219.29,0.63172
7196.15,0.62654
7173,0.62157
7149.86,0.61821
7126.71,0.60181
7103.57,0.60419
7080.42,0.59510
7057.28,0.59677
7034.13,0.59719
7010.99,0.61015
6987.84,0.61159
6964.7,0.61875
6941.55,0.62387
6918.41,0.62846
6895.26,0.63056
6872.12,0.63858
6848.97,0.63891
6825.83,0.64096
6802.68,0.63962
6779.54,0.64798
6756.39,0.64218
6733.25,0.64135
6710.1,0.64876
6686.96,0.64823
6663.82,0.65812
6640.67,0.65653
6617.53,0.65051
6594.38,0.65715
6571.24,0.66176
6548.09,0.66047
6524.95,0.65567
6501.8,0.65931
6478.66,0.65744
6455.51,0.65943
6432.37,0.65902
6409.22,0.65811
6386.08,0.65477
6362.93,0.64894
6339.79,0.64440
6316.64,0.64381
6293.5,0.64314
6270.35,0.63456
6247.21,0.63032
6224.06,0.61790
6200.92,0.61022
6177.77,0.58580
6154.63,0.53713
6131.48,0.48226
6108.34,0.44194
6085.19,0.46456
6062.05,0.47694
6038.9,0.43948
6015.76,0.35709
5992.61,0.30430
5969.47,0.26783
5946.32,0.26548
5923.18,0.28327
5900.03,0.28447
5876.89,0.29609
5853.74,0.29672
5830.6,0.29705
5807.45,0.29413
5784.31,0.30508
5761.16,0.33404
5738.02,0.33864
5714.87,0.30905
5691.73,0.30200
5668.58,0.30883
5645.44,0.32461
5622.29,0.34116
5599.15,0.34874
5576,0.35936
5552.86,0.36561
5529.71,0.36849
5506.57,0.36839
5483.42,0.37759
5460.28,0.37631
5437.13,0.37655
5413.99,0.37801
5390.84,0.37306
5367.7,0.37554
5344.55,0.38468
5321.41,0.38787
5298.26,0.38471
5275.12,0.36630
5251.97,0.34622
5228.83,0.35742
5205.68,0.37233
5182.54,0.37304
5159.39,0.36218
5136.25,0.35575
5113.1,0.37902
5089.96,0.38697
5066.81,0.38803
5043.67,0.38806
5020.52,0.39033
4997.38,0.38473
4974.23,0.38059
4951.09,0.37628
4927.94,0.37627
4904.8,0.37536
4881.65,0.36478
4858.51,0.36561
4835.36,0.36560
4812.22,0.36715
4789.07,0.35850
4765.93,0.34130
4742.78,0.32652
4719.64,0.27314
4696.49,0.25646
4673.35,0.17533
4650.2,0.19047
4627.06,0.16927
4603.92,0.16945
4580.77,0.18902
4557.63,0.21767
4534.48,0.23526
4511.34,0.22950
4488.19,0.21370
4465.05,0.21502
4441.9,0.19943
4418.76,0.18113
4395.61,0.15181
4372.47,0.12787
4349.32,0.11493
4326.18,0.11441
4303.03,0.11768
4279.89,0.11166
4256.74,0.10247
4233.6,0.10387
4210.45,0.10596
4187.31,0.11167
4164.16,0.11568
4141.02,0.11611
4117.87,0.11306
4094.73,0.10880
4071.58,0.09513
4048.44,0.08922
4025.29,0.09577
4002.15,0.11054
3979,0.11555
3955.86,0.11833
3932.71,0.11731
3909.57,0.11836
3886.42,0.12205
3863.28,0.12254
3840.13,0.12094
3816.99,0.11838
3793.84,0.12017
3770.7,0.12248
3747.55,0.12297
3724.41,0.11695
3701.26,0.10990
3678.12,0.09524
3654.97,0.08326
3631.83,0.08458
3608.68,0.08703
3585.54,0.08657
3562.39,0.08179
3539.25,0.07964
3516.1,0.08073
3492.96,0.08206
3469.81,0.08303
3446.67,0.08305
3423.52,0.08212
3400.38,0.08164
3377.23,0.08202
3354.09,0.08138
3330.94,0.08087
3307.8,0.06875
3284.65,0.07165
3261.51,0.07758
3238.36,0.07811
3215.22,0.07666
3192.07,0.07490
3168.93,0.07476
3145.78,0.07394
3122.64,0.07032
3099.49,0.06357
3076.35,0.06074
3053.2,0.06073
3030.06,0.05910
3006.91,0.05911
2983.77,0.05945
2960.62,0.05877
2937.48,0.05910
2914.33,0.06225
2891.19,0.06221
2868.04,0.06196
2844.9,0.06255
2821.75,0.06370
2798.61,0.06583
2775.46,0.06769
2752.32,0.06954
2729.17,0.06957
2706.03,0.06913
2682.88,0.06850
2659.74,0.06847
2636.59,0.06836
2613.45,0.06947
2590.3,0.07007
2567.16,0.06962
2544.02,0.06965
2520.87,0.06883
2497.73,0.06962
2474.58,0.07099
2451.44,0.07062
2428.29,0.07019
2405.15,0.06952
2382,0.06873
2358.86,0.06849
2335.71,0.06668
2312.57,0.06680
2289.42,0.06759
2266.28,0.06566
2243.13,0.06001
2219.99,0.06597
2196.84,0.06793
2173.7,0.06944
2150.55,0.06979
2127.41,0.06996
2104.26,0.06967
2081.12,0.06902
2057.97,0.06800
2034.83,0.06711
2011.68,0.06544
1988.54,0.06252
1965.39,0.06150
1942.25,0.06138
1919.1,0.06267
1895.96,0.06086
1872.81,0.06080
1849.67,0.06226
1826.52,0.05993
1803.38,0.05981
1780.23,0.06020
1757.09,0.05923
1733.94,0.06000
1710.8,0.06098
1687.65,0.06024
1664.51,0.06041
1641.36,0.05933
1618.22,0.06016
1595.07,0.06071
1571.93,0.05982
1548.78,0.05897
1525.64,0.05889
1502.49,0.05672
1479.35,0.05873
1456.2,0.05555
1433.06,0.06128
1409.91,0.06046
1386.77,0.05988
1363.62,0.05985
1340.48,0.05999
1317.33,0.06007
1294.19,0.06013
1271.04,0.06026
1247.9,0.06029
1224.75,0.05995
1201.61,0.05990
1178.46,0.06061
1155.32,0.06020
1132.17,0.06045
1109.03,0.05968
1085.88,0.05927
1062.74,0.06004
1039.59,0.05992
1016.45,0.06102
993.304,0.05897
970.159,0.05671
947.014,0.06160
923.869,0.05924
900.724,0.06044
877.579,0.05862
854.434,0.05852
831.289,0.05797
808.144,0.05583
784.999,0.05227
761.854,0.05552
738.709,0.05757
715.565,0.04845
692.42,0.07509
669.275,0.06299
646.13,0.06045
622.985,0.05951
599.84,0.05932

File: PlasticA_IS_T_220906_R4.dpt
7497.03,0.02362
7473.89,0.02820
7450.74,0.02348
7427.6,0.02966
7404.45,0.03208
7381.31,0.02879
7358.16,0.02146
7335.02,0.02037
7311.87,0.02511
7288.73,0.02227
7265.58,0.01706
7242.44,0.01797
7219.29,0.02112
7196.15,0.02598
7173,0.03000
7149.86,0.01575
7126.71,0.03075
7103.57,0.02446
7080.42,0.02298
7057.28,0.02110
7034.13,0.02361
7010.99,0.02078
6987.84,0.02309
6964.7,0.02702
6941.55,0.02294
6918.41,0.02098
6895.26,0.02344
6872.12,0.02370
6848.97,0.02372
6825.83,0.02474
6802.68,0.02460
6779.54,0.02423
6756.39,0.02044
6733.25,0.02805
6710.1,0.02506
6686.96,0.02364
6663.82,0.02471
6640.67,0.02889
6617.53,0.02492
6594.38,0.02341
6571.24,0.01611
6548.09,0.02822
6524.95,0.02435
6501.8,0.02438
6478.66,0.02096
6455.51,0.02222
6432.37,0.02440
6409.22,0.02778
6386.08,0.02265
6362.93,0.02218
6339.79,0.02090
6316.64,0.02232
6293.5,0.02330
6270.35,0.01886
6247.21,0.02145
6224.06,0.02095
6200.92,0.02582
6177.77,0.02015
6154.63,0.02183
6131.48,0.01870
6108.34,0.02114
6085.19,0.02404
6062.05,0.02173
6038.9,0.02223
6015.76,0.02505
5992.61,0.02132
5969.47,0.01979
5946.32,0.02206
5923.18,0.01997
5900.03,0.02265
5876.89,0.02141
5853.74,0.02245
5830.6,0.02119
5807.45,0.01938
5784.31,0.02326
5761.16,0.02274
5738.02,0.02158
5714.87,0.02066
5691.73,0.02052
5668.58,0.02267
5645.44,0.02296
5622.29,0.02385
5599.15,0.02130
5576,0.02080
5552.86,0.02138
5529.71,0.02309
5506.57,0.02157
5483.42,0.02220
5460.28,0.02207
5437.13,0.02151
5413.99,0.02237
5390.84,0.02124
5367.7,0.02462
5344.55,0.02228
5321.41,0.02197
5298.26,0.02234
5275.12,0.02215
5251.97,0.02035
5228.83,0.02253
5205.68,0.02296
5182.54,0.02205
5159.39,0.02211
5136.25,0.02177
5113.1,0.02160
5089.96,0.02173
5066.81,0.02121
5043.67,0.02169
5020.52,0.02198
4997.38,0.02222
4974.23,0.02230
4951.09,0.02213
4927.94,0.02221
4904.8,0.02018
4881.65,0.02132
4858.51,0.02207
4835.36,0.02314
4812.22,0.02217
4789.07,0.02162
4765.93,0.02203
4742.78,0.02211
4719.64,0.02161
4696.49,0.02294
4673.35,0.02351
4650.2,0.02206
4627.06,0.02246
4603.92,0.02229
4580.77,0.02180
4557.63,0.02115
4534.48,0.02302
4511.34,0.02165
4488.19,0.02171
4465.05,0.02259
4441.9,0.02273
4418.76,0.02176
4395.61,0.02274
4372.47,0.02265
4349.32,0.02228
4326.18,0.02180
4303.03,0.02228
4279.89,0.02312
4256.74,0.02318
4233.6,0.02204
4210.45,0.02257
4187.31,0.02269
4164.16,0.02214
4141.02,0.02223
4117.87,0.02255
4094.73,0.02253
4071.58,0.02234
4048.44,0.02273
4025.29,0.02248
4002.15,0.02183
3979,0.02293
3955.86,0.02268
3932.71,0.02249
3909.57,0.02158
3886.42,0.02253
3863.28,0.02251
3840.13,0.02292
3816.99,0.02270
3793.84,0.02243
3770.7,0.02290
3747.55,0.02238
3724.41,0.02241
3701.26,0.02240
3678.12,0.02281
3654.97,0.02176
3631.83,0.02183
3608.68,0.02142
3585.54,0.02084
3562.39,0.02096
3539.25,0.02118
3516.1,0.02039
3492.96,0.02095
3469.81,0.02131
3446.67,0.02092
3423.52,0.02112
3400.38,0.02083
3377.23,0.02075
3354.09,0.02080
3330.94,0.02069
3307.8,0.02102
3284.65,0.02018
3261.51,0.02024
3238.36,0.02083
3215.22,0.02078
3192.07,0.02068
3168.93,0.02095
3145.78,0.02076
3122.64,0.02088
3099.49,0.02094
3076.35,0.02033
3053.2,0.02076
3030.06,0.02070
3006.91,0.02049
2983.77,0.02001
2960.62,0.01961
2937.48,0.01984
2914.33,0.02031
2891.19,0.02013
2868.04,0.02022
2844.9,0.02066
2821.75,0.02036
2798.61,0.02094
2775.46,0.02099
2752.32,0.02140
2729.17,0.02108
2706.03,0.02097
2682.88,0.02066
2659.74,0.02125
2636.59,0.02149
2613.45,0.02104
2590.3,0.02062
2567.16,0.02126
2544.02,0.02117
2520.87,0.02117
2497.73,0.02094
2474.58,0.02093
2451.44,0.02118
2428.29,0.02092
2405.15,0.02105
2382,0.02129
2358.86,0.02113
2335.71,0.02130
2312.57,0.02102
2289.42,0.02105
2266.28,0.02090
2243.13,0.02111
2219.99,0.02092
2196.84,0.02061
2173.7,0.02102
2150.55,0.02082
2127.41,0.02056
2104.26,0.02104
2081.12,0.02085
2057.97,0.02060
2034.83,0.02091
2011.68,0.02053
1988.54,0.02029
1965.39,0.02037
1942.25,0.02063
1919.1,0.02058
1895.96,0.02068
1872.81,0.02048
1849.67,0.02016
1826.52,0.01996
1803.38,0.01981
1780.23,0.01870
1757.09,0.01757
1733.94,0.01960
1710.8,0.02029
1687.65,0.01923
1664.51,0.01876
1641.36,0.01828
1618.22,0.01848
1595.07,0.01888
1571.93,0.01807
1548.78,0.01799
1525.64,0.01860
1502.49,0.01898
1479.35,0.01844
1456.2,0.01899
1433.06,0.01872
1409.91,0.01855
1386.77,0.01799
1363.62,0.01842
1340.48,0.01782
1317.33,0.01723
1294.19,0.01762
1271.04,0.01874
1247.9,0.02003
1224.75,0.01889
1201.61,0.01825
1178.46,0.01819
1155.32,0.01757
1132.17,0.01796
1109.03,0.01876
1085.88,0.01872
1062.74,0.01973
1039.59,0.01979
1016.45,0.01895
993.304,0.02061
970.159,0.01989
947.014,0.01945
923.869,0.01885
900.724,0.01925
877.579,0.01918
854.434,0.01928
831.289,0.01835
808.144,0.01846
784.999,0.01851
761.854,0.01805
738.709,0.01916
715.565,0.01866
692.42,0.01946
669.275,0.01690
646.13,0.01687
622.985,0.01712
599.84,0.01523