Folder: fsri_materials_database/01_Data/PlasticA/FTIR/IS

Note: README.md
# Materials and Products Database
### Repository of materials and products properties and fire test data to improve fire modeling and fire investigation.

This project was supported in part by Award No. 2019-DU-BX-0018, awarded by the National Institute of Justice, Office of Justice Programs, U.S. Department of Justice. The opinions, findings, and conclusions or recommendations expressed in this publication / program / exhibition are those of the author(s) and do not necessarily reflect those of the Department of Justice.

***
***

__Cite this database:__ "McKinnon, M., Weinschenk, C., Dow, N., DiDomizio, M., and Madrzykowski, D. Materials and Products Database (Version 1.0.0), Fire Safety Research Institute, UL Research Institutes. Columbia, MD 21045, 2023."

__Cite the Technical Reference Guide:__ "McKinnon, M., Weinschenk, C., and Madrzykowski, D. Materials and Products Database - Technical Reference Guide, Fire Safety Research Institute, UL Research Institutes. Columbia, MD 21045, 2023."

__Cite the User Guide:__ "McKinnon, M., and Weinschenk, C. Materials and Products Database - User Guide, Fire Safety Research Institute, UL Research Institutes. Columbia, MD 21045, 2023."

***
***

## Database Structure

## 01_Data/
Raw data generated from each apparatus are included here in plain-text format. The data is organized first by material, next by the short name of test apparatus used, and where applicable additional filtering by test settings.

### Test Apparatus and Data File Structure
- __Cone Calorimeter__ (Cone)
    + Data file structure includes the material, the short name for the apparatus, heat flux setting and scan/scalar, date of test, and replicate number. Scan is for the raw output data and scalar is for the initial conditions and high-level test parameters. 
        * Example: __MDF_Cone_HF25scalar_210323_R1__ stands for the first replicate of scalar data generated from a medium density fiber board test in cone calorimeter exposed to 25 kW/m<sup>2</sup> on March 23, 2021.
    + A _Cone_Notes.csv_ is generated for each material from the __plot_Cone_data.py__ script. For materials whose experiments deviated from typical behavior relevant pictures are included in the respective material directory.
- __Fourier Transform Infrared Spectrometer__ (FTIR)
    + The FTIR directory contains subdirectories for the Attenuated Total Reflectance method (ATR) and the Integrating Sphere (IS)
    + Data file structure for the ATR experiment files includes the material, the abbreviated name for the apparatus, date of test, and replicate number. 
        * Example: __MDF_ATR_210323_R5__ stands for the fifth replicate of data collected with the ATR accessory conducted on June 8, 2021.
    + Data file structure for the IS experiment files includes the material, the abbreviated name for the apparatus, the measurand, whether the test is a sample measurement or standard reference, date of test, and replicate number.
        * Example: __OSB_IS_REFLECT_MEAS_2

File: PlasticA_IS_S_220906_R2.dpt
7497.03,0.70567
7473.89,0.71323
7450.74,0.71289
7427.6,0.70615
7404.45,0.69675
7381.31,0.69726
7358.16,0.69828
7335.02,0.68281
7311.87,0.66985
7288.73,0.66424
7265.58,0.65061
7242.44,0.65224
7219.29,0.64105
7196.15,0.63273
7173,0.62320
7149.86,0.62515
7126.71,0.60597
7103.57,0.60567
7080.42,0.60092
7057.28,0.60299
7034.13,0.59888
7010.99,0.61182
6987.84,0.61537
6964.7,0.61017
6941.55,0.61491
6918.41,0.62317
6895.26,0.62922
6872.12,0.63757
6848.97,0.64271
6825.83,0.63851
6802.68,0.64026
6779.54,0.64348
6756.39,0.64484
6733.25,0.64686
6710.1,0.65072
6686.96,0.64997
6663.82,0.65554
6640.67,0.65323
6617.53,0.65463
6594.38,0.66083
6571.24,0.65881
6548.09,0.66559
6524.95,0.65783
6501.8,0.66031
6478.66,0.65996
6455.51,0.65896
6432.37,0.65537
6409.22,0.65810
6386.08,0.65601
6362.93,0.65022
6339.79,0.64431
6316.64,0.64687
6293.5,0.64003
6270.35,0.63943
6247.21,0.62763
6224.06,0.62095
6200.92,0.61053
6177.77,0.58776
6154.63,0.53917
6131.48,0.48493
6108.34,0.44381
6085.19,0.46846
6062.05,0.47899
6038.9,0.43976
6015.76,0.36358
5992.61,0.30531
5969.47,0.26624
5946.32,0.26869
5923.18,0.28333
5900.03,0.28621
5876.89,0.29855
5853.74,0.29603
5830.6,0.29644
5807.45,0.29672
5784.31,0.30514
5761.16,0.33578
5738.02,0.34045
5714.87,0.31270
5691.73,0.30576
5668.58,0.30893
5645.44,0.32230
5622.29,0.34408
5599.15,0.34620
5576,0.35931
5552.86,0.36565
5529.71,0.36941
5506.57,0.36972
5483.42,0.37699
5460.28,0.37932
5437.13,0.37602
5413.99,0.37761
5390.84,0.37408
5367.7,0.37577
5344.55,0.38451
5321.41,0.38723
5298.26,0.38323
5275.12,0.36368
5251.97,0.34099
5228.83,0.35157
5205.68,0.37217
5182.54,0.37134
5159.39,0.36328
5136.25,0.35587
5113.1,0.37883
5089.96,0.38540
5066.81,0.38847
5043.67,0.38775
5020.52,0.38899
4997.38,0.38632
4974.23,0.38157
4951.09,0.37639
4927.94,0.37631
4904.8,0.37527
4881.65,0.36367
4858.51,0.36647
4835.36,0.36669
4812.22,0.36674
4789.07,0.36000
4765.93,0.34096
4742.78,0.32655
4719.64,0.27346
4696.49,0.25755
4673.35,0.17606
4650.2,0.19141
4627.06,0.16975
4603.92,0.16894
4580.77,0.18899
4557.63,0.21708
4534.48,0.23469
4511.34,0.22969
4488.19,0.21327
4465.05,0.21567
4441.9,0.19914
4418.76,0.18222
4395.61,0.15200
4372.47,0.12779
4349.32,0.11532
4326.18,0.11462
4303.03,0.11819
4279.89,0.11004
4256.74,0.10333
4233.6,0.10421
4210.45,0.10626
4187.31,0.11042
4164.16,0.11684
4141.02,0.11609
4117.87,0.11313
4094.73,0.10868
4071.58,0.09443
4048.44,0.08854
4025.29,0.09583
4002.15,0.11065
3979,0.11615
3955.86,0.11780
3932.71,0.11742
3909.57,0.11828
3886.42,0.12153
3863.28,0.12440
3840.13,0.12112
3816.99,0.11875
3793.84,0.12025
3770.7,0.12137
3747.55,0.12380
3724.41,0.11532
3701.26,0.10926
3678.12,0.09172
3654.97,0.08060
3631.83,0.08157
3608.68,0.08485
3585.54,0.08405
3562.39,0.07933
3539.25,0.07735
3516.1,0.07844
3492.96,0.08101
3469.81,0.08074
3446.67,0.08185
3423.52,0.08174
3400.38,0.08082
3377.23,0.08155
3354.09,0.08170
3330.94,0.07984
3307.8,0.06914
3284.65,0.07154
3261.51,0.07732
3238.36,0.07785
3215.22,0.07662
3192.07,0.07579
3168.93,0.07441
3145.78,0.07417
3122.64,0.07031
3099.49,0.06362
3076.35,0.06022
3053.2,0.06099
3030.06,0.05985
3006.91,0.05975
2983.77,0.05968
2960.62,0.05854
2937.48,0.05912
2914.33,0.06283
2891.19,0.06163
2868.04,0.06198
2844.9,0.06269
2821.75,0.06362
2798.61,0.06624
2775.46,0.06777
2752.32,0.06980
2729.17,0.06947
2706.03,0.06951
2682.88,0.06946
2659.74,0.06914
2636.59,0.06827
2613.45,0.06918
2590.3,0.06983
2567.16,0.07004
2544.02,0.06963
2520.87,0.06882
2497.73,0.06981
2474.58,0.07099
2451.44,0.07094
2428.29,0.07052
2405.15,0.06970
2382,0.06903
2358.86,0.06996
2335.71,0.06750
2312.57,0.06686
2289.42,0.06764
2266.28,0.06568
2243.13,0.06037
2219.99,0.06595
2196.84,0.06812
2173.7,0.06956
2150.55,0.07021
2127.41,0.06959
2104.26,0.06972
2081.12,0.06897
2057.97,0.06824
2034.83,0.06701
2011.68,0.06574
1988.54,0.06263
1965.39,0.06110
1942.25,0.06143
1919.1,0.06272
1895.96,0.06107
1872.81,0.06091
1849.67,0.06201
1826.52,0.06025
1803.38,0.06030
1780.23,0.06053
1757.09,0.05977
1733.94,0.06053
1710.8,0.06117
1687.65,0.06068
1664.51,0.06066
1641.36,0.05978
1618.22,0.06062
1595.07,0.06059
1571.93,0.05997
1548.78,0.05937
1525.64,0.05972
1502.49,0.05675
1479.35,0.05879
1456.2,0.05622
1433.06,0.06197
1409.91,0.06068
1386.77,0.06037
1363.62,0.06007
1340.48,0.06008
1317.33,0.06027
1294.19,0.06023
1271.04,0.06039
1247.9,0.06063
1224.75,0.05991
1201.61,0.06020
1178.46,0.06057
1155.32,0.05998
1132.17,0.06037
1109.03,0.05954
1085.88,0.06001
1062.74,0.06007
1039.59,0.06039
1016.45,0.06087
993.304,0.05955
970.159,0.05693
947.014,0.06152
923.869,0.05889
900.724,0.06014
877.579,0.06000
854.434,0.05868
831.289,0.05744
808.144,0.05604
784.999,0.05281
761.854,0.05609
738.709,0.05729
715.565,0.04862
692.42,0.07484
669.275,0.06309
646.13,0.06285
622.985,0.05961
599.84,0.06050

File: PlasticA_IS_S_220906_R3.dpt
7497.03,0.70626
7473.89,0.71839
7450.74,0.69438
7427.6,0.70407
7404.45,0.69957
7381.31,0.69984
7358.16,0.69029
7335.02,0.67852
7311.87,0.68160
7288.73,0.65872
7265.58,0.65652
7242.44,0.65232
7219.29,0.64428
7196.15,0.63183
7173,0.62587
7149.86,0.62421
7126.71,0.60414
7103.57,0.61353
7080.42,0.60300
7057.28,0.60399
7034.13,0.60880
7010.99,0.60988
6987.84,0.61595
6964.7,0.61851
6941.55,0.62215
6918.41,0.63064
6895.26,0.62671
6872.12,0.63429
6848.97,0.63812
6825.83,0.63676
6802.68,0.63356
6779.54,0.64305
6756.39,0.64242
6733.25,0.64837
6710.1,0.64715
6686.96,0.65042
6663.82,0.65614
6640.67,0.65530
6617.53,0.65200
6594.38,0.65940
6571.24,0.66030
6548.09,0.65938
6524.95,0.65791
6501.8,0.65592
6478.66,0.65507
6455.51,0.66080
6432.37,0.65818
6409.22,0.66095
6386.08,0.65414
6362.93,0.64410
6339.79,0.64794
6316.64,0.64366
6293.5,0.64027
6270.35,0.64038
6247.21,0.63074
6224.06,0.61923
6200.92,0.60715
6177.77,0.58380
6154.63,0.53884
6131.48,0.48270
6108.34,0.44493
6085.19,0.46319
6062.05,0.47746
6038.9,0.44045
6015.76,0.35781
5992.61,0.29999
5969.47,0.26834
5946.32,0.26990
5923.18,0.28330
5900.03,0.28515
5876.89,0.29870
5853.74,0.29850
5830.6,0.29692
5807.45,0.29444
5784.31,0.30609
5761.16,0.33642
5738.02,0.33913
5714.87,0.31291
5691.73,0.30475
5668.58,0.31026
5645.44,0.32483
5622.29,0.34345
5599.15,0.34581
5576,0.36007
5552.86,0.36726
5529.71,0.36940
5506.57,0.37166
5483.42,0.37774
5460.28,0.37885
5437.13,0.37690
5413.99,0.37620
5390.84,0.37440
5367.7,0.37775
5344.55,0.38337
5321.41,0.38802
5298.26,0.38279
5275.12,0.36426
5251.97,0.34229
5228.83,0.35105
5205.68,0.37110
5182.54,0.37290
5159.39,0.36246
5136.25,0.35467
5113.1,0.37819
5089.96,0.38543
5066.81,0.38864
5043.67,0.38749
5020.52,0.38870
4997.38,0.38647
4974.23,0.38052
4951.09,0.37687
4927.94,0.37761
4904.8,0.37470
4881.65,0.36419
4858.51,0.36610
4835.36,0.36526
4812.22,0.36661
4789.07,0.35765
4765.93,0.34156
4742.78,0.32778
4719.64,0.27386
4696.49,0.25772
4673.35,0.17566
4650.2,0.19086
4627.06,0.17007
4603.92,0.16930
4580.77,0.18856
4557.63,0.21786
4534.48,0.23448
4511.34,0.22931
4488.19,0.21331
4465.05,0.21444
4441.9,0.19817
4418.76,0.18169
4395.61,0.15165
4372.47,0.12810
4349.32,0.11609
4326.18,0.11391
4303.03,0.11809
4279.89,0.11152
4256.74,0.10392
4233.6,0.10317
4210.45,0.10692
4187.31,0.11117
4164.16,0.11560
4141.02,0.11596
4117.87,0.11268
4094.73,0.10845
4071.58,0.09482
4048.44,0.08909
4025.29,0.09616
4002.15,0.11061
3979,0.11625
3955.86,0.11787
3932.71,0.11790
3909.57,0.11844
3886.42,0.12189
3863.28,0.12327
3840.13,0.12123
3816.99,0.11862
3793.84,0.11988
3770.7,0.12158
3747.55,0.12399
3724.41,0.11598
3701.26,0.10931
3678.12,0.09302
3654.97,0.08215
3631.83,0.08254
3608.68,0.08526
3585.54,0.08626
3562.39,0.08135
3539.25,0.07756
3516.1,0.07884
3492.96,0.08140
3469.81,0.08229
3446.67,0.08150
3423.52,0.08243
3400.38,0.08192
3377.23,0.08109
3354.09,0.08170
3330.94,0.07980
3307.8,0.06866
3284.65,0.07163
3261.51,0.07801
3238.36,0.07854
3215.22,0.07672
3192.07,0.07652
3168.93,0.07425
3145.78,0.07404
3122.64,0.07025
3099.49,0.06401
3076.35,0.06091
3053.2,0.06085
3030.06,0.05933
3006.91,0.05966
2983.77,0.05892
2960.62,0.05822
2937.48,0.05914
2914.33,0.06235
2891.19,0.06196
2868.04,0.06211
2844.9,0.06299
2821.75,0.06369
2798.61,0.06619
2775.46,0.06822
2752.32,0.06947
2729.17,0.06914
2706.03,0.06933
2682.88,0.06831
2659.74,0.06818
2636.59,0.06795
2613.45,0.06949
2590.3,0.07010
2567.16,0.07007
2544.02,0.06983
2520.87,0.06892
2497.73,0.06977
2474.58,0.07092
2451.44,0.07074
2428.29,0.07072
2405.15,0.06947
2382,0.06894
2358.86,0.06945
2335.71,0.06741
2312.57,0.06695
2289.42,0.06740
2266.28,0.06552
2243.13,0.06014
2219.99,0.06584
2196.84,0.06830
2173.7,0.06918
2150.55,0.07007
2127.41,0.06977
2104.26,0.06916
2081.12,0.06886
2057.97,0.06824
2034.83,0.06673
2011.68,0.06580
1988.54,0.06274
1965.39,0.06129
1942.25,0.06132
1919.1,0.06300
1895.96,0.06081
1872.81,0.06096
1849.67,0.06196
1826.52,0.06035
1803.38,0.06004
1780.23,0.06026
1757.09,0.05962
1733.94,0.06019
1710.8,0.06128
1687.65,0.06061
1664.51,0.06073
1641.36,0.05983
1618.22,0.06057
1595.07,0.06023
1571.93,0.06017
1548.78,0.05918
1525.64,0.05915
1502.49,0.05674
1479.35,0.05862
1456.2,0.05616
1433.06,0.06162
1409.91,0.06061
1386.77,0.05992
1363.62,0.06031
1340.48,0.06046
1317.33,0.06016
1294.19,0.06020
1271.04,0.06056
1247.9,0.06014
1224.75,0.06023
1201.61,0.06012
1178.46,0.06020
1155.32,0.06057
1132.17,0.06021
1109.03,0.06018
1085.88,0.05921
1062.74,0.06007
1039.59,0.05985
1016.45,0.06114
993.304,0.05891
970.159,0.05664
947.014,0.06109
923.869,0.05918
900.724,0.06015
877.579,0.05921
854.434,0.05757
831.289,0.05745
808.144,0.05601
784.999,0.05298
761.854,0.05558
738.709,0.05779
715.565,0.04851
692.42,0.07484
669.275,0.06183
646.13,0.06216
622.985,0.06078
599.84,0.05984

File: PlasticA_IS_S_220906_R4.dpt
7497.03,0.71001
7473.89,0.71028
7450.74,0.70282
7427.6,0.69780
7404.45,0.69542
7381.31,0.69468
7358.16,0.69603
7335.02,0.68473
7311.87,0.67214
7288.73,0.65676
7265.58,0.64808
7242.44,0.62957
7219.29,0.63168
7196.15,0.62587
7173,0.61638
7149.86,0.61779
7126.71,0.60682
7103.57,0.59983
7080.42,0.59382
7057.28,0.60013
7034.13,0.60590
7010.99,0.60466
6987.84,0.60269
6964.7,0.61559
6941.55,0.61570
6918.41,0.62355
6895.26,0.63467
6872.12,0.63202
6848.97,0.63428
6825.83,0.63744
6802.68,0.64390
6779.54,0.64216
6756.39,0.64752
6733.25,0.64538
6710.1,0.64983
6686.96,0.65003
6663.82,0.65409
6640.67,0.65555
6617.53,0.65358
6594.38,0.65456
6571.24,0.65491
6548.09,0.65697
6524.95,0.65539
6501.8,0.65531
6478.66,0.65938
6455.51,0.66414
6432.37,0.65562
6409.22,0.65337
6386.08,0.65429
6362.93,0.64745
6339.79,0.64259
6316.64,0.64175
6293.5,0.64074
6270.35,0.63788
6247.21,0.62996
6224.06,0.61768
6200.92,0.60936
6177.77,0.58667
6154.63,0.54077
6131.48,0.47991
6108.34,0.44387
6085.19,0.46646
6062.05,0.47674
6038.9,0.43994
6015.76,0.35682
5992.61,0.30041
5969.47,0.27044
5946.32,0.26723
5923.18,0.28278
5900.03,0.28344
5876.89,0.29704
5853.74,0.29567
5830.6,0.29789
5807.45,0.29422
5784.31,0.30318
5761.16,0.33374
5738.02,0.33671
5714.87,0.31240
5691.73,0.30164
5668.58,0.30965
5645.44,0.32549
5622.29,0.34085
5599.15,0.34843
5576,0.35808
5552.86,0.36426
5529.71,0.36750
5506.57,0.37029
5483.42,0.37580
5460.28,0.37710
5437.13,0.37681
5413.99,0.37568
5390.84,0.37307
5367.7,0.37466
5344.55,0.38171
5321.41,0.38604
5298.26,0.38270
5275.12,0.36462
5251.97,0.34195
5228.83,0.35467
5205.68,0.37292
5182.54,0.37218
5159.39,0.36162
5136.25,0.35470
5113.1,0.37842
5089.96,0.38368
5066.81,0.38674
5043.67,0.38691
5020.52,0.38812
4997.38,0.38493
4974.23,0.37982
4951.09,0.37536
4927.94,0.37497
4904.8,0.37319
4881.65,0.36514
4858.51,0.36487
4835.36,0.36523
4812.22,0.36676
4789.07,0.35920
4765.93,0.33996
4742.78,0.32627
4719.64,0.27226
4696.49,0.25708
4673.35,0.17515
4650.2,0.19071
4627.06,0.16924
4603.92,0.16919
4580.77,0.18980
4557.63,0.21699
4534.48,0.23373
4511.34,0.22900
4488.19,0.21281
4465.05,0.21425
4441.9,0.19839
4418.76,0.18111
4395.61,0.15192
4372.47,0.12714
4349.32,0.11608
4326.18,0.11437
4303.03,0.11845
4279.89,0.11105
4256.74,0.10259
4233.6,0.10423
4210.45,0.10645
4187.31,0.11100
4164.16,0.11592
4141.02,0.11575
4117.87,0.11223
4094.73,0.10888
4071.58,0.09548
4048.44,0.08885
4025.29,0.09647
4002.15,0.11080
3979,0.11595
3955.86,0.11791
3932.71,0.11738
3909.57,0.11860
3886.42,0.12132
3863.28,0.12226
3840.13,0.12097
3816.99,0.11880
3793.84,0.12041
3770.7,0.12097
3747.55,0.12408
3724.41,0.11626
3701.26,0.10942
3678.12,0.09298
3654.97,0.08155
3631.83,0.08376
3608.68,0.08561
3585.54,0.08520
3562.39,0.08159
3539.25,0.07838
3516.1,0.08024
3492.96,0.08153
3469.81,0.08237
3446.67,0.08190
3423.52,0.08249
3400.38,0.08150
3377.23,0.08178
3354.09,0.08195
3330.94,0.07986
3307.8,0.06856
3284.65,0.07169
3261.51,0.07797
3238.36,0.07823
3215.22,0.07642
3192.07,0.07592
3168.93,0.07416
3145.78,0.07404
3122.64,0.07080
3099.49,0.06293
3076.35,0.06053
3053.2,0.06084
3030.06,0.05928
3006.91,0.05956
2983.77,0.05946
2960.62,0.05822
2937.48,0.05922
2914.33,0.06200
2891.19,0.06155
2868.04,0.06170
2844.9,0.06226
2821.75,0.06326
2798.61,0.06579
2775.46,0.06815
2752.32,0.06946
2729.17,0.06990
2706.03,0.06913
2682.88,0.06857
2659.74,0.06848
2636.59,0.06787
2613.45,0.06902
2590.3,0.06991
2567.16,0.06971
2544.02,0.06973
2520.87,0.06914
2497.73,0.06970
2474.58,0.07087
2451.44,0.07056
2428.29,0.07001
2405.15,0.06952
2382,0.06865
2358.86,0.06877
2335.71,0.06729
2312.57,0.06699
2289.42,0.06759
2266.28,0.06571
2243.13,0.05979
2219.99,0.06568
2196.84,0.06833
2173.7,0.06919
2150.55,0.06987
2127.41,0.06990
2104.26,0.06944
2081.12,0.06862
2057.97,0.06806
2034.83,0.06676
2011.68,0.06522
1988.54,0.06229
1965.39,0.06099
1942.25,0.06125
1919.1,0.06289
1895.96,0.06122
1872.81,0.06064
1849.67,0.06206
1826.52,0.06022
1803.38,0.05988
1780.23,0.06016
1757.09,0.05950
1733.94,0.06018
1710.8,0.06112
1687.65,0.06034
1664.51,0.06033
1641.36,0.05945
1618.22,0.06018
1595.07,0.05998
1571.93,0.06010
1548.78,0.05948
1525.64,0.05903
1502.49,0.05645
1479.35,0.05848
1456.2,0.05639
1433.06,0.06149
1409.91,0.06065
1386.77,0.05976
1363.62,0.05980
1340.48,0.05990
1317.33,0.05990
1294.19,0.05955
1271.04,0.06046
1247.9,0.06077
1224.75,0.05993
1201.61,0.06046
1178.46,0.06008
1155.32,0.05983
1132.17,0.05974
1109.03,0.05978
1085.88,0.05960
1062.74,0.06058
1039.59,0.05959
1016.45,0.06063
993.304,0.05893
970.159,0.05643
947.014,0.06128
923.869,0.05851
900.724,0.06095
877.579,0.05904
854.434,0.05787
831.289,0.05837
808.144,0.05558
784.999,0.05202
761.854,0.05533
738.709,0.05698
715.565,0.04779
692.42,0.07469
669.275,0.06443
646.13,0.06144
622.985,0.06057
599.84,0.05963

File: PlasticA_IS_S_220906_R6.dpt
7497.03,0.71052
7473.89,0.71589
7450.74,0.70711
7427.6,0.69255
7404.45,0.70160
7381.31,0.70002
7358.16,0.69023
7335.02,0.68065
7311.87,0.68428
7288.73,0.65219
7265.58,0.64348
7242.44,0.64850
7219.29,0.62977
7196.15,0.62063
7173,0.61805
7149.86,0.61262
7126.71,0.60820
7103.57,0.60722
7080.42,0.60246
7057.28,0.59641
7034.13,0.59732
7010.99,0.59706
6987.84,0.60477
6964.7,0.61519
6941.55,0.61824
6918.41,0.62580
6895.26,0.62401
6872.12,0.63231
6848.97,0.63481
6825.83,0.63667
6802.68,0.63517
6779.54,0.64559
6756.39,0.64082
6733.25,0.64227
6710.1,0.64725
6686.96,0.64674
6663.82,0.64879
6640.67,0.65350
6617.53,0.65142
6594.38,0.65212
6571.24,0.65518
6548.09,0.65596
6524.95,0.65545
6501.8,0.65612
6478.66,0.65842
6455.51,0.66082
6432.37,0.65931
6409.22,0.65607
6386.08,0.65288
6362.93,0.64541
6339.79,0.64217
6316.64,0.64249
6293.5,0.63794
6270.35,0.63532
6247.21,0.62991
6224.06,0.61551
6200.92,0.60490
6177.77,0.57983
6154.63,0.53731
6131.48,0.48672
6108.34,0.43887
6085.19,0.46299
6062.05,0.47623
6038.9,0.43676
6015.76,0.35855
5992.61,0.29963
5969.47,0.26825
5946.32,0.26867
5923.18,0.28183
5900.03,0.28536
5876.89,0.29591
5853.74,0.29657
5830.6,0.29452
5807.45,0.29377
5784.31,0.30209
5761.16,0.33538
5738.02,0.33844
5714.87,0.30915
5691.73,0.30241
5668.58,0.30972
5645.44,0.32282
5622.29,0.34030
5599.15,0.34590
5576,0.35826
5552.86,0.36442
5529.71,0.36676
5506.57,0.36879
5483.42,0.37436
5460.28,0.37663
5437.13,0.37575
5413.99,0.37409
5390.84,0.37374
5367.7,0.37295
5344.55,0.38236
5321.41,0.38532
5298.26,0.38194
5275.12,0.36398
5251.97,0.34269
5228.83,0.35287
5205.68,0.37271
5182.54,0.37138
5159.39,0.36133
5136.25,0.35371
5113.1,0.37782
5089.96,0.38328
5066.81,0.38602
5043.67,0.38800
5020.52,0.38737
4997.38,0.38527
4974.23,0.37939
4951.09,0.37528
4927.94,0.37409
4904.8,0.37378
4881.65,0.36284
4858.51,0.36429
4835.36,0.36475
4812.22,0.36674
4789.07,0.35751
4765.93,0.33994
4742.78,0.32581
4719.64,0.27168
4696.49,0.25617
4673.35,0.17511
4650.2,0.19082
4627.06,0.16859
4603.92,0.16762
4580.77,0.18829
4557.63,0.21775
4534.48,0.23363
4511.34,0.22827
4488.19,0.21238
4465.05,0.21451
4441.9,0.19932
4418.76,0.18100
4395.61,0.15083
4372.47,0.12729
4349.32,0.11528
4326.18,0.11358
4303.03,0.11785
4279.89,0.11100
4256.74,0.10255
4233.6,0.10405
4210.45,0.10548
4187.31,0.11075
4164.16,0.11587
4141.02,0.11608
4117.87,0.11240
4094.73,0.10826
4071.58,0.09434
4048.44,0.08891
4025.29,0.09593
4002.15,0.11025
3979,0.11568
3955.86,0.11793
3932.71,0.11635
3909.57,0.11791
3886.42,0.12107
3863.28,0.12303
3840.13,0.12000
3816.99,0.11769
3793.84,0.12090
3770.7,0.12110
3747.55,0.12274
3724.41,0.11601
3701.26,0.10943
3678.12,0.09379
3654.97,0.08251
3631.83,0.08403
3608.68,0.08624
3585.54,0.08656
3562.39,0.08191
3539.25,0.07952
3516.1,0.08052
3492.96,0.08158
3469.81,0.08274
3446.67,0.08183
3423.52,0.08239
3400.38,0.08197
3377.23,0.08178
3354.09,0.08179
3330.94,0.08026
3307.8,0.06826
3284.65,0.07164
3261.51,0.07774
3238.36,0.07797
3215.22,0.07662
3192.07,0.07537
3168.93,0.07444
3145.78,0.07358
3122.64,0.07033
3099.49,0.06372
3076.35,0.06060
3053.2,0.06091
3030.06,0.05892
3006.91,0.05922
2983.77,0.05927
2960.62,0.05858
2937.48,0.05910
2914.33,0.06235
2891.19,0.06147
2868.04,0.06183
2844.9,0.06243
2821.75,0.06392
2798.61,0.06611
2775.46,0.06815
2752.32,0.06943
2729.17,0.06918
2706.03,0.06900
2682.88,0.06829
2659.74,0.06822
2636.59,0.06790
2613.45,0.06877
2590.3,0.06959
2567.16,0.06972
2544.02,0.06900
2520.87,0.06874
2497.73,0.06911
2474.58,0.07076
2451.44,0.07040
2428.29,0.07031
2405.15,0.06925
2382,0.06860
2358.86,0.06852
2335.71,0.06664
2312.57,0.06688
2289.42,0.06732
2266.28,0.06566
2243.13,0.06000
2219.99,0.06562
2196.84,0.06805
2173.7,0.06923
2150.55,0.06965
2127.41,0.06977
2104.26,0.06938
2081.12,0.06885
2057.97,0.06792
2034.83,0.06669
2011.68,0.06523
1988.54,0.06249
1965.39,0.06082
1942.25,0.06155
1919.1,0.06249
1895.96,0.06087
1872.81,0.06028
1849.67,0.06181
1826.52,0.05997
1803.38,0.05957
1780.23,0.06022
1757.09,0.05904
1733.94,0.06024
1710.8,0.06070
1687.65,0.06014
1664.51,0.06019
1641.36,0.05933
1618.22,0.06011
1595.07,0.06045
1571.93,0.05975
1548.78,0.05873
1525.64,0.05895
1502.49,0.05645
1479.35,0.05847
1456.2,0.05553
1433.06,0.06132
1409.91,0.06037
1386.77,0.05971
1363.62,0.06015
1340.48,0.05960
1317.33,0.05982
1294.19,0.05995
1271.04,0.06063
1247.9,0.06037
1224.75,0.06007
1201.61,0.05985
1178.46,0.06035
1155.32,0.06040
1132.17,0.06006
1109.03,0.05914
1085.88,0.05913
1062.74,0.05975
1039.59,0.06033
1016.45,0.06060
993.304,0.05932
970.159,0.05681
947.014,0.06145
923.869,0.05925
900.724,0.06014
877.579,0.05944
854.434,0.05780
831.289,0.05732
808.144,0.05569
784.999,0.05300
761.854,0.05554
738.709,0.05678
715.565,0.04812
692.42,0.07436
669.275,0.06393
646.13,0.06163
622.985,0.06075
599.84,0.06074