Folder: fsri_materials_database/01_Data/FRP_Panel/Cone

Note: README.md
# Materials and Products Database
### Repository of materials and products properties and fire test data to improve fire modeling and fire investigation.

This project was supported in part by Award No. 2019-DU-BX-0018, awarded by the National Institute of Justice, Office of Justice Programs, U.S. Department of Justice. The opinions, findings, and conclusions or recommendations expressed in this publication / program / exhibition are those of the author(s) and do not necessarily reflect those of the Department of Justice.

***
***

__Cite this database:__ "McKinnon, M., Weinschenk, C., Dow, N., DiDomizio, M., and Madrzykowski, D. Materials and Products Database (Version 1.0.0), Fire Safety Research Institute, UL Research Institutes. Columbia, MD 21045, 2023."

__Cite the Technical Reference Guide:__ "McKinnon, M., Weinschenk, C., and Madrzykowski, D. Materials and Products Database - Technical Reference Guide, Fire Safety Research Institute, UL Research Institutes. Columbia, MD 21045, 2023."

__Cite the User Guide:__ "McKinnon, M., and Weinschenk, C. Materials and Products Database - User Guide, Fire Safety Research Institute, UL Research Institutes. Columbia, MD 21045, 2023."

***
***

## Database Structure

## 01_Data/
Raw data generated from each apparatus are included here in plain-text format. The data is organized first by material, next by the short name of test apparatus used, and where applicable additional filtering by test settings.

### Test Apparatus and Data File Structure
- __Cone Calorimeter__ (Cone)
    + Data file structure includes the material, the short name for the apparatus, heat flux setting and scan/scalar, date of test, and replicate number. Scan is for the raw output data and scalar is for the initial conditions and high-level test parameters. 
        * Example: __MDF_Cone_HF25scalar_210323_R1__ stands for the first replicate of scalar data generated from a medium density fiber board test in cone calorimeter exposed to 25 kW/m<sup>2</sup> on March 23, 2021.
    + A _Cone_Notes.csv_ is generated for each material from the __plot_Cone_data.py__ script. For materials whose experiments deviated from typical behavior relevant pictures are included in the respective material directory.
- __Fourier Transform Infrared Spectrometer__ (FTIR)
    + The FTIR directory contains subdirectories for the Attenuated Total Reflectance method (ATR) and the Integrating Sphere (IS)
    + Data file structure for the ATR experiment files includes the material, the abbreviated name for the apparatus, date of test, and replicate number. 
        * Example: __MDF_ATR_210323_R5__ stands for the fifth replicate of data collected with the ATR accessory conducted on June 8, 2021.
    + Data file structure for the IS experiment files includes the material, the abbreviated name for the apparatus, the measurand, whether the test is a sample measurement or standard reference, date of test, and replicate number.
        * Example: __OSB_IS_REFLECT_MEAS_2

File: FRP_Panel_HRRPUA_25.csv
Time after Ignition,FRP_Panel_R1,FRP_Panel_R2,FRP_Panel_R3,Mean,Std. Dev.
0.0,0.6,1.2,4.8,2.2,2.3
0.5,1.1,2.9,7.1,3.7,3.1
1.0,2.8,5.7,10.3,6.3,3.8
1.5,4.2,9.3,14.5,9.3,5.2
2.0,5.3,11.9,17.9,11.7,6.3
2.5,8.3,17.6,20.5,15.5,6.4
3.0,10.7,22.3,28.3,20.4,9.0
3.5,16.1,29.3,34.4,26.6,9.5
4.0,20.4,35.3,41.0,32.2,10.6
4.5,29.5,42.2,48.6,40.1,9.7
5.0,36.7,50.7,57.4,48.3,10.5
5.5,47.8,55.9,67.8,57.2,10.1
6.0,58.1,67.0,75.5,66.9,8.7
6.5,68.9,75.1,89.7,77.9,10.7
7.0,78.5,82.1,100.7,87.1,11.9
7.5,90.3,93.6,109.1,97.7,10.1
8.0,99.0,102.8,124.9,108.9,14.0
8.5,108.7,118.4,137.9,121.7,14.8
9.0,120.0,127.0,154.3,133.8,18.1
9.5,130.1,138.1,167.6,145.3,19.7
10.0,147.5,151.1,189.5,162.7,23.3
10.5,150.9,169.3,203.3,174.5,26.5
11.0,159.7,183.3,220.4,187.8,30.6
11.5,180.9,197.6,238.9,205.8,29.9
12.0,188.8,213.7,258.7,220.4,35.4
12.5,206.9,223.2,280.4,236.9,38.6
13.0,221.7,246.2,292.0,253.3,35.7
13.5,245.3,260.4,310.0,271.9,33.8
14.0,263.3,276.8,329.5,289.8,35.0
14.5,279.6,295.3,339.6,304.8,31.1
15.0,292.0,321.3,355.2,322.8,31.7
15.5,310.8,343.1,374.2,342.7,31.7
16.0,332.2,353.7,378.8,354.9,23.4
16.5,348.8,392.3,427.5,389.5,39.4
17.0,357.3,416.8,426.3,400.1,37.4
17.5,372.2,437.0,459.5,422.9,45.3
18.0,395.2,462.4,481.5,446.4,45.3
18.5,404.1,488.3,484.8,459.1,47.6
19.0,437.2,504.5,512.6,484.8,41.4
19.5,455.9,525.3,541.1,507.4,45.4
20.0,470.2,563.0,523.8,519.0,46.6
20.5,515.6,559.3,536.9,537.2,21.9
21.0,519.3,612.0,567.7,566.3,46.4
21.5,532.4,610.7,580.7,574.6,39.5
22.0,549.6,644.2,587.0,593.6,47.7
22.5,557.4,645.4,590.1,597.6,44.5
23.0,575.6,691.2,615.6,627.5,58.7
23.5,580.3,681.9,621.1,627.8,51.1
24.0,581.4,711.0,635.4,642.6,65.1
24.5,610.2,704.6,664.0,659.6,47.3
25.0,614.2,721.7,686.6,674.2,54.8
25.5,616.7,699.6,687.9,668.1,44.9
26.0,620.3,713.1,690.8,674.7,48.4
26.5,621.4,721.4,724.2,689.0,58.6
27.0,657.9,703.7,718.2,693.3,31.5
27.5,673.0,751.7,733.5,719.4,41.2
28.0,649.3,720.0,736.2,701.8,46.2
28.5,666.0,727.3,707.2,700.1,31.3
29.0,674.3,744.0,739.1,719.1,38.9
29.5,678.8,751.4,767.8,732.7,47.3
30.0,707.6,731.4,761.3,733.4,26.9
30.5,672.4,728.1,762.3,720.9,45.4
31.0,682.0,728.3,728.1,712.8,26.7
31.5,684.8,721.5,758.1,721.5,36.7
32.0,699.0,741.1,748.7,729.6,26.8
32.5,679.6,729.2,764.4,724.4,42.6
33.0,681.1,734.9,740.4,718.8,32.8
33.5,676.1,735.9,761.7,724.5,43.9
34.0,676.6,719.6,744.5,713.6,34.4
34.5,688.6,738.2,768.2,731.7,40.2
35.0,682.9,679.4,769.9,710.7,51.3
35.5,657.0,718.4,752.7,709.4,48.5
36.0,665.1,692.9,753.9,704.0,45.5
36.5,669.2,699.7,758.3,709.1,45.3
37.0,644.5,719.1,752.7,705.4,55.4
37.5,669.2,729.5,768.5,722.4,50.0
38.0,678.3,699.3,753.4,710.3,38.8
38.5,645.3,702.5,778.7,708.8,66.9
39.0,644.9,721.1,733.2,699.7,47.9
39.5,667.7,700.6,747.7,705.3,40.2
40.0,656.5,704.1,741.9,700.8,42.8
40.5,663.8,715.4,726.7,702.0,33.6
41.0,661.8,719.3,723.4,701.5,34.4
41.5,638.0,719.6,719.2,692.2,47.0
42.0,654.5,706.6,727.2,696.1,37.4
42.5,628.1,693.4,736.0,685.9,54.3
43.0,663.3,693.6,720.7,692.5,28.7
43.5,651.1,710.1,711.2,690.8,34.4
44.0,654.7,694.7,736.4,695.3,40.9
44.5,630.1,700.6,727.9,686.2,50.5
45.0,639.9,690.0,721.3,683.7,41.1
45.5,672.8,686.9,701.1,686.9,14.1
46.0,629.5,697.3,724.6,683.8,48.9
46.5,645.1,691.7,692.2,676.3,27.0
47.0,636.5,691.8,674.9,667.8,28.3
47.5,653.9,702.6,706.8,687.8,29.4
48.0,628.9,685.9,698.6,671.1,37.1
48.5,635.1,695.5,703.2,677.9,37.3
49.0,639.1,677.5,689.3,668.6,26.2
49.5,640.1,667.3,678.2,661.9,19.6
50.0,626.9,690.9,682.1,666.6,34.7
50.5,632.9,654.3,679.9,655.7,23.5
51.0,615.4,661.2,677.5,651.3,32.2
51.5,619.1,661.6,679.7,653.5,31.1
52.0,605.0,653.1,672.2,643.4,34.6
52.5,599.1,653.6,663.3,638.6,34.6
53.0,606.7,646.9,654.9,636.2,25.8
53.5,604.5,656.2,643.1,634.6,26.9
54.0,604.1,647.4,634.9,628.8,22.3
54.5,584.7,653.4,629.3,622.5,34.9
55.0,583.8,645.3,625.4,618.2,31.4
55.5,583.9,646.5,619.4,616.6,31.4
56.0,561.3,629.5,619.2,603.3,36.7
56.5,581.4,612.3,612.8,602.2,18.0
57.0,571.6,614.1,598.7,594.8,21.5
57.5,566.5,599.2,605.0,590.2,20.7
58.0,555.4,592.3,606.2,584.7,26.2
58.5,558.6,610.6,583.3,584.2,26.0
59.0,545.5,580.2,568.0,564.6,17.6
59.5,556.0,563.8,554.2,558.0,5.1
60.0,550.8,557.8,552.2,553.6,3.7
60.5,530.7,555.1,552.3,546.0,13.4
61.0,527.0,538.4,545.9,537.1,9.5
61.5,521.7,554.5,527.3,534.5,17.5
62.0,510.6,526.7,536.6,524.6,13.1
62.5,509.1,532.9,530.0,524.0,13.0
63.0,498.7,515.2,509.8,507.9,8.4
63.5,487.1,509.4,509.5,502.0,12.9
64.0,480.1,498.1,498.7,492.3,10.5
64.5,484.8,491.3,486.9,487.6,3.3
65.0,482.2,472.0,477.2,477.1,5.1
65.5,475.4,462.1,477.3,471.6,8.3
66.0,475.4,461.1,453.5,463.4,11.1
66.5,462.7,451.4,450.0,454.7,6.9
67.0,459.4,431.1,440.5,443.7,14.4
67.5,456.3,435.3,423.8,438.4,16.5
68.0,440.0,424.9,427.6,430.8,8.1
68.5,446.6,415.0,419.8,427.1,17.0
69.0,427.6,409.4,405.6,414.2,11.7
69.5,434.6,398.6,401.5,411.5,20.0
70.0,428.7,380.9,390.9,400.1,25.2
70.5,415.9,370.6,384.1,390.2,23.3
71.0,413.5,366.8,378.6,386.3,24.3
71.5,401.3,348.6,363.1,371.0,27.2
72.0,403.9,337.5,363.7,368.4,33.5
72.5,400.8,326.9,349.0,358.9,37.9
73.0,394.1,320.2,345.7,353.3,37.5
73.5,375.8,314.6,337.7,342.7,30.9
74.0,376.5,308.6,326.5,337.2,35.2
74.5,366.1,295.6,322.1,328.0,35.6
75.0,364.6,288.3,308.2,320.4,39.6
75.5,349.4,280.6,297.6,309.2,35.9
76.0,339.8,275.8,289.3,301.6,33.7
76.5,332.7,269.5,289.7,297.3,32.3
77.0,329.2,268.7,279.8,292.5,32.2
77.5,320.1,256.1,272.0,282.7,33.3
78.0,314.6,246.1,259.8,273.5,36.2
78.5,312.2,248.2,250.5,270.3,36.3
79.0,299.7,236.9,242.6,259.7,34.8
79.5,296.0,226.3,232.8,251.7,38.5
80.0,293.1,221.5,225.9,246.8,40.1
80.5,282.5,212.9,218.4,237.9,38.7
81.0,279.7,205.9,207.6,231.1,42.1
81.5,275.4,194.4,201.2,223.7,45.0
82.0,265.0,186.1,193.6,214.9,43.5
82.5,260.6,178.5,188.2,209.1,44.8
83.0,250.6,173.9,179.0,201.2,42.9
83.5,244.6,166.6,175.2,195.5,42.8
84.0,234.8,160.2,170.6,188.5,40.4
84.5,233.1,150.9,164.1,182.7,44.1
85.0,227.6,145.9,158.1,177.2,44.1
85.5,222.0,138.8,155.3,172.0,44.0
86.0,216.7,133.2,149.9,166.6,44.2
86.5,211.5,126.2,143.1,160.3,45.2
87.0,209.0,123.8,138.3,157.0,45.5
87.5,201.1,117.7,133.8,150.9,44.2
88.0,197.5,112.4,128.6,146.1,45.2
88.5,193.9,107.3,124.8,142.0,45.8
89.0,186.3,101.9,119.7,136.0,44.5
89.5,184.3,98.1,115.3,132.6,45.6
90.0,176.2,91.9,111.2,126.4,44.1
90.5,171.7,89.4,107.7,122.9,43.2
91.0,163.9,85.5,103.8,117.7,41.0
91.5,159.0,80.2,98.6,112.6,41.2
92.0,155.3,77.2,94.7,109.1,41.0
92.5,151.6,72.7,90.8,105.0,41.3
93.0,146.6,68.9,87.9,101.1,40.5
93.5,144.5,66.6,82.3,97.8,41.2
94.0,136.6,64.4,78.1,93.0,38.4
94.5,133.2,62.4,73.7,89.8,38.0
95.0,129.8,59.1,71.0,86.6,37.9
95.5,123.3,56.2,68.7,82.7,35.7
96.0,119.5,54.0,65.8,79.8,34.9
96.5,113.0,52.0,63.3,76.1,32.5
97.0,106.6,50.1,62.6,73.1,29.7
97.5,100.6,48.8,59.3,69.6,27.4
98.0,96.3,46.7,56.3,66.4,26.3
98.5,90.2,44.8,55.3,63.4,23.8
99.0,85.3,43.6,53.1,60.7,21.8
99.5,81.5,,51.3,66.4,21.4
100.0,75.9,,49.5,62.7,18.7
100.5,72.5,,47.9,60.2,17.4
101.0,67.1,,45.7,56.4,15.1
101.5,63.8,,44.6,54.2,13.6
102.0,60.2,,42.8,51.5,12.3
102.5,57.8,,41.8,49.8,11.3
103.0,54.5,,,54.5,
103.5,52.0,,,52.0,

File: FRP_Panel_HRRPUA_50.csv
Time after Ignition,FRP_Panel_R1,FRP_Panel_R2,FRP_Panel_R3,FRP_Panel_R4,Mean,Std. Dev.
0.0,4.8,12.8,12.6,10.5,10.2,3.7
0.5,8.9,18.0,18.2,18.2,15.8,4.6
1.0,12.1,28.5,26.3,28.2,23.8,7.8
1.5,17.4,42.5,36.4,35.7,33.0,10.8
2.0,25.1,58.7,44.6,47.2,43.9,14.0
2.5,30.9,77.7,51.0,62.2,55.4,19.7
3.0,42.7,97.7,64.3,79.5,71.0,23.3
3.5,53.2,117.7,77.1,101.1,87.3,28.2
4.0,69.3,134.6,90.5,116.6,102.8,28.7
4.5,84.5,155.5,106.4,141.2,121.9,32.4
5.0,95.9,176.6,131.8,161.6,141.5,35.7
5.5,116.7,189.2,153.8,195.9,163.9,36.5
6.0,136.4,217.4,182.0,220.4,189.0,39.2
6.5,158.0,234.2,194.8,255.1,210.5,43.0
7.0,176.7,260.4,251.3,287.3,243.9,47.3
7.5,201.8,281.4,271.4,320.4,268.7,49.4
8.0,214.8,317.5,307.7,358.9,299.8,60.8
8.5,233.8,339.0,322.8,364.7,315.1,56.8
9.0,259.1,380.9,368.2,379.5,346.9,58.8
9.5,275.6,407.6,397.1,421.6,375.5,67.3
10.0,296.0,448.7,422.6,441.0,402.1,71.5
10.5,317.5,443.6,461.1,445.4,416.9,66.7
11.0,346.3,476.6,479.8,482.4,446.3,66.7
11.5,374.5,522.9,515.2,502.8,478.8,70.1
12.0,395.4,530.0,541.4,541.2,502.0,71.3
12.5,418.5,532.2,564.9,569.7,521.3,70.6
13.0,446.7,578.8,584.3,592.4,550.5,69.4
13.5,478.6,583.0,594.2,603.8,564.9,58.1
14.0,499.9,601.2,595.9,645.4,585.6,61.3
14.5,533.6,609.4,617.0,653.2,603.3,50.2
15.0,543.2,634.0,625.3,662.6,616.3,51.3
15.5,552.9,647.0,654.2,703.6,639.4,62.9
16.0,542.9,650.1,668.6,687.8,637.3,64.8
16.5,593.9,638.9,651.1,699.9,645.9,43.5
17.0,586.9,664.7,674.5,734.0,665.0,60.4
17.5,612.5,666.2,680.9,733.3,673.2,49.7
18.0,617.1,669.5,689.9,728.9,676.4,46.5
18.5,646.4,677.1,690.7,761.6,694.0,48.8
19.0,650.8,696.2,729.5,747.9,706.1,42.7
19.5,625.1,686.9,748.2,765.5,706.4,63.9
20.0,649.1,708.2,736.1,789.9,720.8,58.6
20.5,692.6,711.0,697.7,783.2,721.1,42.1
21.0,667.8,679.2,727.6,805.1,719.9,62.4
21.5,652.1,735.7,739.8,769.8,724.3,50.5
22.0,664.1,716.3,741.8,797.1,729.8,55.3
22.5,679.1,733.5,717.6,797.4,731.9,49.3
23.0,674.3,718.7,755.0,811.5,739.9,58.1
23.5,661.0,748.0,757.1,830.6,749.2,69.5
24.0,679.8,761.1,763.8,833.5,759.6,62.8
24.5,683.0,748.0,744.7,802.8,744.6,49.0
25.0,691.0,752.2,739.7,862.6,761.4,72.5
25.5,664.9,754.2,745.7,831.8,749.2,68.2
26.0,706.1,763.0,757.8,840.7,766.9,55.5
26.5,725.0,756.5,772.3,855.0,777.2,55.5
27.0,715.4,737.0,744.2,882.6,769.8,76.2
27.5,711.3,748.9,735.3,882.2,769.4,76.8
28.0,719.2,767.4,773.1,924.6,796.1,89.0
28.5,695.4,790.1,794.7,939.7,805.0,100.8
29.0,689.1,755.4,774.0,879.9,774.6,79.1
29.5,722.2,796.2,785.9,892.4,799.2,70.2
30.0,726.9,822.7,790.7,920.3,815.2,80.6
30.5,719.1,770.8,802.5,935.3,806.9,92.2
31.0,748.5,780.7,795.7,901.4,806.5,66.2
31.5,735.0,826.3,799.4,939.6,825.1,85.4
32.0,741.2,818.3,842.6,915.4,829.4,71.8
32.5,732.4,802.7,836.1,859.2,807.6,55.2
33.0,764.2,813.3,827.6,899.7,826.2,56.0
33.5,748.8,859.1,888.2,912.8,852.2,72.3
34.0,724.8,861.5,810.3,943.3,835.0,91.6
34.5,732.3,848.8,870.8,943.2,848.8,87.5
35.0,737.9,840.8,863.2,909.6,837.9,72.5
35.5,754.1,847.5,835.9,944.3,845.4,77.9
36.0,750.8,841.5,865.7,888.3,836.6,60.3
36.5,732.0,836.3,830.5,925.6,831.1,79.1
37.0,744.4,872.1,825.2,937.4,844.8,81.2
37.5,729.6,847.9,848.8,928.8,838.8,82.1
38.0,732.6,898.3,874.5,946.9,863.1,92.1
38.5,759.5,876.4,866.2,902.0,851.0,62.8
39.0,712.7,839.9,855.8,908.2,829.1,82.9
39.5,737.7,860.6,884.2,921.5,851.0,79.6
40.0,754.9,844.8,878.8,921.1,849.9,70.6
40.5,750.2,837.4,871.6,919.2,844.6,71.3
41.0,718.5,853.3,884.0,898.4,838.5,82.2
41.5,706.3,835.7,851.5,916.4,827.5,88.0
42.0,752.7,867.5,858.7,940.5,854.9,77.3
42.5,738.4,866.1,827.3,940.0,843.0,83.9
43.0,719.1,863.2,860.6,915.3,839.6,84.2
43.5,704.0,826.5,829.8,925.5,821.5,90.8
44.0,740.7,843.9,863.0,910.7,839.6,71.7
44.5,728.9,840.4,838.2,924.5,833.0,80.2
45.0,723.8,843.4,859.0,885.1,827.8,71.5
45.5,719.8,882.2,842.1,887.8,833.0,78.2
46.0,692.5,807.8,863.6,871.4,808.8,82.5
46.5,717.4,818.5,827.1,864.9,807.0,63.0
47.0,691.2,829.2,811.2,872.1,800.9,77.5
47.5,706.8,804.1,825.0,844.0,795.0,61.0
48.0,718.6,815.4,804.3,815.4,788.4,46.8
48.5,682.4,830.0,817.7,843.8,793.5,74.8
49.0,705.5,792.7,796.6,793.5,772.1,44.4
49.5,679.4,792.3,812.8,796.0,770.1,61.1
50.0,654.8,801.8,803.7,792.1,763.1,72.4
50.5,664.5,777.3,783.3,764.5,747.4,55.8
51.0,664.5,766.4,796.6,737.4,741.2,56.6
51.5,672.0,798.1,788.1,714.5,743.2,60.4
52.0,668.4,736.9,776.4,696.9,719.7,47.1
52.5,648.1,750.9,761.9,697.9,714.7,52.5
53.0,643.6,705.1,734.2,687.8,692.7,37.9
53.5,654.4,753.9,750.8,671.7,707.7,52.1
54.0,672.0,730.1,717.7,652.4,693.0,36.9
54.5,635.6,734.8,692.8,627.4,672.6,50.7
55.0,644.3,715.5,676.9,605.4,660.5,46.9
55.5,614.0,683.2,663.9,578.7,634.9,47.5
56.0,629.8,689.6,647.1,581.4,637.0,44.8
56.5,613.1,683.8,649.6,546.3,623.2,58.9
57.0,580.7,661.2,624.3,531.8,599.5,55.8
57.5,586.7,639.1,617.9,515.8,589.9,53.9
58.0,579.7,632.7,598.7,496.5,576.9,57.9
58.5,573.4,624.9,606.6,481.2,571.5,63.9
59.0,575.9,609.0,590.5,470.3,561.4,62.2
59.5,559.0,606.7,590.9,447.3,551.0,71.9
60.0,546.2,606.6,569.1,423.3,536.3,79.3
60.5,534.1,575.2,556.4,402.7,517.1,78.1
61.0,530.4,583.8,544.7,374.0,508.2,92.3
61.5,526.7,573.1,508.5,358.4,491.7,92.9
62.0,509.1,547.8,494.2,337.3,472.1,92.6
62.5,493.5,537.1,494.0,317.6,460.6,97.5
63.0,491.1,517.7,459.1,298.0,441.4,98.6
63.5,480.0,499.4,441.1,280.4,425.2,99.5
64.0,463.2,485.6,429.3,266.7,411.2,99.1
64.5,465.4,460.4,416.0,254.0,398.9,99.2
65.0,456.3,443.2,408.2,246.0,388.4,97.1
65.5,449.3,426.9,392.9,232.4,375.4,98.1
66.0,442.3,415.6,378.9,219.3,364.0,99.9
66.5,424.8,394.9,369.2,205.9,348.7,97.9
67.0,423.5,378.8,358.4,188.6,337.3,102.8
67.5,412.8,372.1,337.5,183.3,326.4,100.3
68.0,403.6,361.1,322.8,172.2,314.9,100.7
68.5,393.9,342.6,305.7,159.1,300.3,100.9
69.0,380.2,322.4,292.3,148.8,285.9,98.5
69.5,375.9,311.3,281.4,139.2,276.9,99.9
70.0,365.2,299.4,259.3,127.9,262.9,100.0
70.5,355.5,276.7,247.0,119.5,249.7,98.1
71.0,348.4,265.3,240.0,112.2,241.4,97.8
71.5,344.6,245.9,227.1,106.3,231.0,97.8
72.0,341.8,234.0,215.2,99.2,222.6,99.4
72.5,324.7,216.3,210.0,93.7,211.2,94.3
73.0,315.4,201.7,196.3,89.4,200.7,92.3
73.5,312.3,191.1,183.5,84.2,192.8,93.4
74.0,305.8,177.3,170.9,80.4,183.6,92.7
74.5,298.3,164.6,159.7,77.4,175.0,91.4
75.0,291.7,152.8,147.9,73.1,166.4,91.1
75.5,286.3,141.3,139.6,70.5,159.5,90.8
76.0,274.4,132.0,127.3,67.2,150.2,87.9
76.5,265.5,123.5,118.0,64.5,142.9,86.0
77.0,262.0,114.9,108.3,61.6,136.7,86.8
77.5,259.1,106.1,101.2,60.0,131.6,87.5
78.0,251.0,99.2,94.2,58.5,125.7,85.5
78.5,246.6,92.9,90.0,58.4,122.0,84.5
79.0,239.2,86.7,84.2,56.5,116.6,82.9
79.5,234.7,80.8,79.8,55.0,112.6,82.3
80.0,220.6,77.5,75.3,54.4,106.9,76.5
80.5,215.7,74.1,72.0,53.6,103.8,75.2
81.0,205.3,69.7,69.8,52.8,99.4,71.0
81.5,196.6,67.2,65.5,51.5,95.2,68.0
82.0,188.0,63.3,63.5,50.9,91.4,64.7
82.5,179.6,60.7,61.2,50.6,88.0,61.3
83.0,172.0,58.2,59.1,48.9,84.5,58.5
83.5,163.2,56.5,,47.9,89.2,64.2
84.0,159.7,55.6,,47.9,87.7,62.4
84.5,154.9,54.3,,48.0,85.7,60.0
85.0,148.0,52.0,,47.2,82.4,56.8
85.5,142.0,51.8,,46.6,80.1,53.6
86.0,136.5,50.1,,46.4,77.7,51.0
86.5,131.6,50.4,,45.4,75.8,48.4
87.0,126.5,49.9,,45.5,74.0,45.6
87.5,122.1,48.7,,44.1,71.7,43.8
88.0,115.4,48.2,,45.0,69.5,39.8
88.5,110.2,47.2,,43.8,67.1,37.4
89.0,105.5,46.5,,43.6,65.2,34.9
89.5,100.7,45.8,,43.4,63.3,32.4
90.0,95.3,46.2,,43.1,61.5,29.3
90.5,92.2,45.2,,42.5,59.9,27.9
91.0,88.4,45.7,,42.8,59.0,25.6
91.5,84.5,44.8,,42.4,57.2,23.6
92.0,81.0,44.5,,42.0,55.8,21.9
92.5,76.9,44.2,,41.6,54.2,19.7
93.0,75.3,43.0,,41.6,53.3,19.1
93.5,72.6,43.4,,41.3,52.4,17.5
94.0,70.1,43.6,,41.5,51.7,15.9
94.5,67.9,42.7,,41.0,50.5,15.1
95.0,67.5,42.8,,40.9,50.4,14.8
95.5,63.7,41.3,,41.0,48.7,13.0
96.0,62.0,41.5,,40.5,48.0,12.1