Folder: fsri_materials_database/01_Data/FRP_Panel/Cone (part 2)

File: FRP_Panel_HRRPUA_75.csv
Time after Ignition,FRP_Panel_R1,FRP_Panel_R2,FRP_Panel_R3,Mean,Std. Dev.
0.0,10.5,30.8,23.8,21.7,10.3
0.25,13.7,37.1,32.2,27.6,12.3
0.5,16.4,42.3,39.9,32.9,14.3
0.75,24.9,48.5,47.1,40.2,13.3
1.0,32.0,53.2,59.6,48.3,14.5
1.25,38.6,64.8,70.4,57.9,17.0
1.5,54.0,73.6,80.6,69.4,13.8
1.75,67.8,81.3,91.3,80.1,11.8
2.0,81.6,88.9,99.0,89.8,8.7
2.25,90.9,103.3,112.1,102.1,10.6
2.5,101.8,113.2,125.4,113.4,11.8
2.75,119.0,124.8,137.5,127.1,9.5
3.0,132.0,145.8,146.2,141.4,8.1
3.25,147.1,146.2,155.6,149.6,5.2
3.5,162.2,179.9,159.9,167.3,10.9
3.75,175.6,193.5,167.8,179.0,13.2
4.0,196.0,205.4,185.8,195.7,9.8
4.25,212.1,205.3,193.8,203.7,9.3
4.5,222.4,228.3,201.8,217.5,13.9
4.75,238.9,255.7,212.7,235.8,21.7
5.0,248.0,267.7,225.6,247.1,21.0
5.25,265.1,281.8,243.0,263.3,19.5
5.5,284.1,306.4,259.8,283.4,23.3
5.75,298.9,337.0,269.1,301.7,34.0
6.0,324.7,353.8,275.2,317.9,39.7
6.25,322.0,385.0,304.8,337.3,42.2
6.5,347.6,387.9,328.7,354.7,30.2
6.75,354.1,404.2,358.7,372.3,27.7
7.0,379.5,443.1,354.9,392.5,45.5
7.25,417.0,461.6,374.8,417.8,43.4
7.5,432.7,483.8,390.5,435.7,46.7
7.75,430.2,496.6,429.2,452.0,38.6
8.0,480.0,537.8,475.0,497.6,34.9
8.25,494.9,569.8,488.8,517.8,45.1
8.5,487.2,590.3,510.5,529.4,54.1
8.75,517.1,612.7,532.2,554.0,51.4
9.0,560.8,617.2,569.3,582.4,30.4
9.25,567.5,619.0,579.8,588.8,26.9
9.5,586.2,647.1,613.3,615.5,30.5
9.75,604.5,685.2,654.7,648.2,40.7
10.0,639.3,659.4,637.6,645.5,12.1
10.25,657.9,711.9,677.0,682.3,27.4
10.5,676.0,720.9,684.7,693.9,23.8
10.75,677.5,732.2,724.6,711.4,29.6
11.0,719.4,731.5,718.5,723.1,7.3
11.25,719.6,761.5,735.3,738.8,21.2
11.5,772.9,751.9,744.2,756.3,14.8
11.75,742.1,772.9,745.1,753.4,17.0
12.0,762.1,746.9,762.7,757.2,9.0
12.25,782.5,733.7,787.0,767.7,29.5
12.5,774.7,771.3,792.0,779.3,11.1
12.75,783.7,789.8,811.4,795.0,14.6
13.0,810.6,782.9,811.5,801.7,16.3
13.25,821.9,807.1,817.7,815.6,7.6
13.5,823.9,796.4,842.3,820.9,23.1
13.75,840.6,784.1,828.6,817.8,29.8
14.0,853.9,796.0,846.4,832.1,31.5
14.25,858.2,805.9,823.9,829.4,26.6
14.5,888.5,840.2,851.4,860.0,25.3
14.75,869.2,859.8,930.4,886.5,38.4
15.0,909.8,838.6,858.4,868.9,36.7
15.25,849.7,897.0,904.3,883.7,29.6
15.5,912.5,853.0,883.7,883.0,29.8
15.75,876.2,882.2,858.9,872.4,12.1
16.0,890.5,876.7,888.4,885.2,7.4
16.25,873.8,885.9,908.5,889.4,17.6
16.5,932.1,893.3,887.3,904.2,24.3
16.75,905.3,866.8,898.9,890.3,20.6
17.0,916.4,877.8,884.6,892.9,20.6
17.25,914.4,930.5,931.7,925.5,9.7
17.5,959.9,922.3,914.3,932.2,24.4
17.75,898.3,925.7,901.0,908.3,15.1
18.0,878.2,902.4,949.1,909.9,36.0
18.25,955.1,940.9,923.1,939.7,16.1
18.5,926.5,938.7,960.9,942.0,17.4
18.75,966.6,955.2,918.6,946.8,25.1
19.0,944.5,918.6,966.7,943.2,24.1
19.25,975.9,962.9,966.5,968.4,6.7
19.5,932.2,987.8,939.4,953.1,30.2
19.75,961.0,949.6,979.9,963.5,15.3
20.0,958.2,962.5,951.2,957.3,5.7
20.25,1051.1,964.8,974.2,996.7,47.4
20.5,961.8,951.4,944.9,952.7,8.5
20.75,922.8,1027.9,1062.7,1004.5,72.9
21.0,966.1,968.7,1002.1,979.0,20.1
21.25,968.9,984.9,1001.6,985.1,16.4
21.5,955.4,1027.7,1012.6,998.6,38.1
21.75,1009.2,1033.0,1022.8,1021.7,11.9
22.0,994.1,1021.5,987.7,1001.1,18.0
22.25,1032.0,975.3,1064.7,1024.0,45.3
22.5,979.9,1107.4,1021.9,1036.4,65.0
22.75,990.6,1032.0,1004.2,1008.9,21.1
23.0,989.6,1014.2,1060.8,1021.5,36.2
23.25,1021.4,1022.4,1027.1,1023.6,3.0
23.5,1016.7,1057.0,1055.2,1043.0,22.8
23.75,1003.5,1071.2,1049.4,1041.4,34.6
24.0,988.8,1045.8,1124.3,1053.0,68.0
24.25,1077.5,1066.1,1017.6,1053.7,31.8
24.5,994.2,1102.8,1095.1,1064.0,60.6
24.75,999.4,1052.9,1091.3,1047.8,46.2
25.0,1109.5,1035.6,1042.1,1062.4,40.9
25.25,1063.7,1069.9,1083.4,1072.3,10.1
25.5,983.7,1073.6,1086.5,1047.9,56.0
25.75,1015.4,1116.9,1021.4,1051.2,57.0
26.0,1025.6,1067.1,1070.3,1054.3,24.9
26.25,1014.4,1142.7,1034.4,1063.8,69.0
26.5,1051.6,1089.7,1153.4,1098.2,51.5
26.75,1045.4,1073.0,1037.6,1052.0,18.6
27.0,1044.6,1056.6,1101.9,1067.7,30.2
27.25,1066.3,1141.8,1077.3,1095.1,40.8
27.5,1074.0,1061.8,1100.5,1078.8,19.8
27.75,1099.3,1077.4,1098.9,1091.9,12.5
28.0,1041.4,1085.7,1106.9,1078.0,33.4
28.25,1016.7,1056.9,1128.8,1067.5,56.8
28.5,1099.2,1134.3,1086.1,1106.5,24.9
28.75,1057.6,1109.2,1081.4,1082.7,25.8
29.0,1045.3,1071.7,1099.9,1072.3,27.3
29.25,1069.6,1100.1,1135.8,1101.8,33.1
29.5,1092.0,1091.1,1069.7,1084.3,12.6
29.75,1111.9,1121.6,1075.8,1103.1,24.1
30.0,1104.3,1045.5,1117.0,1088.9,38.2
30.25,1064.5,1112.2,1169.1,1115.3,52.4
30.5,1105.4,1099.7,1115.5,1106.9,8.0
30.75,1070.0,1121.8,1122.7,1104.8,30.2
31.0,1053.2,1051.3,1118.1,1074.2,38.1
31.25,1080.0,1138.2,1142.1,1120.1,34.8
31.5,1059.8,1084.5,1086.1,1076.8,14.7
31.75,1113.3,1137.4,1082.2,1111.0,27.7
32.0,1078.5,1074.3,1080.6,1077.8,3.2
32.25,1091.6,1043.8,1119.4,1084.9,38.2
32.5,1127.3,1082.2,1073.4,1094.3,28.9
32.75,1069.9,1064.6,1106.1,1080.2,22.6
33.0,1055.5,1112.4,1091.8,1086.6,28.8
33.25,1043.5,1133.0,1129.9,1102.1,50.8
33.5,1042.0,1038.2,1100.2,1060.1,34.7
33.75,1057.6,1127.7,1104.8,1096.7,35.8
34.0,1024.6,1077.4,1090.2,1064.1,34.8
34.25,1094.0,1099.8,1060.9,1084.9,21.0
34.5,1096.7,1093.3,1037.2,1075.8,33.4
34.75,1086.3,1090.2,1094.3,1090.3,4.0
35.0,987.9,1096.5,1091.6,1058.6,61.3
35.25,1069.2,1049.9,1031.4,1050.2,18.9
35.5,1054.3,1085.4,1071.3,1070.3,15.6
35.75,1072.7,1088.0,1063.9,1074.9,12.2
36.0,1049.4,1044.9,1096.5,1063.6,28.6
36.25,1027.9,1063.2,1054.5,1048.6,18.4
36.5,1051.9,1054.1,1060.4,1055.5,4.4
36.75,1014.5,1097.8,1061.6,1058.0,41.7
37.0,1030.3,1070.0,1095.2,1065.2,32.7
37.25,1035.5,1092.9,1069.2,1065.9,28.8
37.5,1026.9,1066.7,1038.2,1044.0,20.5
37.75,995.4,1026.4,1041.0,1021.0,23.3
38.0,1007.8,1079.7,1028.1,1038.5,37.1
38.25,1013.0,1032.7,1063.8,1036.5,25.6
38.5,1005.9,1031.0,1012.0,1016.3,13.1
38.75,1019.5,1021.1,1024.8,1021.8,2.8
39.0,1021.5,1031.1,993.1,1015.2,19.7
39.25,985.5,1011.9,985.1,994.2,15.4
39.5,956.2,978.3,1003.2,979.2,23.5
39.75,990.0,992.5,998.6,993.7,4.4
40.0,971.7,978.3,994.7,981.6,11.8
40.25,930.4,983.7,980.3,964.8,29.8
40.5,924.3,987.7,964.8,958.9,32.1
40.75,946.5,928.1,938.9,937.9,9.3
41.0,974.4,920.5,944.3,946.4,27.0
41.25,956.8,921.6,965.3,947.9,23.1
41.5,940.8,921.4,952.1,938.1,15.5
41.75,927.1,884.9,914.6,908.9,21.6
42.0,926.7,874.8,911.5,904.3,26.7
42.25,925.6,865.7,886.0,892.5,30.4
42.5,909.4,845.2,872.7,875.8,32.2
42.75,876.5,881.3,873.2,877.0,4.1
43.0,884.2,829.4,867.5,860.4,28.1
43.25,849.7,836.8,861.4,849.3,12.3
43.5,831.8,799.0,861.1,830.6,31.1
43.75,843.9,803.8,817.1,821.6,20.4
44.0,819.1,792.6,825.3,812.3,17.4
44.25,816.4,793.7,821.4,810.5,14.7
44.5,806.0,772.0,825.7,801.2,27.1
44.75,809.8,739.2,778.9,776.0,35.4
45.0,775.4,744.2,767.0,762.2,16.2
45.25,772.9,746.5,778.9,766.1,17.2
45.5,734.5,729.5,747.7,737.2,9.4
45.75,746.6,687.5,741.9,725.3,32.9
46.0,753.3,683.0,741.9,726.1,37.7
46.25,734.2,685.1,718.7,712.7,25.1
46.5,716.3,652.1,715.0,694.4,36.7
46.75,694.1,637.4,681.9,671.1,29.8
47.0,678.0,627.6,672.2,659.2,27.6
47.25,663.5,597.7,653.2,638.1,35.4
47.5,682.0,592.3,641.4,638.6,44.9
47.75,662.2,563.9,627.8,618.0,49.9
48.0,635.1,550.1,612.6,599.3,44.1
48.25,619.9,544.3,597.3,587.2,38.8
48.5,615.2,534.0,585.0,578.0,41.1
48.75,595.9,514.2,557.5,555.9,40.9
49.0,590.4,498.1,550.6,546.4,46.3
49.25,569.9,488.2,528.0,528.7,40.9
49.5,560.9,470.3,512.7,514.6,45.3
49.75,545.9,453.9,501.1,500.3,46.0
50.0,518.3,440.5,488.9,482.6,39.3
50.25,515.8,419.0,472.9,469.2,48.5
50.5,502.9,403.3,467.0,457.7,50.4
50.75,478.6,397.5,452.2,442.8,41.4
51.0,467.2,379.9,432.6,426.6,43.9
51.25,445.3,367.6,426.6,413.1,40.5
51.5,430.0,345.3,408.0,394.4,44.0
51.75,417.1,338.1,395.6,383.6,40.9
52.0,400.1,319.6,388.9,369.6,43.6
52.25,390.7,318.3,383.3,364.1,39.8
52.5,372.0,307.3,362.6,347.3,35.0
52.75,361.8,293.1,359.0,338.0,38.8
53.0,353.2,276.8,340.5,323.5,40.9
53.25,338.4,264.1,328.3,310.3,40.3
53.5,330.0,252.0,322.5,301.5,43.0
53.75,315.7,237.8,310.2,287.9,43.5
54.0,308.7,229.1,298.3,278.7,43.3
54.25,297.0,218.0,282.4,265.8,42.0
54.5,292.0,207.3,270.2,256.5,44.0
54.75,280.1,197.3,262.7,246.7,43.7
55.0,269.4,189.8,248.8,236.0,41.3
55.25,263.7,179.3,235.5,226.2,43.0
55.5,252.0,173.9,223.4,216.4,39.5
55.75,242.0,165.1,211.6,206.2,38.7
56.0,235.3,158.3,200.6,198.1,38.6
56.25,234.1,152.4,193.8,193.4,40.9
56.5,222.5,145.0,184.2,183.9,38.7
56.75,217.4,143.1,178.0,179.5,37.2
57.0,211.0,136.2,168.4,171.9,37.5
57.25,202.2,130.2,161.6,164.7,36.1
57.5,192.1,125.4,152.1,156.5,33.6
57.75,183.2,122.7,145.7,150.6,30.6
58.0,175.3,118.7,141.0,145.0,28.5
58.25,169.8,115.6,134.9,140.1,27.5
58.5,163.7,110.3,129.8,134.6,27.0
58.75,153.9,107.9,123.4,128.4,23.4
59.0,147.5,103.9,118.9,123.4,22.2
59.25,144.3,101.0,116.3,120.5,22.0
59.5,137.5,98.1,110.8,115.5,20.1
59.75,130.1,94.5,108.4,111.0,17.9
60.0,125.1,94.0,103.4,107.5,16.0
60.25,121.2,,99.7,110.5,15.2
60.5,117.5,,97.8,107.7,13.9
60.75,111.5,,93.1,102.3,13.0
61.0,108.4,,91.2,99.8,12.1
61.25,106.6,,88.9,97.8,12.5
61.5,101.0,,86.7,93.9,10.1
61.75,97.1,,82.6,89.9,10.3
62.0,93.7,,,93.7,
62.25,90.3,,,90.3,
62.5,88.4,,,88.4,
62.75,86.6,,,86.6,
63.0,82.9,,,82.9,
63.25,81.2,,,81.2,
63.5,78.5,,,78.5,
63.75,78.2,,,78.2,
64.0,75.8,,,75.8,
64.25,73.1,,,73.1,
64.5,72.1,,,72.1,
64.75,70.2,,,70.2,
65.0,69.5,,,69.5,
65.25,67.1,,,67.1,