Folder: fsri_materials_database/01_Data/Polyolefin_Carpet_Low_Pile/Cone (part 2)

File: Polyolefin_Carpet_Low_Pile_HRRPUA_75.csv
Time after Ignition,Polyolefin_Carpet_Low_Pile_R1,Polyolefin_Carpet_Low_Pile_R2,Polyolefin_Carpet_Low_Pile_R3,Mean,Std. Dev.
0.0,42.9,25.1,33.4,33.8,8.9
1.0,78.2,41.7,55.0,58.3,18.5
2.0,117.1,69.2,85.1,90.5,24.4
3.0,163.9,113.7,124.2,133.9,26.5
4.0,210.1,176.3,168.9,185.1,21.9
5.0,249.2,241.3,213.5,234.6,18.7
6.0,287.9,299.9,254.6,280.8,23.5
7.0,322.3,342.5,290.1,318.3,26.4
8.0,359.1,380.4,311.7,350.4,35.1
9.0,385.8,428.3,341.8,385.3,43.3
10.0,433.4,470.5,384.7,429.5,43.0
11.0,478.0,519.7,427.7,475.1,46.0
12.0,519.3,587.9,487.3,531.5,51.4
13.0,592.9,624.9,543.6,587.1,41.0
14.0,676.8,728.9,579.1,661.6,76.1
15.0,712.5,745.5,653.3,703.8,46.7
16.0,821.5,845.8,652.9,773.4,105.1
17.0,810.2,939.3,701.2,816.9,119.2
18.0,872.6,919.4,754.0,848.7,85.3
19.0,871.4,895.7,785.5,850.9,57.9
20.0,931.7,931.1,783.7,882.2,85.2
21.0,958.5,938.8,754.7,884.0,112.4
22.0,976.9,1018.2,780.6,925.2,127.0
23.0,947.0,966.0,764.9,892.6,111.1
24.0,964.4,1007.9,767.3,913.2,128.2
25.0,937.8,908.6,730.8,859.0,112.0
26.0,933.4,901.4,709.4,848.1,121.2
27.0,883.1,872.4,674.6,810.0,117.4
28.0,868.7,856.4,638.6,787.9,129.4
29.0,840.4,803.7,624.2,756.1,115.7
30.0,815.2,754.7,590.2,720.1,116.4
31.0,786.1,726.8,561.4,691.4,116.5
32.0,742.0,668.4,541.5,650.7,101.4
33.0,666.7,643.2,502.3,604.1,88.9
34.0,624.8,603.8,471.8,566.8,82.9
35.0,567.7,575.5,458.8,534.0,65.2
36.0,505.0,538.5,420.9,488.1,60.6
37.0,458.9,490.2,398.5,449.2,46.6
38.0,429.4,471.5,368.2,423.0,52.0
39.0,402.9,433.5,361.4,399.3,36.2
40.0,374.8,399.4,343.4,372.6,28.1
41.0,344.5,364.6,321.0,343.4,21.8
42.0,308.4,349.4,306.3,321.4,24.3
43.0,280.8,322.6,288.5,297.3,22.2
44.0,255.0,305.9,267.4,276.1,26.5
45.0,235.8,281.2,250.8,255.9,23.1
46.0,217.1,264.8,231.1,237.7,24.5
47.0,195.7,246.8,217.8,220.1,25.6
48.0,182.3,236.3,201.7,206.8,27.4
49.0,165.0,220.8,195.5,193.7,27.9
50.0,153.1,210.9,182.9,182.3,28.9
51.0,146.6,196.4,175.1,172.7,25.0
52.0,138.0,183.5,164.1,161.9,22.8
53.0,129.1,169.7,157.9,152.2,20.9
54.0,119.3,159.9,144.1,141.1,20.5
55.0,109.6,149.5,139.1,132.7,20.7
56.0,99.5,141.8,131.4,124.2,22.1
57.0,90.6,133.6,124.4,116.2,22.6
58.0,83.6,124.9,120.9,109.8,22.8
59.0,78.4,115.0,117.4,103.6,21.9
60.0,72.8,109.8,110.7,97.8,21.7
61.0,68.5,101.8,104.6,91.6,20.1
62.0,63.6,97.9,103.8,88.4,21.7
63.0,59.8,92.6,98.9,83.8,21.0
64.0,56.5,87.7,96.2,80.1,20.9
65.0,55.0,82.8,92.1,76.6,19.3
66.0,51.8,79.3,85.8,72.3,18.0
67.0,50.5,73.4,82.2,68.7,16.4
68.0,49.2,71.4,78.2,66.3,15.1
69.0,47.9,66.8,76.0,63.6,14.3
70.0,47.8,63.5,71.8,61.0,12.2
71.0,47.3,60.9,68.2,58.8,10.6
72.0,48.6,59.0,64.9,57.5,8.3
73.0,46.4,55.3,61.0,54.2,7.3
74.0,46.7,53.4,57.4,52.5,5.4
75.0,46.9,50.1,54.1,50.4,3.6
76.0,46.4,47.9,50.5,48.3,2.1
77.0,47.8,45.6,46.9,46.7,1.1
78.0,47.1,44.0,43.9,45.0,1.8
79.0,47.3,41.9,40.9,43.4,3.4
80.0,47.0,40.5,37.7,41.7,4.8
81.0,46.9,38.4,34.8,40.0,6.2
82.0,47.2,37.7,32.5,39.1,7.4
83.0,47.2,37.8,30.7,38.5,8.3
84.0,46.5,36.4,28.3,37.1,9.1
85.0,46.6,35.1,26.4,36.1,10.1
86.0,46.3,34.1,24.8,35.1,10.8
87.0,46.4,33.4,23.5,34.4,11.5
88.0,46.1,32.7,22.8,33.9,11.7
89.0,47.7,32.5,22.1,34.1,12.8
90.0,49.3,31.6,21.8,34.2,13.9
91.0,49.5,31.3,21.0,33.9,14.4
92.0,51.2,30.8,20.2,34.1,15.7
93.0,51.3,30.4,19.6,33.8,16.1
94.0,51.4,30.2,18.9,33.5,16.5
95.0,52.0,29.4,18.3,33.2,17.2
96.0,51.7,29.1,17.5,32.8,17.4
97.0,51.9,28.9,17.4,32.7,17.6
98.0,50.7,28.7,16.8,32.1,17.2
99.0,49.5,28.7,16.4,31.5,16.7
100.0,49.3,28.2,15.8,31.1,16.9
101.0,48.2,27.7,15.2,30.4,16.7
102.0,48.3,27.3,14.7,30.1,17.0
103.0,48.4,26.7,14.5,29.9,17.2
104.0,48.1,26.8,14.5,29.8,17.0
105.0,47.7,26.8,14.2,29.6,16.9
106.0,47.8,26.1,13.9,29.3,17.2
107.0,48.0,26.5,13.6,29.4,17.4
108.0,48.2,26.1,13.1,29.2,17.7
109.0,47.7,25.9,13.2,28.9,17.5
110.0,47.7,26.0,12.9,28.9,17.6
111.0,47.2,26.1,12.8,28.7,17.3
112.0,47.1,25.5,12.8,28.5,17.3
113.0,46.8,25.8,12.7,28.4,17.2
114.0,45.7,25.8,12.2,27.9,16.9
115.0,46.2,25.7,11.8,27.9,17.3
116.0,45.4,25.2,11.5,27.4,17.0
117.0,44.4,25.3,11.4,27.0,16.5
118.0,44.3,25.1,11.2,26.9,16.6
119.0,42.8,24.9,11.3,26.3,15.8
120.0,41.7,23.7,11.1,25.5,15.4
121.0,40.5,23.5,10.9,25.0,14.9
122.0,39.9,23.1,10.5,24.5,14.7
123.0,39.4,22.9,10.3,24.2,14.6
124.0,39.6,23.0,10.3,24.3,14.7
125.0,38.3,23.2,10.2,23.9,14.1
126.0,38.0,23.1,10.2,23.8,13.9
127.0,38.1,22.9,10.4,23.8,13.9
128.0,36.8,23.6,10.3,23.6,13.3
129.0,35.8,23.4,10.3,23.2,12.8
130.0,34.8,22.7,10.3,22.6,12.2
131.0,34.4,22.9,10.3,22.5,12.0
132.0,34.4,22.7,10.5,22.5,12.0
133.0,33.6,22.8,10.4,22.2,11.6
134.0,32.9,22.8,10.4,22.0,11.3
135.0,32.6,22.5,10.2,21.8,11.2
136.0,31.7,21.4,9.9,21.0,10.9
137.0,31.3,21.1,9.9,20.8,10.7
138.0,31.0,20.8,9.8,20.5,10.6
139.0,30.2,20.7,9.8,20.3,10.2
140.0,29.4,20.4,9.8,19.9,9.8
141.0,29.1,20.2,9.9,19.8,9.6
142.0,28.6,20.1,9.7,19.5,9.5
143.0,28.3,20.0,9.8,19.4,9.3
144.0,27.7,19.9,9.7,19.1,9.0
145.0,27.4,19.6,9.8,18.9,8.8
146.0,27.1,19.5,9.8,18.8,8.7
147.0,26.9,19.2,9.8,18.6,8.5
148.0,26.7,18.9,9.8,18.5,8.5
149.0,26.0,18.6,10.2,18.3,7.9
150.0,25.3,18.1,10.6,18.0,7.4
151.0,25.0,17.4,10.6,17.7,7.2
152.0,24.8,16.9,10.8,17.5,7.0
153.0,23.8,16.2,10.7,16.9,6.6
154.0,23.6,15.7,10.9,16.7,6.4
155.0,24.2,15.2,10.9,16.8,6.8
156.0,23.3,15.0,10.7,16.3,6.4
157.0,22.7,14.3,10.3,15.8,6.3
158.0,22.2,14.2,10.0,15.4,6.2
159.0,21.3,13.8,9.7,15.0,5.9
160.0,20.9,13.1,9.8,14.6,5.7
161.0,20.3,12.8,9.7,14.3,5.5
162.0,20.0,12.3,9.7,14.0,5.4
163.0,19.5,12.3,9.9,13.9,5.0
164.0,19.1,12.2,10.3,13.8,4.6
165.0,19.0,12.1,10.4,13.8,4.6
166.0,18.5,12.1,10.4,13.7,4.3
167.0,17.9,12.2,10.5,13.6,3.9
168.0,16.9,12.3,10.2,13.1,3.4
169.0,16.2,12.1,9.9,12.7,3.2
170.0,15.5,12.1,9.8,12.5,2.9
171.0,14.9,12.1,9.9,12.3,2.5
172.0,14.1,12.1,9.7,11.9,2.2
173.0,13.8,12.1,9.4,11.8,2.2
174.0,12.8,12.1,9.0,11.3,2.0
175.0,12.0,12.1,8.9,11.0,1.8
176.0,11.4,12.1,8.8,10.7,1.7
177.0,10.9,11.6,8.6,10.4,1.6
178.0,10.7,11.4,8.7,10.2,1.4
179.0,10.1,11.4,8.6,10.0,1.4
180.0,9.9,11.0,8.4,9.8,1.3
181.0,8.9,11.0,8.1,9.3,1.5
182.0,8.6,10.7,7.8,9.0,1.5
183.0,8.4,10.5,7.7,8.9,1.5
184.0,7.9,10.3,7.6,8.6,1.5
185.0,7.3,9.7,7.6,8.2,1.3
186.0,6.6,9.4,7.5,7.8,1.4
187.0,6.3,9.3,7.5,7.7,1.5
188.0,6.1,8.8,7.4,7.4,1.4
189.0,5.8,8.5,7.3,7.2,1.3
190.0,5.4,8.5,6.8,6.9,1.5
191.0,4.9,8.2,6.5,6.5,1.6
192.0,4.8,8.2,6.3,6.4,1.7
193.0,4.4,8.2,6.2,6.3,1.9
194.0,3.9,8.1,6.0,6.0,2.1
195.0,3.6,8.0,6.0,5.9,2.2
196.0,3.4,8.1,6.0,5.8,2.4
197.0,3.2,8.1,5.9,5.7,2.4
198.0,3.2,8.1,5.9,5.7,2.5
199.0,3.0,8.1,5.9,5.7,2.6
200.0,3.0,8.5,5.9,5.8,2.7
201.0,3.0,8.8,5.9,5.9,2.9
202.0,3.0,8.9,5.9,5.9,3.0
203.0,3.0,8.7,5.7,5.8,2.8
204.0,2.6,8.6,5.5,5.6,3.0
205.0,2.3,8.6,5.3,5.4,3.2
206.0,2.1,8.6,5.1,5.3,3.3
207.0,1.9,8.5,5.1,5.2,3.3
208.0,1.7,8.6,5.0,5.1,3.5
209.0,1.5,8.5,5.1,5.0,3.5
210.0,1.4,8.6,5.3,5.1,3.6
211.0,0.9,8.5,5.2,4.9,3.8
212.0,0.6,8.5,5.5,4.9,4.0
213.0,0.3,8.8,5.6,4.9,4.3
214.0,-0.2,9.1,5.8,4.9,4.7
215.0,-0.5,8.9,5.6,4.7,4.8
216.0,-0.7,8.5,5.2,4.3,4.7
217.0,-0.9,8.2,5.2,4.2,4.6
218.0,-0.9,7.5,5.0,3.9,4.3
219.0,-0.8,7.0,5.1,3.7,4.1
220.0,-0.8,6.4,5.0,3.5,3.8
221.0,-0.7,5.8,4.9,3.3,3.5
222.0,-0.7,,4.9,2.1,4.0
223.0,-0.7,,4.9,2.1,4.0
224.0,-0.7,,4.9,2.1,3.9
225.0,-0.7,,4.8,2.1,3.9
226.0,-0.7,,4.7,2.0,3.8
227.0,-0.7,,4.7,2.0,3.8
228.0,-0.7,,4.6,2.0,3.8
229.0,-0.7,,4.3,1.8,3.5
230.0,-0.7,,4.0,1.7,3.3
231.0,-0.7,,3.8,1.6,3.2
232.0,-0.7,,3.7,1.5,3.1
233.0,-0.7,,3.6,1.5,3.0
234.0,-0.7,,3.6,1.5,3.0
235.0,-0.7,,3.6,1.4,3.0
236.0,-1.0,,3.5,1.2,3.2
237.0,-1.3,,3.5,1.1,3.4
238.0,-1.5,,3.5,1.0,3.5
239.0,-1.6,,3.5,0.9,3.6
240.0,-1.7,,3.5,0.9,3.7
241.0,-1.8,,3.6,0.9,3.8
242.0,-1.8,,3.8,1.0,3.9
243.0,-1.8,,4.3,1.3,4.3
244.0,-1.8,,4.9,1.6,4.8
244.25,-1.8,,5.1,1.6,4.9