Folder: fsri_materials_database/01_Data/Polyolefin_Carpet_Low_Pile/MCC (part 2)

File: Polyolefin_Carpet_Low_Pile_MCC_30K_min_211008_R3.txt
Sample ID:	C:\MCC\MCC Cal\Test\Carpet_Polyolefin_LowPile_211008_R3.txt
Sample Weight (mg):	4.54
Heating Rate (C/s):	0.5
Combustor Temp (C):	900
N2 Flow Rate (cc/min):	80
O2 Flow Rate (cc/min):	20
Calibration File:	C:\MCC\MCC Cal\Coeff1 JN10440_30_210304.txt.txt
T Correction Coefficients:	0	1.024463	0
Time Shift (s):	14
*
Time (s)	Temperature (C)	N2 flow rate (cc/min)	O2 flow rate (cc/min)	Flow Rate (cc/min)	Oxygen (%)	HRR (W/g)	Heating rate (C/s)
0.000	105.580	79.999	19.996	100.670	20.031	-0.087	0.031
8.000	105.563	79.999	19.997	100.669	20.026	0.230	0.022
16.000	105.646	80.000	19.996	100.761	20.015	0.989	0.030
24.000	106.075	79.999	19.997	100.822	20.008	1.534	0.071
32.000	106.954	80.000	19.996	100.846	19.995	2.392	0.162
40.000	108.147	79.997	19.996	100.877	19.996	2.325	0.135
48.001	109.751	79.998	19.996	100.882	19.988	2.866	0.193
56.000	111.685	79.999	19.996	100.901	19.985	3.100	0.271
64.000	113.900	79.996	19.996	100.904	19.984	3.140	0.313
72.000	116.446	79.996	19.996	100.909	19.984	3.138	0.322
80.000	119.229	80.000	19.996	100.916	19.984	3.174	0.361
88.000	122.274	79.998	19.997	100.927	19.984	3.180	0.377
96.000	125.509	79.997	19.996	100.924	19.986	3.042	0.427
104.001	128.855	79.999	19.996	100.926	19.985	3.072	0.443
112.001	132.382	79.999	19.998	100.933	19.979	3.498	0.448
120.000	136.000	79.996	19.996	100.931	19.985	3.123	0.419
128.000	139.757	79.997	19.995	100.926	19.988	2.874	0.450
136.000	143.625	79.998	19.996	100.923	19.987	2.955	0.509
144.000	147.524	79.997	19.996	100.911	19.982	3.286	0.469
152.000	151.527	79.997	19.996	100.909	19.991	2.698	0.489
160.000	155.477	80.000	19.997	100.901	19.994	2.466	0.518
168.000	159.485	80.000	19.996	100.901	19.999	2.157	0.502
176.000	163.469	79.999	19.997	100.902	19.997	2.291	0.488
184.000	167.535	80.000	19.996	100.904	19.999	2.100	0.497
192.001	171.446	80.001	19.995	100.900	20.000	2.023	0.525
200.000	175.426	79.999	19.996	100.894	20.001	1.974	0.535
208.000	179.313	79.997	19.998	100.895	20.004	1.783	0.503
216.000	183.200	79.998	19.996	100.883	20.001	1.966	0.493
224.000	187.154	79.998	19.997	100.881	19.999	2.134	0.495
232.000	190.997	79.998	19.996	100.863	20.005	1.691	0.461
240.001	194.890	80.000	19.996	100.869	20.004	1.762	0.505
248.000	198.783	79.998	19.996	100.864	20.001	1.960	0.486
256.000	202.622	79.999	19.996	100.866	20.000	2.062	0.477
264.000	206.516	80.000	19.996	100.881	20.002	1.896	0.508
272.000	210.418	80.000	19.996	100.860	20.004	1.811	0.488
280.000	214.349	79.998	19.997	100.862	20.008	1.510	0.481
288.000	218.296	79.998	19.996	100.860	20.010	1.395	0.483
296.000	222.308	79.999	19.997	100.853	20.005	1.704	0.501
304.000	226.265	79.998	19.997	100.852	20.008	1.494	0.471
312.001	230.124	79.998	19.995	100.850	20.007	1.549	0.523
320.000	234.210	79.997	19.994	100.857	20.007	1.583	0.478
328.000	238.129	80.000	19.996	100.844	20.012	1.246	0.496
336.000	242.115	79.998	19.996	100.839	20.003	1.820	0.502
344.000	246.142	79.999	19.996	100.839	20.011	1.268	0.493
352.000	250.216	80.001	19.995	100.835	20.008	1.492	0.536
360.000	254.244	79.997	19.997	100.826	20.008	1.466	0.486
368.000	258.305	79.997	19.997	100.829	20.012	1.189	0.499
376.001	262.252	79.998	19.997	100.829	20.014	1.112	0.505
384.000	266.286	79.998	19.997	100.833	20.014	1.053	0.530
392.000	270.218	79.998	19.998	100.829	20.013	1.179	0.498
400.000	274.301	79.998	19.997	100.839	20.012	1.196	0.516
408.000	278.263	79.999	19.996	100.819	20.012	1.217	0.479
416.001	282.208	79.997	19.995	100.822	20.013	1.140	0.473
424.000	286.204	79.999	19.995	100.821	20.010	1.341	0.466
432.000	290.184	80.000	19.996	100.820	20.011	1.320	0.496
440.000	294.161	79.998	19.996	100.817	20.008	1.479	0.491
448.000	298.146	79.995	19.996	100.804	20.008	1.475	0.494
456.000	302.085	79.996	19.996	100.812	20.005	1.714	0.493
464.000	306.098	79.997	19.997	100.808	20.005	1.677	0.501
472.000	310.076	79.996	19.997	100.821	20.002	1.923	0.537
480.000	314.095	79.998	19.997	100.809	19.999	2.130	0.498
488.000	318.221	79.998	19.997	100.809	19.996	2.323	0.543
496.000	322.287	79.997	19.994	100.813	19.990	2.748	0.512
504.000	326.360	79.998	19.997	100.818	19.986	2.989	0.504
512.000	330.431	80.001	19.995	100.804	19.977	3.633	0.510
520.000	334.498	79.997	19.994	100.804	19.965	4.477	0.523
528.000	338.484	79.997	19.996	100.801	19.957	5.066	0.498
536.000	342.453	79.997	19.996	100.784	19.945	5.893	0.503
544.000	346.445	79.998	19.996	100.791	19.935	6.582	0.498
552.000	350.423	79.997	19.998	100.784	19.916	7.858	0.472
560.000	354.420	79.997	19.996	100.786	19.895	9.359	0.470
568.000	358.421	80.000	19.996	100.785	19.873	10.839	0.495
576.001	362.490	79.998	19.996	100.788	19.842	12.985	0.530
584.000	366.500	79.998	19.996	100.784	19.815	14.891	0.504
592.000	370.526	80.000	19.997	100.783	19.780	17.302	0.490
600.000	374.649	79.999	19.996	100.782	19.734	20.501	0.497
608.000	378.699	79.998	19.996	100.783	19.695	23.208	0.524
616.000	382.772	79.999	19.996	100.780	19.646	26.589	0.513
624.000	386.801	79.998	19.996	100.782	19.595	30.080	0.495
632.000	390.844	79.997	19.997	100.782	19.543	33.712	0.519
640.000	394.897	79.998	19.996	100.760	19.491	37.265	0.497
648.000	398.956	80.000	19.997	100.763	19.436	41.110	0.520
656.000	402.949	80.000	19.996	100.747	19.379	45.055	0.490
664.000	407.055	80.000	19.997	100.744	19.313	49.591	0.508
672.000	411.085	80.002	19.996	100.738	19.247	54.204	0.515
680.000	415.087	79.999	19.996	100.737	19.168	59.618	0.481
688.000	419.170	79.998	19.996	100.714	19.086	65.293	0.517
696.000	423.187	79.999	19.996	100.708	18.990	71.911	0.486
704.000	427.239	79.998	19.995	100.698	18.881	79.477	0.519
712.000	431.304	79.997	19.995	100.672	18.767	87.340	0.510
720.000	435.375	79.999	19.996	100.653	18.638	96.242	0.502
728.000	439.374	80.000	19.996	100.626	18.511	104.993	0.526
736.000	443.368	79.998	19.998	100.613	18.370	114.699	0.499
744.000	447.379	80.000	19.997	100.584	18.240	123.655	0.505
752.000	451.354	79.999	19.997	100.555	18.120	131.890	0.510
760.000	455.300	79.997	19.997	100.516	18.031	138.079	0.474
768.000	459.342	79.997	19.996	100.518	17.975	141.863	0.520
776.000	463.332	79.998	19.996	100.494	17.974	141.940	0.495
784.000	467.316	79.997	19.996	100.473	18.046	136.992	0.488
792.000	471.347	79.998	19.996	100.474	18.219	125.028	0.482
800.000	475.500	80.000	19.995	100.492	18.499	105.741	0.530
808.000	479.635	79.999	19.997	100.514	18.872	79.997	0.512
816.000	483.775	79.999	19.997	100.551	19.327	48.643	0.510
824.000	487.949	80.000	19.996	100.659	19.748	19.533	0.531
832.000	492.120	79.998	19.996	100.723	19.963	4.595	0.535
840.000	496.405	79.997	19.996	100.743	20.033	-0.254	0.550
848.000	500.557	79.998	19.997	100.744	20.053	-1.583	0.547
856.000	504.731	80.000	19.997	100.747	20.057	-1.918	0.520
864.000	508.851	79.997	19.996	100.753	20.063	-2.310	0.513
872.000	513.049	79.997	19.997	100.751	20.065	-2.472	0.528
880.000	517.263	79.998	19.996	100.756	20.065	-2.431	0.525
888.000	521.416	79.998	19.996	100.752	20.066	-2.543	0.529
896.000	525.566	79.997	19.995	100.754	20.070	-2.779	0.516
904.000	529.692	80.001	19.997	100.749	20.069	-2.719	0.501
912.000	533.834	79.998	19.997	100.743	20.065	-2.446	0.508
920.000	538.030	79.997	19.998	100.747	20.070	-2.767	0.533
928.000	542.203	79.997	19.997	100.744	20.070	-2.828	0.537
936.000	546.303	79.999	19.996	100.747	20.070	-2.775	0.521
944.000	550.341	79.997	19.996	100.756	20.069	-2.751	0.507
952.000	554.407	79.998	19.996	100.764	20.073	-2.995	0.504
960.000	558.412	80.000	19.995	100.749	20.074	-3.086	0.516
968.000	562.404	79.997	19.995	100.756	20.076	-3.182	0.498
976.000	566.372	79.999	19.996	100.748	20.075	-3.127	0.459
984.000	570.339	79.999	19.996	100.749	20.075	-3.144	0.489
992.000	574.322	79.997	19.997	100.746	20.078	-3.331	0.497
1000.000	578.251	79.999	19.996	100.765	20.075	-3.132	0.479
1008.000	582.242	79.996	19.996	100.778	20.075	-3.128	0.495
1016.000	586.218	79.998	19.997	100.778	20.073	-3.015	0.500
1024.000	590.280	79.995	19.997	100.785	20.073	-2.989	0.502
1032.000	594.422	79.998	19.997	100.785	20.072	-2.902	0.541
1040.000	598.566	79.998	19.996	100.781	20.072	-2.910	0.517
1048.000	602.810	79.998	19.996	100.788	20.072	-2.936	0.552
1056.000	607.249	79.997	19.996	100.793	20.077	-3.294	0.550
1064.000	611.637	80.000	19.997	100.793	20.072	-2.937	0.562
1072.000	616.019	79.998	19.998	100.810	20.072	-2.903	0.544
1080.000	620.353	79.996	19.997	100.827	20.067	-2.611	0.536
1088.000	624.666	79.997	19.997	100.823	20.069	-2.728	0.540
1096.001	628.910	79.998	19.996	100.823	20.067	-2.587	0.497
1104.000	633.158	79.995	19.997	100.826	20.068	-2.668	0.513
1112.000	637.395	79.997	19.998	100.823	20.066	-2.553	0.504
1120.000	641.530	79.999	19.997	100.838	20.064	-2.401	0.523
1128.000	645.574	80.000	19.995	100.826	20.067	-2.584	0.472
1136.000	649.661	79.996	19.996	100.856	20.063	-2.290	0.534
1144.000	653.805	79.999	19.996	100.863	20.060	-2.126	0.536
1152.001	657.848	79.997	19.995	100.865	20.062	-2.247	0.505
1160.000	661.910	79.998	19.995	100.865	20.060	-2.089	0.507
1168.001	665.941	79.997	19.996	100.874	20.060	-2.076	0.498
1176.000	669.959	79.995	19.995	100.896	20.060	-2.080	0.485
1184.000	674.009	79.996	19.998	100.897	20.060	-2.086	0.524
1192.000	678.144	79.999	19.996	100.903	20.057	-1.876	0.517
1200.000	682.202	79.996	19.998	100.913	20.051	-1.481	0.502
1208.000	686.294	79.999	19.997	100.940	20.049	-1.334	0.514
1216.000	690.328	79.998	19.996	100.947	20.045	-1.034	0.485
1224.000	694.445	80.000	19.996	100.963	20.044	-0.970	0.540
1232.000	698.554	79.997	19.997	100.964	20.039	-0.676	0.552
1240.000	702.596	79.996	19.995	100.978	20.039	-0.659	0.505
1248.000	706.665	79.997	19.996	100.988	20.040	-0.698	0.531
1256.001	710.747	79.999	19.995	100.991	20.037	-0.521	0.524
1264.000	714.833	79.997	19.996	101.013	20.040	-0.712	0.513
1272.000	718.909	79.998	19.997	101.018	20.037	-0.527	0.525
1280.000	722.978	79.997	19.997	101.000	20.042	-0.826	0.507
1288.000	726.990	79.997	19.997	100.983	20.047	-1.173	0.490
1296.000	731.089	80.001	19.997	100.942	20.058	-1.933	0.523
1304.000	735.157	80.000	19.995	100.825	20.070	-2.780	0.484
1312.000	739.298	79.998	19.996	100.798	20.075	-3.162	0.473
1320.000	743.397	79.997	19.997	100.777	20.079	-3.384	0.512
1320.500	743.693	79.997	19.998	100.775	20.080	-3.478	0.514