Folder: fsri_materials_database/01_Data/Polyolefin_Carpet_Low_Pile/MCC

Note: README.md
# Materials and Products Database
### Repository of materials and products properties and fire test data to improve fire modeling and fire investigation.

This project was supported in part by Award No. 2019-DU-BX-0018, awarded by the National Institute of Justice, Office of Justice Programs, U.S. Department of Justice. The opinions, findings, and conclusions or recommendations expressed in this publication / program / exhibition are those of the author(s) and do not necessarily reflect those of the Department of Justice.

***
***

__Cite this database:__ "McKinnon, M., Weinschenk, C., Dow, N., DiDomizio, M., and Madrzykowski, D. Materials and Products Database (Version 1.0.0), Fire Safety Research Institute, UL Research Institutes. Columbia, MD 21045, 2023."

__Cite the Technical Reference Guide:__ "McKinnon, M., Weinschenk, C., and Madrzykowski, D. Materials and Products Database - Technical Reference Guide, Fire Safety Research Institute, UL Research Institutes. Columbia, MD 21045, 2023."

__Cite the User Guide:__ "McKinnon, M., and Weinschenk, C. Materials and Products Database - User Guide, Fire Safety Research Institute, UL Research Institutes. Columbia, MD 21045, 2023."

***
***

## Database Structure

## 01_Data/
Raw data generated from each apparatus are included here in plain-text format. The data is organized first by material, next by the short name of test apparatus used, and where applicable additional filtering by test settings.

### Test Apparatus and Data File Structure
- __Cone Calorimeter__ (Cone)
    + Data file structure includes the material, the short name for the apparatus, heat flux setting and scan/scalar, date of test, and replicate number. Scan is for the raw output data and scalar is for the initial conditions and high-level test parameters. 
        * Example: __MDF_Cone_HF25scalar_210323_R1__ stands for the first replicate of scalar data generated from a medium density fiber board test in cone calorimeter exposed to 25 kW/m<sup>2</sup> on March 23, 2021.
    + A _Cone_Notes.csv_ is generated for each material from the __plot_Cone_data.py__ script. For materials whose experiments deviated from typical behavior relevant pictures are included in the respective material directory.
- __Fourier Transform Infrared Spectrometer__ (FTIR)
    + The FTIR directory contains subdirectories for the Attenuated Total Reflectance method (ATR) and the Integrating Sphere (IS)
    + Data file structure for the ATR experiment files includes the material, the abbreviated name for the apparatus, date of test, and replicate number. 
        * Example: __MDF_ATR_210323_R5__ stands for the fifth replicate of data collected with the ATR accessory conducted on June 8, 2021.
    + Data file structure for the IS experiment files includes the material, the abbreviated name for the apparatus, the measurand, whether the test is a sample measurement or standard reference, date of test, and replicate number.
        * Example: __OSB_IS_REFLECT_MEAS_2

File: Polyolefin_Carpet_Low_Pile_MCC_30K_min_211007_R1.txt
Sample ID:	C:\MCC\MCC Cal\Test\Carpet_Polyolefin_LowPile_211007_R1.txt
Sample Weight (mg):	4.38
Heating Rate (C/s):	0.5
Combustor Temp (C):	900
N2 Flow Rate (cc/min):	80
O2 Flow Rate (cc/min):	20
Calibration File:	C:\MCC\MCC Cal\Coeff1 JN10440_30_210304.txt.txt
T Correction Coefficients:	0	1.024463	0
Time Shift (s):	14
*
Time (s)	Temperature (C)	N2 flow rate (cc/min)	O2 flow rate (cc/min)	Flow Rate (cc/min)	Oxygen (%)	HRR (W/g)	Heating rate (C/s)
0.000	106.250	79.997	19.997	100.664	20.267	0.404	0.003
8.000	106.238	79.997	19.996	100.676	20.270	0.240	0.010
16.000	106.201	79.996	19.996	100.701	20.269	0.309	-0.007
24.000	106.339	79.997	19.997	100.747	20.256	1.180	0.034
32.000	106.711	79.998	19.996	100.786	20.248	1.786	0.049
40.000	107.275	79.997	19.996	100.846	20.239	2.430	0.094
48.000	108.227	79.997	19.996	100.883	20.229	3.158	0.134
55.999	109.712	79.999	19.996	100.899	20.224	3.513	0.202
63.999	111.564	79.997	19.996	100.918	20.221	3.746	0.256
71.999	113.732	79.997	19.995	100.928	20.221	3.741	0.274
79.999	116.188	79.997	19.995	100.936	20.218	3.944	0.310
88.000	118.898	79.996	19.997	100.937	20.219	3.841	0.339
95.999	121.892	79.997	19.995	100.940	20.215	4.171	0.385
103.999	124.996	79.997	19.997	100.934	20.215	4.181	0.359
111.999	128.350	79.999	19.995	100.934	20.218	3.977	0.432
119.999	131.759	79.999	19.996	100.934	20.216	4.109	0.457
127.999	135.327	80.000	19.995	100.935	20.217	4.036	0.454
136.000	139.016	79.999	19.995	100.936	20.222	3.631	0.488
144.000	142.813	79.997	19.996	100.937	20.211	4.426	0.525
152.000	146.674	79.997	19.996	100.940	20.211	4.418	0.473
160.000	150.678	79.997	19.994	100.939	20.215	4.193	0.521
168.000	154.645	79.996	19.997	100.933	20.217	4.036	0.501
176.000	158.663	79.996	19.997	100.931	20.216	4.120	0.481
184.000	162.739	79.997	19.997	100.920	20.215	4.197	0.500
192.000	166.796	79.998	19.996	100.906	20.213	4.279	0.498
200.000	170.824	79.996	19.997	100.914	20.217	4.039	0.515
208.000	174.837	79.998	19.996	100.898	20.224	3.530	0.525
216.000	178.846	80.000	19.995	100.892	20.223	3.596	0.528
224.000	182.877	79.998	19.996	100.898	20.219	3.851	0.501
232.000	186.812	79.997	19.996	100.893	20.224	3.488	0.498
240.000	190.772	79.997	19.997	100.893	20.225	3.412	0.471
248.000	194.686	79.999	19.994	100.888	20.228	3.230	0.491
256.000	198.577	79.997	19.996	100.886	20.226	3.392	0.474
264.000	202.567	79.998	19.997	100.884	20.226	3.367	0.507
272.000	206.366	79.998	19.996	100.869	20.225	3.463	0.496
280.000	210.237	79.999	19.997	100.879	20.227	3.310	0.470
288.000	214.181	80.000	19.997	100.868	20.224	3.503	0.483
296.000	218.109	79.999	19.996	100.879	20.226	3.364	0.484
304.000	222.039	79.998	19.996	100.884	20.221	3.752	0.516
312.000	226.028	79.998	19.996	100.862	20.223	3.591	0.494
320.000	229.981	79.998	19.996	100.861	20.223	3.597	0.526
328.000	233.964	79.996	19.997	100.859	20.220	3.797	0.545
336.000	237.937	79.996	19.994	100.863	20.223	3.572	0.499
344.000	241.996	79.998	19.995	100.862	20.226	3.337	0.527
352.000	245.953	79.997	19.996	100.860	20.221	3.761	0.511
360.000	250.073	79.997	19.995	100.856	20.218	3.917	0.522
368.000	254.117	80.000	19.996	100.853	20.230	3.076	0.483
376.000	258.151	79.998	19.997	100.853	20.222	3.659	0.498
384.000	262.153	79.995	19.997	100.854	20.218	3.974	0.501
392.000	266.242	79.996	19.996	100.858	20.224	3.525	0.533
400.000	270.258	79.998	19.995	100.857	20.225	3.448	0.544
408.000	274.313	79.997	19.994	100.855	20.222	3.635	0.470
416.000	278.308	79.997	19.996	100.852	20.219	3.893	0.505
424.000	282.223	79.999	19.996	100.850	20.216	4.083	0.508
432.000	286.154	79.998	19.996	100.851	20.217	4.013	0.459
440.000	290.114	79.998	19.996	100.846	20.211	4.469	0.492
448.000	294.058	80.001	19.996	100.835	20.215	4.142	0.512
456.000	298.125	79.999	19.995	100.846	20.212	4.349	0.544
464.000	302.072	79.997	19.997	100.832	20.208	4.633	0.483
472.000	306.063	79.996	19.996	100.834	20.210	4.530	0.512
480.000	310.039	79.998	19.995	100.829	20.202	5.126	0.491
488.000	314.083	79.997	19.996	100.824	20.195	5.591	0.502
496.000	318.064	79.997	19.995	100.835	20.190	5.936	0.485
504.000	322.049	79.999	19.997	100.841	20.187	6.167	0.512
512.000	326.085	79.998	19.996	100.828	20.176	6.973	0.469
520.000	330.101	79.998	19.995	100.827	20.171	7.286	0.452
528.000	334.356	79.998	19.995	100.830	20.165	7.739	0.557
536.000	338.332	79.997	19.995	100.834	20.152	8.648	0.486
544.000	342.452	79.996	19.997	100.839	20.143	9.356	0.515
552.000	346.545	79.996	19.996	100.830	20.127	10.447	0.503
560.000	350.687	79.997	19.996	100.818	20.110	11.667	0.543
568.000	354.889	79.996	19.996	100.822	20.093	12.910	0.511
576.000	358.981	79.997	19.996	100.825	20.072	14.431	0.478
584.000	363.130	80.001	19.996	100.825	20.044	16.457	0.520
592.000	367.109	79.998	19.994	100.826	20.010	18.873	0.497
600.000	371.336	79.999	19.995	100.824	19.972	21.632	0.520
608.000	375.180	80.000	19.995	100.820	19.935	24.273	0.248
616.000	379.470	79.997	19.995	100.820	19.885	27.888	0.510
624.000	383.554	79.997	19.997	100.822	19.833	31.612	0.496
632.000	387.531	79.998	19.995	100.817	19.788	34.832	0.519
640.000	391.557	79.996	19.996	100.820	19.738	38.415	0.500
648.000	395.633	79.996	19.998	100.810	19.687	42.038	0.522
656.000	399.668	79.998	19.996	100.804	19.631	46.116	0.513
664.000	403.630	80.000	19.994	100.813	19.575	50.102	0.479
672.000	407.675	79.999	19.996	100.782	19.525	53.662	0.491
680.000	411.669	80.000	19.995	100.781	19.452	58.943	0.521
688.000	415.591	80.001	19.994	100.775	19.379	64.171	0.496
696.000	419.542	79.997	19.996	100.767	19.302	69.653	0.438
704.000	423.496	79.996	19.996	100.742	19.214	75.988	0.486
712.000	427.450	79.996	19.996	100.740	19.117	82.885	0.502
720.000	431.290	79.996	19.995	100.722	19.010	90.560	0.468
728.000	435.321	79.996	19.995	100.703	18.903	98.284	0.514
736.000	439.322	79.999	19.996	100.697	18.765	108.141	0.502
744.000	443.395	79.998	19.997	100.660	18.623	118.270	0.541
752.000	447.501	79.998	19.996	100.649	18.482	128.364	0.502
760.000	451.652	79.998	19.996	100.621	18.354	137.459	0.528
768.000	455.866	79.999	19.995	100.591	18.245	145.245	0.494
776.000	460.137	79.997	19.997	100.578	18.178	150.044	0.513
784.000	464.377	79.997	19.996	100.547	18.152	151.868	0.524
792.000	468.568	79.997	19.996	100.541	18.207	147.918	0.525
800.000	472.778	79.997	19.996	100.525	18.362	136.841	0.528
808.000	476.929	79.996	19.995	100.533	18.641	116.899	0.496
816.000	481.154	79.999	19.995	100.548	19.015	90.165	0.544
824.000	485.329	79.997	19.996	100.579	19.484	56.579	0.566
832.000	489.507	79.998	19.996	100.696	19.917	25.529	0.561
840.000	493.598	80.001	19.995	100.771	20.131	10.212	0.492
848.000	497.719	79.998	19.995	100.782	20.195	5.596	0.508
856.000	501.814	79.997	19.995	100.798	20.214	4.206	0.533
864.000	505.917	79.998	19.996	100.790	20.221	3.709	0.539
872.000	509.996	79.998	19.996	100.806	20.220	3.785	0.508
880.000	514.027	79.997	19.995	100.801	20.222	3.663	0.491
888.000	518.125	79.996	19.998	100.797	20.222	3.664	0.493
896.000	522.174	79.998	19.996	100.802	20.226	3.345	0.491
904.000	526.297	79.997	19.996	100.813	20.223	3.589	0.540
912.000	530.407	79.996	19.997	100.788	20.224	3.511	0.545
920.000	534.533	79.999	19.996	100.811	20.228	3.202	0.542
928.000	538.639	79.998	19.995	100.794	20.226	3.386	0.486
936.000	542.752	79.998	19.997	100.811	20.227	3.273	0.523
944.000	546.832	79.998	19.997	100.806	20.225	3.462	0.496
952.000	550.921	79.997	19.996	100.808	20.227	3.304	0.498
960.000	555.021	79.997	19.995	100.809	20.225	3.439	0.532
968.000	559.108	79.998	19.996	100.813	20.226	3.349	0.546
976.000	563.188	79.997	19.996	100.815	20.231	3.019	0.519
984.000	567.223	79.998	19.996	100.816	20.228	3.241	0.487
992.000	571.286	79.998	19.995	100.806	20.229	3.189	0.492
1000.000	575.385	80.000	19.995	100.804	20.231	3.001	0.528
1008.000	579.460	79.997	19.996	100.802	20.226	3.396	0.516
1016.000	583.553	79.997	19.995	100.812	20.229	3.158	0.479
1024.000	587.640	79.996	19.997	100.819	20.230	3.060	0.536
1031.999	591.707	79.996	19.997	100.819	20.229	3.138	0.543
1040.000	595.771	79.997	19.997	100.821	20.224	3.488	0.488
1047.999	599.819	79.997	19.996	100.821	20.220	3.797	0.495
1055.999	603.914	79.999	19.996	100.828	20.222	3.630	0.491
1064.000	608.033	79.998	19.997	100.823	20.221	3.751	0.497
1071.999	612.221	79.999	19.996	100.836	20.222	3.673	0.523
1079.999	616.376	80.000	19.996	100.842	20.216	4.113	0.518
1087.999	620.515	79.997	19.997	100.852	20.217	3.990	0.533
1095.999	624.707	79.997	19.997	100.857	20.218	3.910	0.534
1103.999	628.817	79.996	19.997	100.860	20.219	3.908	0.509
1112.000	632.882	79.999	19.996	100.856	20.214	4.266	0.509
1119.999	636.999	79.997	19.995	100.874	20.210	4.549	0.488
1127.999	641.066	79.998	19.996	100.834	20.211	4.464	0.534
1135.999	645.100	79.998	19.994	100.876	20.210	4.551	0.491
1143.999	649.199	79.999	19.995	100.887	20.205	4.905	0.510
1151.999	653.209	79.998	19.996	100.897	20.208	4.633	0.521
1159.999	657.262	79.999	19.996	100.900	20.199	5.322	0.517
1167.999	661.305	79.996	19.995	100.905	20.198	5.374	0.490
1176.000	665.317	79.996	19.995	100.923	20.197	5.453	0.501
1184.000	669.389	79.996	19.996	100.933	20.192	5.817	0.498
1191.999	673.440	79.996	19.998	100.934	20.195	5.592	0.471
1200.000	677.586	79.995	19.995	100.944	20.194	5.648	0.507
1207.999	681.691	79.998	19.997	100.947	20.184	6.359	0.536
1216.000	685.698	79.998	19.996	100.968	20.187	6.161	0.539
1224.000	689.746	79.997	19.995	100.967	20.180	6.682	0.482
1231.999	693.803	79.999	19.995	100.979	20.178	6.816	0.488
1239.999	697.839	79.999	19.995	100.980	20.172	7.260	0.486
1247.999	701.887	79.997	19.996	100.999	20.174	7.150	0.509
1255.999	705.944	79.997	19.998	101.014	20.174	7.118	0.498
1263.999	710.029	79.998	19.997	101.024	20.177	6.911	0.515
1271.999	714.106	79.997	19.996	101.039	20.176	6.972	0.498
1280.000	718.113	79.995	19.997	101.050	20.175	7.061	0.478
1287.999	722.129	79.997	19.995	101.050	20.171	7.338	0.533
1295.999	726.073	79.999	19.996	101.019	20.179	6.787	0.492
1304.000	730.121	79.998	19.996	100.973	20.177	6.860	0.515
1311.999	734.230	79.999	19.997	100.881	20.191	5.883	0.504
1319.999	738.333	80.000	19.996	100.821	20.202	5.084	0.494
1327.999	742.392	79.998	19.996	100.807	20.204	4.953	0.502
1332.999	744.938	79.998	19.995	100.800	20.208	4.648	0.501

File: Polyolefin_Carpet_Low_Pile_MCC_30K_min_211008_R2.txt
Sample ID:	C:\MCC\MCC Cal\Test\Carpet_Polyolefin_LowPile_211008_R2.txt
Sample Weight (mg):	4.5
Heating Rate (C/s):	0.5
Combustor Temp (C):	900
N2 Flow Rate (cc/min):	80
O2 Flow Rate (cc/min):	20
Calibration File:	C:\MCC\MCC Cal\Coeff1 JN10440_30_210304.txt.txt
T Correction Coefficients:	0	1.024463	0
Time Shift (s):	14
*
Time (s)	Temperature (C)	N2 flow rate (cc/min)	O2 flow rate (cc/min)	Flow Rate (cc/min)	Oxygen (%)	HRR (W/g)	Heating rate (C/s)
0.000	107.561	80.015	20.004	100.829	20.181	0.036	-0.021
8.000	107.619	79.997	19.996	100.803	20.179	0.156	-0.011
15.999	107.615	79.995	19.996	100.833	20.169	0.860	-0.006
23.999	107.780	79.995	19.996	100.935	20.161	1.470	0.078
31.999	108.241	79.998	19.996	100.967	20.152	2.078	0.076
39.999	109.176	79.994	19.997	100.998	20.144	2.640	0.152
47.999	110.444	79.994	19.998	101.014	20.138	3.085	0.156
55.999	112.085	79.994	19.997	101.033	20.131	3.554	0.226
63.999	114.049	79.995	19.995	101.027	20.128	3.767	0.257
71.999	116.310	79.995	19.996	101.064	20.127	3.807	0.287
79.999	118.785	79.996	19.997	101.068	20.122	4.194	0.335
87.999	121.514	79.996	19.995	101.070	20.123	4.089	0.373
95.999	124.485	79.996	19.996	101.065	20.118	4.478	0.414
103.999	127.615	79.998	19.996	101.068	20.116	4.583	0.402
111.999	130.905	79.998	19.996	101.062	20.124	4.010	0.442
119.999	134.314	79.994	19.997	101.067	20.123	4.097	0.442
128.001	137.851	79.994	19.996	101.075	20.122	4.190	0.460
136.000	141.543	79.994	19.998	101.071	20.120	4.325	0.473
144.000	145.375	79.995	19.997	101.083	20.123	4.115	0.500
152.000	149.252	79.995	19.996	101.046	20.117	4.523	0.499
160.000	153.179	79.996	19.996	101.069	20.117	4.529	0.503
168.000	157.170	79.996	19.996	101.069	20.119	4.416	0.519
176.000	161.192	79.996	19.995	101.064	20.120	4.346	0.525
184.000	165.143	79.996	19.995	101.058	20.119	4.386	0.480
192.000	169.128	79.998	19.996	101.063	20.118	4.481	0.478
200.000	173.146	79.996	19.997	101.065	20.121	4.227	0.505
208.000	177.120	79.995	19.996	101.062	20.121	4.235	0.518
216.000	181.128	79.994	19.996	101.037	20.120	4.295	0.506
224.000	185.120	79.996	19.997	101.051	20.120	4.338	0.526
231.999	189.104	79.994	19.997	101.052	20.120	4.280	0.495
240.000	193.080	79.996	19.996	101.051	20.122	4.182	0.510
248.000	197.062	80.016	20.004	101.072	20.122	4.158	0.498
255.999	201.036	80.014	20.004	101.066	20.125	3.933	0.498
264.000	205.031	80.015	20.002	101.064	20.124	4.054	0.507
272.000	209.009	80.016	20.002	101.063	20.124	4.061	0.512
280.000	212.973	80.014	20.002	101.068	20.122	4.142	0.506
288.000	216.933	80.013	20.003	101.066	20.125	3.970	0.526
296.000	220.920	80.015	20.003	101.057	20.124	4.007	0.497
304.000	224.935	80.015	20.002	101.059	20.122	4.205	0.511
312.000	228.994	80.014	20.003	101.049	20.122	4.180	0.521
320.000	233.004	80.013	20.004	101.064	20.126	3.867	0.502
328.000	236.974	80.014	20.003	101.049	20.122	4.176	0.512
336.000	240.971	80.013	20.004	101.055	20.122	4.191	0.486
344.000	244.978	80.014	20.002	101.042	20.121	4.273	0.484
352.000	249.020	80.015	20.003	101.035	20.119	4.402	0.508
360.000	252.995	80.014	20.004	101.043	20.123	4.122	0.462
368.000	257.004	80.014	20.003	101.036	20.119	4.385	0.486
376.000	260.993	80.015	20.003	101.042	20.117	4.527	0.499
384.000	265.012	80.013	20.003	101.026	20.114	4.749	0.506
392.000	268.926	80.011	20.004	101.042	20.116	4.623	0.477
400.000	272.992	80.011	20.006	101.049	20.114	4.756	0.498
408.000	277.009	80.012	20.008	101.036	20.111	4.939	0.506
416.000	280.963	80.014	20.004	101.027	20.108	5.135	0.490
424.000	284.981	80.014	20.004	101.025	20.106	5.268	0.478
432.000	288.938	80.017	20.003	101.024	20.104	5.462	0.504
440.000	292.911	80.016	20.002	101.027	20.099	5.798	0.472
448.000	296.932	80.015	20.003	101.021	20.097	5.899	0.539
456.000	300.908	80.013	20.003	101.028	20.094	6.116	0.482
464.000	304.959	80.014	20.003	101.029	20.089	6.493	0.484
472.000	308.941	80.015	20.004	101.029	20.082	6.978	0.526
480.000	313.034	79.994	19.998	100.999	20.079	7.163	0.522
488.000	317.070	79.997	19.995	100.993	20.071	7.736	0.492
496.000	321.144	79.997	19.997	100.990	20.070	7.846	0.543
504.000	325.194	79.995	19.997	100.986	20.061	8.428	0.521
512.000	329.152	79.997	19.997	100.987	20.055	8.859	0.470
520.000	333.236	79.998	19.996	100.991	20.045	9.598	0.489
528.000	337.245	79.994	19.995	100.990	20.031	10.531	0.485
536.000	341.241	79.994	19.996	100.992	20.020	11.305	0.471
544.000	345.185	80.013	20.002	101.008	20.003	12.476	0.475
552.000	349.266	79.997	19.995	100.986	19.987	13.598	0.524
560.000	353.266	79.996	19.995	100.992	19.964	15.225	0.499
568.000	357.306	79.996	19.996	100.987	19.941	16.825	0.513
576.000	361.318	79.998	19.996	100.988	19.913	18.790	0.495
584.000	365.291	79.996	19.995	100.987	19.881	21.078	0.473
592.000	369.380	79.996	19.996	100.987	19.843	23.718	0.516
600.000	373.447	79.996	19.996	100.987	19.802	26.561	0.489
608.000	377.463	79.995	19.995	100.986	19.759	29.622	0.461
616.000	381.506	79.994	19.995	100.981	19.710	33.015	0.507
624.000	385.551	79.997	19.996	100.984	19.665	36.189	0.468
632.000	389.573	79.997	19.996	100.957	19.610	39.995	0.507
640.001	393.654	79.995	19.996	100.966	19.558	43.624	0.484
648.000	397.719	79.995	19.996	100.969	19.508	47.142	0.490
656.000	401.755	79.997	19.994	100.962	19.448	51.359	0.484
664.000	405.748	79.996	19.995	100.951	19.381	56.025	0.464
672.000	409.791	79.996	19.996	100.942	19.309	61.072	0.499
680.000	413.726	79.998	19.995	100.916	19.234	66.302	0.489
688.000	417.641	79.996	19.995	100.912	19.152	72.028	0.486
696.000	421.648	79.994	19.996	100.913	19.063	78.241	0.519
704.000	425.691	79.995	19.996	100.896	18.961	85.368	0.510
712.000	429.730	79.997	19.996	100.870	18.841	93.716	0.519
720.000	433.742	79.994	19.995	100.873	18.721	102.139	0.516
728.000	437.732	79.994	19.996	100.841	18.586	111.540	0.490
736.000	441.730	79.997	19.995	100.818	18.443	121.489	0.495
744.000	445.695	79.998	19.996	100.793	18.304	131.176	0.528
752.000	449.597	79.996	19.996	100.754	18.180	139.793	0.485
760.000	453.552	79.998	19.998	100.738	18.077	146.968	0.510
768.000	457.591	80.000	19.996	100.710	18.008	151.759	0.503
776.000	461.768	79.995	19.995	100.703	17.981	153.616	0.509
784.000	465.991	79.996	19.995	100.676	18.014	151.280	0.539
792.000	470.347	79.996	19.997	100.676	18.149	141.893	0.571
800.000	474.759	79.996	19.997	100.689	18.412	123.539	0.550
808.000	479.203	79.995	19.996	100.705	18.798	96.641	0.563
816.000	483.624	79.997	19.996	100.731	19.293	62.142	0.566
824.000	487.998	79.998	19.995	100.829	19.758	29.678	0.560
832.000	492.360	79.997	19.996	100.919	19.988	13.564	0.518
840.000	496.772	79.997	19.996	100.947	20.060	8.528	0.529
848.000	501.054	79.999	19.994	100.954	20.073	7.623	0.554
856.000	505.325	79.995	19.995	100.951	20.083	6.904	0.528
864.000	509.505	79.996	19.995	100.952	20.081	7.061	0.504
872.000	513.637	79.994	19.996	100.960	20.081	7.074	0.499
880.000	517.746	79.996	19.998	100.947	20.078	7.219	0.494
888.000	521.850	79.994	19.996	100.954	20.076	7.382	0.500
896.000	525.930	79.996	19.996	100.960	20.077	7.320	0.545
904.000	530.008	79.998	19.995	100.961	20.082	6.979	0.513
912.000	534.157	79.996	19.995	100.965	20.082	6.970	0.534
920.000	538.268	79.997	19.996	100.958	20.081	7.071	0.533
928.000	542.360	79.999	19.995	100.956	20.079	7.213	0.524
936.000	546.396	79.997	19.996	100.973	20.081	7.042	0.543
944.000	550.505	79.997	19.997	100.953	20.078	7.270	0.512
952.000	554.607	79.994	19.995	100.968	20.085	6.766	0.504
960.000	558.639	79.996	19.996	100.966	20.080	7.092	0.523
968.000	562.767	79.995	19.995	100.960	20.080	7.081	0.521
976.000	566.823	79.994	19.997	100.940	20.081	7.059	0.511
984.000	570.870	79.996	19.996	100.968	20.075	7.447	0.495
992.000	574.964	79.996	19.995	100.975	20.076	7.400	0.521
1000.000	579.047	79.997	19.996	100.980	20.076	7.383	0.507
1008.000	583.111	79.997	19.995	100.977	20.074	7.553	0.505
1016.000	587.178	79.999	19.997	100.982	20.075	7.463	0.503
1024.000	591.244	79.995	19.995	100.966	20.071	7.730	0.522
1031.999	595.312	79.996	19.995	100.978	20.071	7.739	0.526
1040.000	599.411	79.996	19.995	100.984	20.072	7.681	0.548
1047.999	603.490	79.995	19.996	100.990	20.069	7.866	0.549
1055.999	607.498	79.994	19.996	101.001	20.066	8.123	0.482
1063.999	611.542	79.997	19.996	101.016	20.066	8.062	0.509
1072.000	615.579	79.996	19.995	101.012	20.064	8.205	0.524
1080.000	619.635	79.997	19.996	101.022	20.063	8.289	0.506
1088.000	623.732	79.999	19.996	101.028	20.062	8.348	0.523
1096.000	627.810	79.999	19.995	101.027	20.061	8.440	0.515
1104.000	631.926	79.997	19.997	101.031	20.062	8.346	0.513
1112.000	636.010	79.995	19.995	101.031	20.064	8.220	0.529
1120.000	640.092	79.996	19.995	101.038	20.060	8.494	0.510
1128.000	644.155	79.996	19.996	101.053	20.056	8.786	0.509
1136.000	648.192	79.995	19.996	101.055	20.057	8.764	0.507
1144.000	652.295	79.998	19.996	101.070	20.049	9.298	0.522
1152.000	656.318	79.997	19.996	101.071	20.051	9.185	0.494
1160.000	660.337	79.996	19.996	101.078	20.044	9.679	0.499
1168.000	664.406	79.997	19.996	101.101	20.045	9.561	0.537
1176.000	668.386	79.998	19.994	101.102	20.043	9.730	0.443
1184.000	672.416	79.995	19.995	101.114	20.035	10.274	0.488
1192.000	676.508	79.996	19.996	101.131	20.035	10.285	0.513
1200.000	680.391	79.995	19.996	101.131	20.032	10.499	0.481
1208.000	684.400	79.995	19.996	101.143	20.030	10.663	0.489
1216.000	688.380	79.996	19.996	101.149	20.028	10.758	0.476
1224.000	692.437	79.996	19.997	101.175	20.026	10.915	0.492
1232.000	696.521	79.996	19.996	101.180	20.024	11.077	0.526
1240.000	700.561	79.997	19.997	101.205	20.015	11.681	0.502
1248.000	704.608	79.997	19.996	101.212	20.018	11.478	0.493
1256.000	708.615	79.998	19.997	101.223	20.015	11.660	0.510
1264.000	712.656	79.997	19.996	101.222	20.009	12.142	0.490
1272.000	716.715	79.995	19.994	101.254	20.008	12.154	0.484
1280.000	720.769	79.996	19.995	101.221	20.007	12.275	0.466
1288.000	724.854	79.996	19.996	101.219	20.012	11.869	0.498
1296.000	728.946	79.995	19.996	101.168	20.017	11.502	0.521
1304.000	733.118	79.999	19.997	101.077	20.033	10.432	0.509
1312.000	737.243	79.996	19.995	101.030	20.041	9.849	0.512
1320.000	741.366	79.993	19.995	101.004	20.048	9.327	0.510
1324.500	743.638	79.996	19.997	100.988	20.046	9.506	0.510