Folder: fsri_materials_database/01_Data/Rubber_Foam_Pipe_Insulation/FTIR/IS

Note: README.md
# Materials and Products Database
### Repository of materials and products properties and fire test data to improve fire modeling and fire investigation.

This project was supported in part by Award No. 2019-DU-BX-0018, awarded by the National Institute of Justice, Office of Justice Programs, U.S. Department of Justice. The opinions, findings, and conclusions or recommendations expressed in this publication / program / exhibition are those of the author(s) and do not necessarily reflect those of the Department of Justice.

***
***

__Cite this database:__ "McKinnon, M., Weinschenk, C., Dow, N., DiDomizio, M., and Madrzykowski, D. Materials and Products Database (Version 1.0.0), Fire Safety Research Institute, UL Research Institutes. Columbia, MD 21045, 2023."

__Cite the Technical Reference Guide:__ "McKinnon, M., Weinschenk, C., and Madrzykowski, D. Materials and Products Database - Technical Reference Guide, Fire Safety Research Institute, UL Research Institutes. Columbia, MD 21045, 2023."

__Cite the User Guide:__ "McKinnon, M., and Weinschenk, C. Materials and Products Database - User Guide, Fire Safety Research Institute, UL Research Institutes. Columbia, MD 21045, 2023."

***
***

## Database Structure

## 01_Data/
Raw data generated from each apparatus are included here in plain-text format. The data is organized first by material, next by the short name of test apparatus used, and where applicable additional filtering by test settings.

### Test Apparatus and Data File Structure
- __Cone Calorimeter__ (Cone)
    + Data file structure includes the material, the short name for the apparatus, heat flux setting and scan/scalar, date of test, and replicate number. Scan is for the raw output data and scalar is for the initial conditions and high-level test parameters. 
        * Example: __MDF_Cone_HF25scalar_210323_R1__ stands for the first replicate of scalar data generated from a medium density fiber board test in cone calorimeter exposed to 25 kW/m<sup>2</sup> on March 23, 2021.
    + A _Cone_Notes.csv_ is generated for each material from the __plot_Cone_data.py__ script. For materials whose experiments deviated from typical behavior relevant pictures are included in the respective material directory.
- __Fourier Transform Infrared Spectrometer__ (FTIR)
    + The FTIR directory contains subdirectories for the Attenuated Total Reflectance method (ATR) and the Integrating Sphere (IS)
    + Data file structure for the ATR experiment files includes the material, the abbreviated name for the apparatus, date of test, and replicate number. 
        * Example: __MDF_ATR_210323_R5__ stands for the fifth replicate of data collected with the ATR accessory conducted on June 8, 2021.
    + Data file structure for the IS experiment files includes the material, the abbreviated name for the apparatus, the measurand, whether the test is a sample measurement or standard reference, date of test, and replicate number.
        * Example: __OSB_IS_REFLECT_MEAS_2

File: Rubber_Foam_Pipe_Insulation_IS_S_220825_R1.dpt
7497.03,0.05025
7473.89,0.05007
7450.74,0.05123
7427.6,0.04260
7404.45,0.05191
7381.31,0.04911
7358.16,0.05129
7335.02,0.04379
7311.87,0.04714
7288.73,0.05371
7265.58,0.04016
7242.44,0.04425
7219.29,0.04640
7196.15,0.04613
7173,0.04892
7149.86,0.04934
7126.71,0.05309
7103.57,0.04905
7080.42,0.04539
7057.28,0.04731
7034.13,0.04516
7010.99,0.04879
6987.84,0.04447
6964.7,0.04236
6941.55,0.04864
6918.41,0.04740
6895.26,0.04339
6872.12,0.04566
6848.97,0.04675
6825.83,0.04040
6802.68,0.04801
6779.54,0.04667
6756.39,0.04393
6733.25,0.04805
6710.1,0.04394
6686.96,0.04234
6663.82,0.04672
6640.67,0.04512
6617.53,0.04477
6594.38,0.04631
6571.24,0.04443
6548.09,0.04636
6524.95,0.04751
6501.8,0.04629
6478.66,0.04654
6455.51,0.04655
6432.37,0.04524
6409.22,0.04660
6386.08,0.04737
6362.93,0.04637
6339.79,0.04182
6316.64,0.04493
6293.5,0.04484
6270.35,0.04893
6247.21,0.04564
6224.06,0.04789
6200.92,0.04556
6177.77,0.05011
6154.63,0.04504
6131.48,0.04775
6108.34,0.04724
6085.19,0.04622
6062.05,0.04178
6038.9,0.04439
6015.76,0.04698
5992.61,0.04487
5969.47,0.04545
5946.32,0.04815
5923.18,0.04617
5900.03,0.04704
5876.89,0.04683
5853.74,0.04558
5830.6,0.04757
5807.45,0.04585
5784.31,0.04685
5761.16,0.04693
5738.02,0.04674
5714.87,0.04716
5691.73,0.04672
5668.58,0.04735
5645.44,0.04705
5622.29,0.04541
5599.15,0.04797
5576,0.04742
5552.86,0.04626
5529.71,0.04758
5506.57,0.04676
5483.42,0.04856
5460.28,0.04606
5437.13,0.04785
5413.99,0.04725
5390.84,0.04930
5367.7,0.04776
5344.55,0.04816
5321.41,0.04766
5298.26,0.04799
5275.12,0.04698
5251.97,0.04859
5228.83,0.04846
5205.68,0.04807
5182.54,0.04762
5159.39,0.04761
5136.25,0.04838
5113.1,0.04809
5089.96,0.04768
5066.81,0.04911
5043.67,0.04931
5020.52,0.04881
4997.38,0.04810
4974.23,0.04856
4951.09,0.04915
4927.94,0.04938
4904.8,0.04993
4881.65,0.04890
4858.51,0.04835
4835.36,0.05006
4812.22,0.04934
4789.07,0.04976
4765.93,0.04976
4742.78,0.04941
4719.64,0.04953
4696.49,0.04935
4673.35,0.05008
4650.2,0.04957
4627.06,0.04972
4603.92,0.04991
4580.77,0.04982
4557.63,0.05004
4534.48,0.05037
4511.34,0.05009
4488.19,0.05012
4465.05,0.05018
4441.9,0.05061
4418.76,0.05036
4395.61,0.05059
4372.47,0.05054
4349.32,0.05043
4326.18,0.05034
4303.03,0.05015
4279.89,0.05103
4256.74,0.05079
4233.6,0.05122
4210.45,0.05073
4187.31,0.05157
4164.16,0.05117
4141.02,0.05111
4117.87,0.05158
4094.73,0.05189
4071.58,0.05183
4048.44,0.05232
4025.29,0.05169
4002.15,0.05222
3979,0.05219
3955.86,0.05277
3932.71,0.05226
3909.57,0.05266
3886.42,0.05284
3863.28,0.05237
3840.13,0.05327
3816.99,0.05331
3793.84,0.05301
3770.7,0.05293
3747.55,0.05296
3724.41,0.05242
3701.26,0.05266
3678.12,0.05254
3654.97,0.05201
3631.83,0.05110
3608.68,0.05004
3585.54,0.05001
3562.39,0.04951
3539.25,0.04720
3516.1,0.04297
3492.96,0.04586
3469.81,0.04290
3446.67,0.04097
3423.52,0.04104
3400.38,0.03900
3377.23,0.04037
3354.09,0.04276
3330.94,0.04324
3307.8,0.04310
3284.65,0.04268
3261.51,0.04401
3238.36,0.04312
3215.22,0.04126
3192.07,0.04244
3168.93,0.04439
3145.78,0.04547
3122.64,0.04524
3099.49,0.04554
3076.35,0.04588
3053.2,0.04602
3030.06,0.04604
3006.91,0.04587
2983.77,0.04473
2960.62,0.04212
2937.48,0.04066
2914.33,0.04783
2891.19,0.04617
2868.04,0.04640
2844.9,0.04940
2821.75,0.05176
2798.61,0.05256
2775.46,0.05353
2752.32,0.05407
2729.17,0.05434
2706.03,0.05531
2682.88,0.05543
2659.74,0.05604
2636.59,0.05599
2613.45,0.05613
2590.3,0.05613
2567.16,0.05638
2544.02,0.05677
2520.87,0.05579
2497.73,0.05673
2474.58,0.05795
2451.44,0.05841
2428.29,0.05865
2405.15,0.05866
2382,0.05893
2358.86,0.05970
2335.71,0.05945
2312.57,0.05924
2289.42,0.05949
2266.28,0.05971
2243.13,0.05864
2219.99,0.05989
2196.84,0.05956
2173.7,0.06025
2150.55,0.06044
2127.41,0.06074
2104.26,0.06091
2081.12,0.06076
2057.97,0.06128
2034.83,0.06120
2011.68,0.06131
1988.54,0.06144
1965.39,0.06144
1942.25,0.06131
1919.1,0.06144
1895.96,0.06124
1872.81,0.06091
1849.67,0.06020
1826.52,0.05929
1803.38,0.05802
1780.23,0.05723
1757.09,0.05379
1733.94,0.04356
1710.8,0.03901
1687.65,0.03926
1664.51,0.04368
1641.36,0.04749
1618.22,0.04482
1595.07,0.04383
1571.93,0.04756
1548.78,0.04227
1525.64,0.04136
1502.49,0.04312
1479.35,0.04682
1456.2,0.04465
1433.06,0.04963
1409.91,0.05957
1386.77,0.06069
1363.62,0.06143
1340.48,0.06496
1317.33,0.06533
1294.19,0.06417
1271.04,0.06232
1247.9,0.06086
1224.75,0.06341
1201.61,0.06204
1178.46,0.06261
1155.32,0.06013
1132.17,0.06051
1109.03,0.05785
1085.88,0.06045
1062.74,0.06060
1039.59,0.05335
1016.45,0.05484
993.304,0.05958
970.159,0.05274
947.014,0.06296
923.869,0.06422
900.724,0.06504
877.579,0.05525
854.434,0.05874
831.289,0.05977
808.144,0.05222
784.999,0.05338
761.854,0.05431
738.709,0.05421
715.565,0.05309
692.42,0.05386
669.275,0.05021
646.13,0.05032
622.985,0.04532
599.84,0.04477

File: Rubber_Foam_Pipe_Insulation_IS_S_220825_R2.dpt
7497.03,0.05059
7473.89,0.04832
7450.74,0.04568
7427.6,0.04461
7404.45,0.04650
7381.31,0.04332
7358.16,0.04801
7335.02,0.04945
7311.87,0.04648
7288.73,0.04792
7265.58,0.05179
7242.44,0.04342
7219.29,0.04683
7196.15,0.04163
7173,0.05137
7149.86,0.04952
7126.71,0.04685
7103.57,0.04605
7080.42,0.04128
7057.28,0.04717
7034.13,0.05233
7010.99,0.04153
6987.84,0.04463
6964.7,0.04756
6941.55,0.04380
6918.41,0.04771
6895.26,0.04671
6872.12,0.05091
6848.97,0.04702
6825.83,0.04481
6802.68,0.05212
6779.54,0.04682
6756.39,0.04597
6733.25,0.04729
6710.1,0.04711
6686.96,0.04969
6663.82,0.05004
6640.67,0.04557
6617.53,0.04314
6594.38,0.04817
6571.24,0.04824
6548.09,0.04077
6524.95,0.04486
6501.8,0.04682
6478.66,0.04290
6455.51,0.04675
6432.37,0.04328
6409.22,0.04794
6386.08,0.04514
6362.93,0.04794
6339.79,0.04584
6316.64,0.04961
6293.5,0.04635
6270.35,0.04415
6247.21,0.04873
6224.06,0.04753
6200.92,0.04724
6177.77,0.04849
6154.63,0.04471
6131.48,0.04461
6108.34,0.04759
6085.19,0.04378
6062.05,0.04721
6038.9,0.04759
6015.76,0.04590
5992.61,0.04557
5969.47,0.04672
5946.32,0.04649
5923.18,0.04608
5900.03,0.04482
5876.89,0.04816
5853.74,0.04751
5830.6,0.04647
5807.45,0.04677
5784.31,0.04558
5761.16,0.04659
5738.02,0.04566
5714.87,0.04747
5691.73,0.04841
5668.58,0.04452
5645.44,0.04798
5622.29,0.04761
5599.15,0.04742
5576,0.04809
5552.86,0.04790
5529.71,0.04853
5506.57,0.04772
5483.42,0.04937
5460.28,0.04700
5437.13,0.04693
5413.99,0.04690
5390.84,0.04766
5367.7,0.04689
5344.55,0.04823
5321.41,0.04794
5298.26,0.04798
5275.12,0.04844
5251.97,0.04772
5228.83,0.04803
5205.68,0.04734
5182.54,0.04927
5159.39,0.04781
5136.25,0.04792
5113.1,0.04852
5089.96,0.04869
5066.81,0.04912
5043.67,0.04918
5020.52,0.04888
4997.38,0.04973
4974.23,0.04961
4951.09,0.04873
4927.94,0.04895
4904.8,0.04860
4881.65,0.05013
4858.51,0.04833
4835.36,0.04964
4812.22,0.04987
4789.07,0.04906
4765.93,0.04951
4742.78,0.05054
4719.64,0.05017
4696.49,0.04996
4673.35,0.05009
4650.2,0.05056
4627.06,0.05062
4603.92,0.05056
4580.77,0.04994
4557.63,0.05093
4534.48,0.05094
4511.34,0.05081
4488.19,0.04999
4465.05,0.05051
4441.9,0.05060
4418.76,0.05048
4395.61,0.05088
4372.47,0.05111
4349.32,0.05071
4326.18,0.05073
4303.03,0.05107
4279.89,0.05158
4256.74,0.05077
4233.6,0.05106
4210.45,0.05162
4187.31,0.05218
4164.16,0.05170
4141.02,0.05189
4117.87,0.05179
4094.73,0.05186
4071.58,0.05217
4048.44,0.05204
4025.29,0.05167
4002.15,0.05242
3979,0.05263
3955.86,0.05228
3932.71,0.05221
3909.57,0.05239
3886.42,0.05262
3863.28,0.05290
3840.13,0.05298
3816.99,0.05297
3793.84,0.05313
3770.7,0.05396
3747.55,0.05349
3724.41,0.05274
3701.26,0.05262
3678.12,0.05315
3654.97,0.05186
3631.83,0.05136
3608.68,0.05012
3585.54,0.05033
3562.39,0.04975
3539.25,0.04748
3516.1,0.04304
3492.96,0.04574
3469.81,0.04362
3446.67,0.04141
3423.52,0.04098
3400.38,0.03928
3377.23,0.04054
3354.09,0.04288
3330.94,0.04334
3307.8,0.04273
3284.65,0.04312
3261.51,0.04420
3238.36,0.04305
3215.22,0.04196
3192.07,0.04307
3168.93,0.04454
3145.78,0.04608
3122.64,0.04517
3099.49,0.04591
3076.35,0.04679
3053.2,0.04620
3030.06,0.04624
3006.91,0.04618
2983.77,0.04500
2960.62,0.04184
2937.48,0.04078
2914.33,0.04778
2891.19,0.04682
2868.04,0.04691
2844.9,0.04973
2821.75,0.05244
2798.61,0.05341
2775.46,0.05379
2752.32,0.05435
2729.17,0.05474
2706.03,0.05558
2682.88,0.05570
2659.74,0.05593
2636.59,0.05623
2613.45,0.05624
2590.3,0.05606
2567.16,0.05652
2544.02,0.05681
2520.87,0.05634
2497.73,0.05748
2474.58,0.05883
2451.44,0.05918
2428.29,0.05911
2405.15,0.05952
2382,0.05940
2358.86,0.05973
2335.71,0.05971
2312.57,0.05961
2289.42,0.06017
2266.28,0.06008
2243.13,0.05899
2219.99,0.06016
2196.84,0.06012
2173.7,0.06083
2150.55,0.06111
2127.41,0.06104
2104.26,0.06115
2081.12,0.06141
2057.97,0.06155
2034.83,0.06159
2011.68,0.06154
1988.54,0.06138
1965.39,0.06156
1942.25,0.06187
1919.1,0.06209
1895.96,0.06218
1872.81,0.06140
1849.67,0.06077
1826.52,0.05977
1803.38,0.05808
1780.23,0.05777
1757.09,0.05450
1733.94,0.04387
1710.8,0.03921
1687.65,0.03970
1664.51,0.04434
1641.36,0.04747
1618.22,0.04503
1595.07,0.04379
1571.93,0.04784
1548.78,0.04253
1525.64,0.04200
1502.49,0.04360
1479.35,0.04740
1456.2,0.04523
1433.06,0.04985
1409.91,0.05980
1386.77,0.06171
1363.62,0.06179
1340.48,0.06542
1317.33,0.06555
1294.19,0.06511
1271.04,0.06280
1247.9,0.06154
1224.75,0.06380
1201.61,0.06251
1178.46,0.06264
1155.32,0.06066
1132.17,0.06087
1109.03,0.05770
1085.88,0.06074
1062.74,0.06053
1039.59,0.05439
1016.45,0.05439
993.304,0.06079
970.159,0.05324
947.014,0.06330
923.869,0.06476
900.724,0.06493
877.579,0.05599
854.434,0.05759
831.289,0.06007
808.144,0.05290
784.999,0.05412
761.854,0.05455
738.709,0.05430
715.565,0.05286
692.42,0.05486
669.275,0.05061
646.13,0.05173
622.985,0.04629
599.84,0.04764

File: Rubber_Foam_Pipe_Insulation_IS_S_220825_R4.dpt
7497.03,0.04563
7473.89,0.04558
7450.74,0.05015
7427.6,0.05570
7404.45,0.04702
7381.31,0.05157
7358.16,0.04250
7335.02,0.04683
7311.87,0.04586
7288.73,0.05304
7265.58,0.04948
7242.44,0.03914
7219.29,0.04199
7196.15,0.04373
7173,0.04614
7149.86,0.03595
7126.71,0.04599
7103.57,0.04939
7080.42,0.05634
7057.28,0.04615
7034.13,0.04921
7010.99,0.05018
6987.84,0.04698
6964.7,0.05065
6941.55,0.04524
6918.41,0.04354
6895.26,0.04651
6872.12,0.04134
6848.97,0.04852
6825.83,0.04707
6802.68,0.04932
6779.54,0.04634
6756.39,0.04263
6733.25,0.04344
6710.1,0.04873
6686.96,0.04396
6663.82,0.03994
6640.67,0.04364
6617.53,0.04437
6594.38,0.04111
6571.24,0.04879
6548.09,0.04885
6524.95,0.04407
6501.8,0.04239
6478.66,0.04857
6455.51,0.04769
6432.37,0.04712
6409.22,0.04691
6386.08,0.04849
6362.93,0.04277
6339.79,0.04453
6316.64,0.04562
6293.5,0.04590
6270.35,0.04455
6247.21,0.04890
6224.06,0.04373
6200.92,0.04589
6177.77,0.04363
6154.63,0.04377
6131.48,0.04707
6108.34,0.04536
6085.19,0.04447
6062.05,0.04551
6038.9,0.04553
6015.76,0.04831
5992.61,0.04517
5969.47,0.04468
5946.32,0.04648
5923.18,0.04720
5900.03,0.04651
5876.89,0.04682
5853.74,0.04802
5830.6,0.04751
5807.45,0.04501
5784.31,0.04819
5761.16,0.04700
5738.02,0.04739
5714.87,0.04597
5691.73,0.04679
5668.58,0.04617
5645.44,0.04512
5622.29,0.04614
5599.15,0.04833
5576,0.04699
5552.86,0.04857
5529.71,0.04729
5506.57,0.04758
5483.42,0.04752
5460.28,0.04806
5437.13,0.04813
5413.99,0.04813
5390.84,0.04856
5367.7,0.04690
5344.55,0.04821
5321.41,0.04706
5298.26,0.04848
5275.12,0.04859
5251.97,0.04716
5228.83,0.04814
5205.68,0.05058
5182.54,0.04853
5159.39,0.04827
5136.25,0.04822
5113.1,0.04849
5089.96,0.04902
5066.81,0.04839
5043.67,0.04902
5020.52,0.04897
4997.38,0.04964
4974.23,0.04864
4951.09,0.04828
4927.94,0.04883
4904.8,0.04933
4881.65,0.04945
4858.51,0.04933
4835.36,0.04866
4812.22,0.04993
4789.07,0.05014
4765.93,0.04918
4742.78,0.04995
4719.64,0.04996
4696.49,0.05090
4673.35,0.04995
4650.2,0.05108
4627.06,0.05022
4603.92,0.05069
4580.77,0.04980
4557.63,0.04980
4534.48,0.05023
4511.34,0.05110
4488.19,0.05063
4465.05,0.05082
4441.9,0.05081
4418.76,0.05147
4395.61,0.05148
4372.47,0.05148
4349.32,0.05139
4326.18,0.05077
4303.03,0.05144
4279.89,0.05174
4256.74,0.05139
4233.6,0.05161
4210.45,0.05128
4187.31,0.05141
4164.16,0.05177
4141.02,0.05193
4117.87,0.05223
4094.73,0.05203
4071.58,0.05295
4048.44,0.05207
4025.29,0.05194
4002.15,0.05247
3979,0.05254
3955.86,0.05289
3932.71,0.05285
3909.57,0.05310
3886.42,0.05318
3863.28,0.05341
3840.13,0.05354
3816.99,0.05313
3793.84,0.05336
3770.7,0.05325
3747.55,0.05297
3724.41,0.05361
3701.26,0.05334
3678.12,0.05243
3654.97,0.05196
3631.83,0.05112
3608.68,0.05077
3585.54,0.05096
3562.39,0.04956
3539.25,0.04757
3516.1,0.04293
3492.96,0.04575
3469.81,0.04286
3446.67,0.04124
3423.52,0.04119
3400.38,0.03896
3377.23,0.04068
3354.09,0.04374
3330.94,0.04323
3307.8,0.04250
3284.65,0.04277
3261.51,0.04491
3238.36,0.04359
3215.22,0.04233
3192.07,0.04361
3168.93,0.04457
3145.78,0.04549
3122.64,0.04638
3099.49,0.04627
3076.35,0.04598
3053.2,0.04650
3030.06,0.04682
3006.91,0.04623
2983.77,0.04506
2960.62,0.04240
2937.48,0.04115
2914.33,0.04844
2891.19,0.04673
2868.04,0.04663
2844.9,0.04926
2821.75,0.05229
2798.61,0.05343
2775.46,0.05371
2752.32,0.05448
2729.17,0.05560
2706.03,0.05536
2682.88,0.05588
2659.74,0.05630
2636.59,0.05672
2613.45,0.05635
2590.3,0.05688
2567.16,0.05698
2544.02,0.05662
2520.87,0.05636
2497.73,0.05774
2474.58,0.05865
2451.44,0.05921
2428.29,0.05915
2405.15,0.05929
2382,0.05995
2358.86,0.05984
2335.71,0.05962
2312.57,0.06001
2289.42,0.06002
2266.28,0.06048
2243.13,0.05928
2219.99,0.06060
2196.84,0.06065
2173.7,0.06118
2150.55,0.06116
2127.41,0.06158
2104.26,0.06151
2081.12,0.06178
2057.97,0.06174
2034.83,0.06193
2011.68,0.06194
1988.54,0.06197
1965.39,0.06231
1942.25,0.06248
1919.1,0.06209
1895.96,0.06202
1872.81,0.06175
1849.67,0.06066
1826.52,0.05995
1803.38,0.05849
1780.23,0.05778
1757.09,0.05399
1733.94,0.04423
1710.8,0.03945
1687.65,0.03982
1664.51,0.04420
1641.36,0.04765
1618.22,0.04505
1595.07,0.04418
1571.93,0.04816
1548.78,0.04226
1525.64,0.04151
1502.49,0.04361
1479.35,0.04683
1456.2,0.04504
1433.06,0.05002
1409.91,0.05975
1386.77,0.06154
1363.62,0.06199
1340.48,0.06582
1317.33,0.06592
1294.19,0.06539
1271.04,0.06352
1247.9,0.06187
1224.75,0.06407
1201.61,0.06264
1178.46,0.06317
1155.32,0.06099
1132.17,0.06082
1109.03,0.05777
1085.88,0.06139
1062.74,0.06116
1039.59,0.05402
1016.45,0.05461
993.304,0.06117
970.159,0.05350
947.014,0.06321
923.869,0.06483
900.724,0.06606
877.579,0.05578
854.434,0.05909
831.289,0.06061
808.144,0.05351
784.999,0.05424
761.854,0.05528
738.709,0.05424
715.565,0.05324
692.42,0.05288
669.275,0.05025
646.13,0.05291
622.985,0.04636
599.84,0.04582

File: Rubber_Foam_Pipe_Insulation_IS_S_220825_R5.dpt
7497.03,0.05054
7473.89,0.04219
7450.74,0.04333
7427.6,0.04862
7404.45,0.04146
7381.31,0.04436
7358.16,0.04752
7335.02,0.04677
7311.87,0.05100
7288.73,0.04878
7265.58,0.05371
7242.44,0.04399
7219.29,0.04611
7196.15,0.04344
7173,0.05268
7149.86,0.04646
7126.71,0.04593
7103.57,0.04584
7080.42,0.04852
7057.28,0.04820
7034.13,0.04405
7010.99,0.04797
6987.84,0.03710
6964.7,0.04671
6941.55,0.04495
6918.41,0.04310
6895.26,0.05196
6872.12,0.04421
6848.97,0.04819
6825.83,0.04844
6802.68,0.04551
6779.54,0.04350
6756.39,0.05057
6733.25,0.04809
6710.1,0.04375
6686.96,0.04249
6663.82,0.04679
6640.67,0.04460
6617.53,0.04576
6594.38,0.04237
6571.24,0.04269
6548.09,0.04639
6524.95,0.05058
6501.8,0.04804
6478.66,0.04309
6455.51,0.04618
6432.37,0.04197
6409.22,0.04527
6386.08,0.04063
6362.93,0.04682
6339.79,0.04425
6316.64,0.04516
6293.5,0.04322
6270.35,0.04766
6247.21,0.04547
6224.06,0.04480
6200.92,0.04445
6177.77,0.04806
6154.63,0.04479
6131.48,0.04450
6108.34,0.04696
6085.19,0.04718
6062.05,0.04470
6038.9,0.04516
6015.76,0.04828
5992.61,0.04467
5969.47,0.04728
5946.32,0.04675
5923.18,0.04844
5900.03,0.04836
5876.89,0.04466
5853.74,0.04544
5830.6,0.04781
5807.45,0.04687
5784.31,0.04547
5761.16,0.04718
5738.02,0.04662
5714.87,0.04769
5691.73,0.04827
5668.58,0.04795
5645.44,0.04512
5622.29,0.04767
5599.15,0.04706
5576,0.04783
5552.86,0.04885
5529.71,0.04650
5506.57,0.04818
5483.42,0.04804
5460.28,0.04615
5437.13,0.04680
5413.99,0.04883
5390.84,0.04775
5367.7,0.04729
5344.55,0.04801
5321.41,0.04801
5298.26,0.04751
5275.12,0.04828
5251.97,0.05034
5228.83,0.04970
5205.68,0.04645
5182.54,0.04988
5159.39,0.04870
5136.25,0.04745
5113.1,0.04931
5089.96,0.05011
5066.81,0.04921
5043.67,0.05039
5020.52,0.04927
4997.38,0.04951
4974.23,0.04897
4951.09,0.04818
4927.94,0.04895
4904.8,0.04952
4881.65,0.04858
4858.51,0.05031
4835.36,0.04976
4812.22,0.04979
4789.07,0.04987
4765.93,0.04968
4742.78,0.05027
4719.64,0.05000
4696.49,0.05008
4673.35,0.05120
4650.2,0.05034
4627.06,0.05063
4603.92,0.04994
4580.77,0.05056
4557.63,0.05184
4534.48,0.05064
4511.34,0.05092
4488.19,0.05041
4465.05,0.05151
4441.9,0.05142
4418.76,0.05097
4395.61,0.05112
4372.47,0.05076
4349.32,0.05081
4326.18,0.05071
4303.03,0.05125
4279.89,0.05193
4256.74,0.05115
4233.6,0.05114
4210.45,0.05160
4187.31,0.05121
4164.16,0.05195
4141.02,0.05210
4117.87,0.05175
4094.73,0.05163
4071.58,0.05252
4048.44,0.05241
4025.29,0.05261
4002.15,0.05281
3979,0.05267
3955.86,0.05255
3932.71,0.05262
3909.57,0.05278
3886.42,0.05305
3863.28,0.05332
3840.13,0.05340
3816.99,0.05303
3793.84,0.05349
3770.7,0.05309
3747.55,0.05416
3724.41,0.05341
3701.26,0.05283
3678.12,0.05329
3654.97,0.05291
3631.83,0.05143
3608.68,0.05038
3585.54,0.05152
3562.39,0.05080
3539.25,0.04851
3516.1,0.04336
3492.96,0.04578
3469.81,0.04345
3446.67,0.04152
3423.52,0.04029
3400.38,0.03945
3377.23,0.04085
3354.09,0.04323
3330.94,0.04349
3307.8,0.04336
3284.65,0.04392
3261.51,0.04445
3238.36,0.04333
3215.22,0.04222
3192.07,0.04285
3168.93,0.04537
3145.78,0.04539
3122.64,0.04565
3099.49,0.04617
3076.35,0.04642
3053.2,0.04638
3030.06,0.04664
3006.91,0.04689
2983.77,0.04511
2960.62,0.04203
2937.48,0.04094
2914.33,0.04851
2891.19,0.04694
2868.04,0.04716
2844.9,0.04986
2821.75,0.05242
2798.61,0.05363
2775.46,0.05410
2752.32,0.05484
2729.17,0.05552
2706.03,0.05579
2682.88,0.05640
2659.74,0.05639
2636.59,0.05700
2613.45,0.05663
2590.3,0.05664
2567.16,0.05716
2544.02,0.05698
2520.87,0.05641
2497.73,0.05785
2474.58,0.05883
2451.44,0.05935
2428.29,0.05977
2405.15,0.05949
2382,0.06032
2358.86,0.06055
2335.71,0.06066
2312.57,0.06083
2289.42,0.06079
2266.28,0.06070
2243.13,0.05946
2219.99,0.06051
2196.84,0.06088
2173.7,0.06124
2150.55,0.06158
2127.41,0.06147
2104.26,0.06168
2081.12,0.06190
2057.97,0.06185
2034.83,0.06215
2011.68,0.06173
1988.54,0.06204
1965.39,0.06206
1942.25,0.06249
1919.1,0.06231
1895.96,0.06215
1872.81,0.06153
1849.67,0.06120
1826.52,0.06028
1803.38,0.05855
1780.23,0.05784
1757.09,0.05455
1733.94,0.04459
1710.8,0.04001
1687.65,0.04029
1664.51,0.04477
1641.36,0.04813
1618.22,0.04534
1595.07,0.04469
1571.93,0.04833
1548.78,0.04241
1525.64,0.04219
1502.49,0.04424
1479.35,0.04716
1456.2,0.04555
1433.06,0.05057
1409.91,0.06026
1386.77,0.06154
1363.62,0.06248
1340.48,0.06609
1317.33,0.06573
1294.19,0.06527
1271.04,0.06320
1247.9,0.06193
1224.75,0.06379
1201.61,0.06327
1178.46,0.06330
1155.32,0.06076
1132.17,0.06182
1109.03,0.05861
1085.88,0.06086
1062.74,0.06170
1039.59,0.05423
1016.45,0.05509
993.304,0.06151
970.159,0.05339
947.014,0.06355
923.869,0.06508
900.724,0.06615
877.579,0.05617
854.434,0.05974
831.289,0.05963
808.144,0.05362
784.999,0.05452
761.854,0.05587
738.709,0.05485
715.565,0.05421
692.42,0.05480
669.275,0.05071
646.13,0.05202
622.985,0.04772
599.84,0.04588