Folder: fsri_materials_database/01_Data/Eucalyptus_Flooring/FTIR/IS

Note: README.md
# Materials and Products Database
### Repository of materials and products properties and fire test data to improve fire modeling and fire investigation.

This project was supported in part by Award No. 2019-DU-BX-0018, awarded by the National Institute of Justice, Office of Justice Programs, U.S. Department of Justice. The opinions, findings, and conclusions or recommendations expressed in this publication / program / exhibition are those of the author(s) and do not necessarily reflect those of the Department of Justice.

***
***

__Cite this database:__ "McKinnon, M., Weinschenk, C., Dow, N., DiDomizio, M., and Madrzykowski, D. Materials and Products Database (Version 1.0.0), Fire Safety Research Institute, UL Research Institutes. Columbia, MD 21045, 2023."

__Cite the Technical Reference Guide:__ "McKinnon, M., Weinschenk, C., and Madrzykowski, D. Materials and Products Database - Technical Reference Guide, Fire Safety Research Institute, UL Research Institutes. Columbia, MD 21045, 2023."

__Cite the User Guide:__ "McKinnon, M., and Weinschenk, C. Materials and Products Database - User Guide, Fire Safety Research Institute, UL Research Institutes. Columbia, MD 21045, 2023."

***
***

## Database Structure

## 01_Data/
Raw data generated from each apparatus are included here in plain-text format. The data is organized first by material, next by the short name of test apparatus used, and where applicable additional filtering by test settings.

### Test Apparatus and Data File Structure
- __Cone Calorimeter__ (Cone)
    + Data file structure includes the material, the short name for the apparatus, heat flux setting and scan/scalar, date of test, and replicate number. Scan is for the raw output data and scalar is for the initial conditions and high-level test parameters. 
        * Example: __MDF_Cone_HF25scalar_210323_R1__ stands for the first replicate of scalar data generated from a medium density fiber board test in cone calorimeter exposed to 25 kW/m<sup>2</sup> on March 23, 2021.
    + A _Cone_Notes.csv_ is generated for each material from the __plot_Cone_data.py__ script. For materials whose experiments deviated from typical behavior relevant pictures are included in the respective material directory.
- __Fourier Transform Infrared Spectrometer__ (FTIR)
    + The FTIR directory contains subdirectories for the Attenuated Total Reflectance method (ATR) and the Integrating Sphere (IS)
    + Data file structure for the ATR experiment files includes the material, the abbreviated name for the apparatus, date of test, and replicate number. 
        * Example: __MDF_ATR_210323_R5__ stands for the fifth replicate of data collected with the ATR accessory conducted on June 8, 2021.
    + Data file structure for the IS experiment files includes the material, the abbreviated name for the apparatus, the measurand, whether the test is a sample measurement or standard reference, date of test, and replicate number.
        * Example: __OSB_IS_REFLECT_MEAS_2

File: Eucalyptus_Flooring_IS_S_220908_R1.dpt
7497.03,0.78371
7473.89,0.78887
7450.74,0.75805
7427.6,0.73796
7404.45,0.72801
7381.31,0.70311
7358.16,0.69128
7335.02,0.68434
7311.87,0.67598
7288.73,0.66680
7265.58,0.66283
7242.44,0.64946
7219.29,0.64874
7196.15,0.62753
7173,0.61038
7149.86,0.59868
7126.71,0.57863
7103.57,0.55949
7080.42,0.53016
7057.28,0.50409
7034.13,0.48262
7010.99,0.46784
6987.84,0.45561
6964.7,0.45262
6941.55,0.44863
6918.41,0.45202
6895.26,0.44978
6872.12,0.45054
6848.97,0.45677
6825.83,0.45675
6802.68,0.46231
6779.54,0.46826
6756.39,0.47084
6733.25,0.47401
6710.1,0.48452
6686.96,0.49387
6663.82,0.49701
6640.67,0.50529
6617.53,0.51090
6594.38,0.51605
6571.24,0.51958
6548.09,0.52430
6524.95,0.52555
6501.8,0.52668
6478.66,0.53148
6455.51,0.53128
6432.37,0.53257
6409.22,0.53651
6386.08,0.53890
6362.93,0.54379
6339.79,0.54659
6316.64,0.54754
6293.5,0.55046
6270.35,0.55506
6247.21,0.56090
6224.06,0.56399
6200.92,0.56736
6177.77,0.55561
6154.63,0.55847
6131.48,0.56584
6108.34,0.56620
6085.19,0.54949
6062.05,0.52598
6038.9,0.49021
6015.76,0.44339
5992.61,0.41062
5969.47,0.40278
5946.32,0.39540
5923.18,0.39351
5900.03,0.38849
5876.89,0.38605
5853.74,0.38680
5830.6,0.37490
5807.45,0.36568
5784.31,0.37215
5761.16,0.38901
5738.02,0.40140
5714.87,0.41628
5691.73,0.42291
5668.58,0.42860
5645.44,0.43661
5622.29,0.44348
5599.15,0.44897
5576,0.44960
5552.86,0.45584
5529.71,0.46112
5506.57,0.46645
5483.42,0.47476
5460.28,0.47973
5437.13,0.48666
5413.99,0.49337
5390.84,0.50007
5367.7,0.49668
5344.55,0.49053
5321.41,0.47126
5298.26,0.43152
5275.12,0.36460
5251.97,0.30081
5228.83,0.27295
5205.68,0.26538
5182.54,0.27202
5159.39,0.28630
5136.25,0.30330
5113.1,0.32074
5089.96,0.34087
5066.81,0.35521
5043.67,0.36828
5020.52,0.37913
4997.38,0.38265
4974.23,0.37515
4951.09,0.36040
4927.94,0.33850
4904.8,0.31610
4881.65,0.30157
4858.51,0.28733
4835.36,0.27624
4812.22,0.26560
4789.07,0.25990
4765.93,0.25583
4742.78,0.24562
4719.64,0.24059
4696.49,0.23009
4673.35,0.22011
4650.2,0.23922
4627.06,0.23688
4603.92,0.26226
4580.77,0.27637
4557.63,0.27981
4534.48,0.28510
4511.34,0.27091
4488.19,0.24447
4465.05,0.19919
4441.9,0.13703
4418.76,0.10900
4395.61,0.10935
4372.47,0.10399
4349.32,0.09951
4326.18,0.10263
4303.03,0.10868
4279.89,0.10992
4256.74,0.11253
4233.6,0.11649
4210.45,0.12094
4187.31,0.12278
4164.16,0.12149
4141.02,0.11920
4117.87,0.11725
4094.73,0.10960
4071.58,0.09588
4048.44,0.09323
4025.29,0.09477
4002.15,0.09694
3979,0.10156
3955.86,0.11031
3932.71,0.11767
3909.57,0.12516
3886.42,0.13065
3863.28,0.13759
3840.13,0.14587
3816.99,0.14784
3793.84,0.14781
3770.7,0.14459
3747.55,0.13967
3724.41,0.12825
3701.26,0.10494
3678.12,0.06644
3654.97,0.05470
3631.83,0.05404
3608.68,0.05405
3585.54,0.05349
3562.39,0.05229
3539.25,0.05224
3516.1,0.05188
3492.96,0.05230
3469.81,0.05270
3446.67,0.05326
3423.52,0.05343
3400.38,0.05294
3377.23,0.05303
3354.09,0.05335
3330.94,0.05373
3307.8,0.05379
3284.65,0.05438
3261.51,0.05378
3238.36,0.05413
3215.22,0.05397
3192.07,0.05441
3168.93,0.05503
3145.78,0.05365
3122.64,0.05379
3099.49,0.05369
3076.35,0.05364
3053.2,0.05287
3030.06,0.05290
3006.91,0.05235
2983.77,0.05085
2960.62,0.05157
2937.48,0.05340
2914.33,0.05883
2891.19,0.05598
2868.04,0.05638
2844.9,0.05923
2821.75,0.05702
2798.61,0.05639
2775.46,0.05613
2752.32,0.05638
2729.17,0.05703
2706.03,0.05722
2682.88,0.05850
2659.74,0.05936
2636.59,0.05971
2613.45,0.06020
2590.3,0.06067
2567.16,0.06079
2544.02,0.06101
2520.87,0.06254
2497.73,0.06376
2474.58,0.06497
2451.44,0.06601
2428.29,0.06618
2405.15,0.06815
2382,0.06873
2358.86,0.06881
2335.71,0.06897
2312.57,0.07058
2289.42,0.07232
2266.28,0.07412
2243.13,0.07426
2219.99,0.07504
2196.84,0.07452
2173.7,0.07190
2150.55,0.06750
2127.41,0.06474
2104.26,0.06239
2081.12,0.06110
2057.97,0.06147
2034.83,0.06148
2011.68,0.06061
1988.54,0.05960
1965.39,0.05897
1942.25,0.05984
1919.1,0.06078
1895.96,0.05773
1872.81,0.05621
1849.67,0.05417
1826.52,0.05071
1803.38,0.04650
1780.23,0.04346
1757.09,0.03636
1733.94,0.04904
1710.8,0.06797
1687.65,0.06007
1664.51,0.05786
1641.36,0.05655
1618.22,0.05544
1595.07,0.05557
1571.93,0.05391
1548.78,0.05297
1525.64,0.05135
1502.49,0.05182
1479.35,0.04757
1456.2,0.04933
1433.06,0.05063
1409.91,0.04832
1386.77,0.04817
1363.62,0.04885
1340.48,0.04702
1317.33,0.04382
1294.19,0.04279
1271.04,0.04222
1247.9,0.04564
1224.75,0.04821
1201.61,0.04788
1178.46,0.05434
1155.32,0.06539
1132.17,0.06556
1109.03,0.07122
1085.88,0.07711
1062.74,0.08144
1039.59,0.08220
1016.45,0.07940
993.304,0.07461
970.159,0.07465
947.014,0.07403
923.869,0.07176
900.724,0.07114
877.579,0.06996
854.434,0.06775
831.289,0.06570
808.144,0.06722
784.999,0.06828
761.854,0.06854
738.709,0.06718
715.565,0.06881
692.42,0.06990
669.275,0.07389
646.13,0.06842
622.985,0.06553
599.84,0.06351

File: Eucalyptus_Flooring_IS_S_220908_R2.dpt
7497.03,0.78369
7473.89,0.77248
7450.74,0.75191
7427.6,0.75330
7404.45,0.71779
7381.31,0.70817
7358.16,0.68910
7335.02,0.67948
7311.87,0.67185
7288.73,0.65363
7265.58,0.65348
7242.44,0.64247
7219.29,0.64091
7196.15,0.63062
7173,0.61719
7149.86,0.60364
7126.71,0.58219
7103.57,0.55823
7080.42,0.52835
7057.28,0.50889
7034.13,0.48224
7010.99,0.46293
6987.84,0.46098
6964.7,0.45062
6941.55,0.44985
6918.41,0.44621
6895.26,0.44359
6872.12,0.45535
6848.97,0.45379
6825.83,0.45442
6802.68,0.45811
6779.54,0.46385
6756.39,0.46890
6733.25,0.47666
6710.1,0.48029
6686.96,0.48876
6663.82,0.49067
6640.67,0.50430
6617.53,0.50444
6594.38,0.51506
6571.24,0.51844
6548.09,0.52273
6524.95,0.52263
6501.8,0.52485
6478.66,0.52977
6455.51,0.53061
6432.37,0.53159
6409.22,0.53454
6386.08,0.53524
6362.93,0.53896
6339.79,0.54671
6316.64,0.54809
6293.5,0.54744
6270.35,0.55522
6247.21,0.55759
6224.06,0.56538
6200.92,0.56392
6177.77,0.55628
6154.63,0.55813
6131.48,0.56334
6108.34,0.56104
6085.19,0.54867
6062.05,0.52442
6038.9,0.48588
6015.76,0.44365
5992.61,0.41205
5969.47,0.40072
5946.32,0.39637
5923.18,0.39282
5900.03,0.38647
5876.89,0.38679
5853.74,0.38304
5830.6,0.37499
5807.45,0.36535
5784.31,0.37007
5761.16,0.38612
5738.02,0.39855
5714.87,0.41455
5691.73,0.42392
5668.58,0.42788
5645.44,0.43657
5622.29,0.44333
5599.15,0.44728
5576,0.45021
5552.86,0.45504
5529.71,0.45941
5506.57,0.46679
5483.42,0.47275
5460.28,0.47476
5437.13,0.48421
5413.99,0.49102
5390.84,0.49749
5367.7,0.49426
5344.55,0.48746
5321.41,0.46888
5298.26,0.43161
5275.12,0.36354
5251.97,0.30147
5228.83,0.27279
5205.68,0.26576
5182.54,0.27224
5159.39,0.28552
5136.25,0.30150
5113.1,0.31912
5089.96,0.33914
5066.81,0.35567
5043.67,0.36913
5020.52,0.37884
4997.38,0.38186
4974.23,0.37392
4951.09,0.35817
4927.94,0.33764
4904.8,0.31500
4881.65,0.29914
4858.51,0.28705
4835.36,0.27572
4812.22,0.26428
4789.07,0.25911
4765.93,0.25569
4742.78,0.24454
4719.64,0.24014
4696.49,0.22920
4673.35,0.21946
4650.2,0.23819
4627.06,0.23696
4603.92,0.26049
4580.77,0.27517
4557.63,0.27947
4534.48,0.28347
4511.34,0.27033
4488.19,0.24374
4465.05,0.19866
4441.9,0.13613
4418.76,0.10866
4395.61,0.10937
4372.47,0.10321
4349.32,0.09932
4326.18,0.10267
4303.03,0.10879
4279.89,0.10915
4256.74,0.11243
4233.6,0.11567
4210.45,0.12077
4187.31,0.12227
4164.16,0.12066
4141.02,0.11859
4117.87,0.11701
4094.73,0.10900
4071.58,0.09538
4048.44,0.09320
4025.29,0.09455
4002.15,0.09675
3979,0.10136
3955.86,0.10913
3932.71,0.11707
3909.57,0.12437
3886.42,0.13054
3863.28,0.13748
3840.13,0.14510
3816.99,0.14691
3793.84,0.14747
3770.7,0.14353
3747.55,0.13905
3724.41,0.12840
3701.26,0.10502
3678.12,0.06563
3654.97,0.05521
3631.83,0.05419
3608.68,0.05327
3585.54,0.05361
3562.39,0.05253
3539.25,0.05213
3516.1,0.05209
3492.96,0.05255
3469.81,0.05263
3446.67,0.05338
3423.52,0.05314
3400.38,0.05331
3377.23,0.05288
3354.09,0.05310
3330.94,0.05300
3307.8,0.05356
3284.65,0.05419
3261.51,0.05372
3238.36,0.05437
3215.22,0.05352
3192.07,0.05403
3168.93,0.05416
3145.78,0.05416
3122.64,0.05335
3099.49,0.05344
3076.35,0.05333
3053.2,0.05283
3030.06,0.05253
3006.91,0.05169
2983.77,0.05075
2960.62,0.05178
2937.48,0.05337
2914.33,0.05843
2891.19,0.05632
2868.04,0.05561
2844.9,0.05898
2821.75,0.05672
2798.61,0.05644
2775.46,0.05591
2752.32,0.05628
2729.17,0.05598
2706.03,0.05658
2682.88,0.05778
2659.74,0.05877
2636.59,0.05982
2613.45,0.05996
2590.3,0.06051
2567.16,0.06078
2544.02,0.06054
2520.87,0.06228
2497.73,0.06302
2474.58,0.06427
2451.44,0.06610
2428.29,0.06597
2405.15,0.06758
2382,0.06839
2358.86,0.06870
2335.71,0.06858
2312.57,0.07058
2289.42,0.07232
2266.28,0.07410
2243.13,0.07447
2219.99,0.07468
2196.84,0.07404
2173.7,0.07169
2150.55,0.06768
2127.41,0.06447
2104.26,0.06239
2081.12,0.06099
2057.97,0.06129
2034.83,0.06153
2011.68,0.06013
1988.54,0.05998
1965.39,0.05894
1942.25,0.05921
1919.1,0.06028
1895.96,0.05751
1872.81,0.05586
1849.67,0.05428
1826.52,0.05026
1803.38,0.04660
1780.23,0.04336
1757.09,0.03656
1733.94,0.04868
1710.8,0.06823
1687.65,0.06009
1664.51,0.05761
1641.36,0.05626
1618.22,0.05499
1595.07,0.05517
1571.93,0.05342
1548.78,0.05250
1525.64,0.05088
1502.49,0.05171
1479.35,0.04743
1456.2,0.04894
1433.06,0.05065
1409.91,0.04842
1386.77,0.04896
1363.62,0.04880
1340.48,0.04646
1317.33,0.04387
1294.19,0.04304
1271.04,0.04204
1247.9,0.04580
1224.75,0.04810
1201.61,0.04823
1178.46,0.05441
1155.32,0.06526
1132.17,0.06546
1109.03,0.07161
1085.88,0.07750
1062.74,0.08161
1039.59,0.08161
1016.45,0.07932
993.304,0.07416
970.159,0.07437
947.014,0.07296
923.869,0.07119
900.724,0.07067
877.579,0.06970
854.434,0.06729
831.289,0.06561
808.144,0.06693
784.999,0.06857
761.854,0.06841
738.709,0.06766
715.565,0.06818
692.42,0.07043
669.275,0.07287
646.13,0.06871
622.985,0.06330
599.84,0.06425

File: Eucalyptus_Flooring_IS_S_220908_R3.dpt
7497.03,0.77893
7473.89,0.76832
7450.74,0.75125
7427.6,0.74273
7404.45,0.71627
7381.31,0.71297
7358.16,0.70004
7335.02,0.68735
7311.87,0.67881
7288.73,0.65600
7265.58,0.65239
7242.44,0.64725
7219.29,0.63969
7196.15,0.63899
7173,0.62352
7149.86,0.60272
7126.71,0.58349
7103.57,0.56170
7080.42,0.53061
7057.28,0.50361
7034.13,0.48520
7010.99,0.46500
6987.84,0.45789
6964.7,0.45447
6941.55,0.44497
6918.41,0.45019
6895.26,0.45136
6872.12,0.45784
6848.97,0.45790
6825.83,0.46016
6802.68,0.46389
6779.54,0.46532
6756.39,0.47078
6733.25,0.47999
6710.1,0.47661
6686.96,0.49085
6663.82,0.49520
6640.67,0.50401
6617.53,0.51113
6594.38,0.51802
6571.24,0.52319
6548.09,0.52752
6524.95,0.53091
6501.8,0.52968
6478.66,0.53226
6455.51,0.52795
6432.37,0.53367
6409.22,0.53742
6386.08,0.54099
6362.93,0.54309
6339.79,0.54474
6316.64,0.54641
6293.5,0.54855
6270.35,0.55535
6247.21,0.55957
6224.06,0.56468
6200.92,0.56676
6177.77,0.55518
6154.63,0.55429
6131.48,0.56375
6108.34,0.56187
6085.19,0.55323
6062.05,0.52758
6038.9,0.48797
6015.76,0.44546
5992.61,0.41348
5969.47,0.40204
5946.32,0.39684
5923.18,0.39394
5900.03,0.38983
5876.89,0.38813
5853.74,0.38453
5830.6,0.37718
5807.45,0.36562
5784.31,0.37106
5761.16,0.38671
5738.02,0.40341
5714.87,0.41419
5691.73,0.42490
5668.58,0.42812
5645.44,0.43835
5622.29,0.44370
5599.15,0.44790
5576,0.45169
5552.86,0.45644
5529.71,0.46046
5506.57,0.46683
5483.42,0.47260
5460.28,0.47902
5437.13,0.48672
5413.99,0.49645
5390.84,0.49805
5367.7,0.49629
5344.55,0.49135
5321.41,0.47138
5298.26,0.43350
5275.12,0.36704
5251.97,0.30252
5228.83,0.27397
5205.68,0.26672
5182.54,0.27392
5159.39,0.28691
5136.25,0.30523
5113.1,0.32190
5089.96,0.33916
5066.81,0.35585
5043.67,0.37090
5020.52,0.37956
4997.38,0.38351
4974.23,0.37587
4951.09,0.36063
4927.94,0.33797
4904.8,0.31618
4881.65,0.30108
4858.51,0.28796
4835.36,0.27622
4812.22,0.26570
4789.07,0.25962
4765.93,0.25567
4742.78,0.24525
4719.64,0.23955
4696.49,0.23023
4673.35,0.21986
4650.2,0.23881
4627.06,0.23676
4603.92,0.26161
4580.77,0.27594
4557.63,0.27993
4534.48,0.28505
4511.34,0.27129
4488.19,0.24435
4465.05,0.19992
4441.9,0.13685
4418.76,0.10907
4395.61,0.11033
4372.47,0.10349
4349.32,0.10015
4326.18,0.10336
4303.03,0.10961
4279.89,0.11033
4256.74,0.11200
4233.6,0.11632
4210.45,0.12141
4187.31,0.12261
4164.16,0.12106
4141.02,0.11979
4117.87,0.11749
4094.73,0.10980
4071.58,0.09581
4048.44,0.09314
4025.29,0.09500
4002.15,0.09659
3979,0.10134
3955.86,0.11001
3932.71,0.11739
3909.57,0.12523
3886.42,0.13050
3863.28,0.13765
3840.13,0.14597
3816.99,0.14730
3793.84,0.14821
3770.7,0.14476
3747.55,0.14028
3724.41,0.12855
3701.26,0.10592
3678.12,0.06663
3654.97,0.05565
3631.83,0.05479
3608.68,0.05417
3585.54,0.05280
3562.39,0.05204
3539.25,0.05251
3516.1,0.05279
3492.96,0.05214
3469.81,0.05261
3446.67,0.05236
3423.52,0.05269
3400.38,0.05333
3377.23,0.05331
3354.09,0.05310
3330.94,0.05320
3307.8,0.05408
3284.65,0.05351
3261.51,0.05427
3238.36,0.05314
3215.22,0.05461
3192.07,0.05371
3168.93,0.05432
3145.78,0.05370
3122.64,0.05419
3099.49,0.05305
3076.35,0.05347
3053.2,0.05308
3030.06,0.05275
3006.91,0.05181
2983.77,0.05023
2960.62,0.05107
2937.48,0.05397
2914.33,0.05881
2891.19,0.05591
2868.04,0.05629
2844.9,0.05959
2821.75,0.05697
2798.61,0.05629
2775.46,0.05663
2752.32,0.05578
2729.17,0.05636
2706.03,0.05729
2682.88,0.05808
2659.74,0.05898
2636.59,0.06017
2613.45,0.06046
2590.3,0.06029
2567.16,0.06111
2544.02,0.06111
2520.87,0.06208
2497.73,0.06343
2474.58,0.06459
2451.44,0.06617
2428.29,0.06619
2405.15,0.06805
2382,0.06862
2358.86,0.06872
2335.71,0.06859
2312.57,0.07073
2289.42,0.07256
2266.28,0.07375
2243.13,0.07474
2219.99,0.07496
2196.84,0.07435
2173.7,0.07187
2150.55,0.06783
2127.41,0.06483
2104.26,0.06254
2081.12,0.06117
2057.97,0.06143
2034.83,0.06149
2011.68,0.06074
1988.54,0.05954
1965.39,0.05907
1942.25,0.06006
1919.1,0.06046
1895.96,0.05740
1872.81,0.05617
1849.67,0.05408
1826.52,0.05021
1803.38,0.04610
1780.23,0.04355
1757.09,0.03662
1733.94,0.04909
1710.8,0.06792
1687.65,0.06010
1664.51,0.05758
1641.36,0.05636
1618.22,0.05540
1595.07,0.05499
1571.93,0.05350
1548.78,0.05263
1525.64,0.05117
1502.49,0.05187
1479.35,0.04745
1456.2,0.04878
1433.06,0.05062
1409.91,0.04848
1386.77,0.04871
1363.62,0.04861
1340.48,0.04681
1317.33,0.04407
1294.19,0.04307
1271.04,0.04218
1247.9,0.04571
1224.75,0.04813
1201.61,0.04801
1178.46,0.05493
1155.32,0.06526
1132.17,0.06505
1109.03,0.07108
1085.88,0.07714
1062.74,0.08184
1039.59,0.08190
1016.45,0.07890
993.304,0.07498
970.159,0.07473
947.014,0.07329
923.869,0.07184
900.724,0.07063
877.579,0.06952
854.434,0.06825
831.289,0.06665
808.144,0.06763
784.999,0.06817
761.854,0.06826
738.709,0.06697
715.565,0.06926
692.42,0.06859
669.275,0.07288
646.13,0.06846
622.985,0.06521
599.84,0.06513

File: Eucalyptus_Flooring_IS_S_220908_R4.dpt
7497.03,0.78262
7473.89,0.76430
7450.74,0.75445
7427.6,0.73637
7404.45,0.72403
7381.31,0.71203
7358.16,0.69947
7335.02,0.68132
7311.87,0.67709
7288.73,0.65612
7265.58,0.65491
7242.44,0.64877
7219.29,0.64071
7196.15,0.63355
7173,0.61585
7149.86,0.59768
7126.71,0.58383
7103.57,0.55902
7080.42,0.52835
7057.28,0.50761
7034.13,0.48182
7010.99,0.46657
6987.84,0.45521
6964.7,0.44682
6941.55,0.44546
6918.41,0.45404
6895.26,0.44852
6872.12,0.45407
6848.97,0.45714
6825.83,0.45506
6802.68,0.46357
6779.54,0.46967
6756.39,0.46503
6733.25,0.47554
6710.1,0.48200
6686.96,0.48876
6663.82,0.50085
6640.67,0.50010
6617.53,0.50973
6594.38,0.51337
6571.24,0.52031
6548.09,0.52549
6524.95,0.52557
6501.8,0.52834
6478.66,0.53270
6455.51,0.53124
6432.37,0.52593
6409.22,0.53444
6386.08,0.53299
6362.93,0.54180
6339.79,0.54302
6316.64,0.54644
6293.5,0.54853
6270.35,0.55353
6247.21,0.56057
6224.06,0.56579
6200.92,0.56107
6177.77,0.55377
6154.63,0.55383
6131.48,0.56033
6108.34,0.55997
6085.19,0.54985
6062.05,0.52441
6038.9,0.49102
6015.76,0.44615
5992.61,0.41119
5969.47,0.40067
5946.32,0.39655
5923.18,0.39164
5900.03,0.38851
5876.89,0.38719
5853.74,0.38663
5830.6,0.37432
5807.45,0.36711
5784.31,0.36970
5761.16,0.38439
5738.02,0.40054
5714.87,0.41348
5691.73,0.42385
5668.58,0.42846
5645.44,0.43548
5622.29,0.43958
5599.15,0.44662
5576,0.45199
5552.86,0.45639
5529.71,0.46138
5506.57,0.46697
5483.42,0.47096
5460.28,0.47828
5437.13,0.48585
5413.99,0.49458
5390.84,0.49596
5367.7,0.49549
5344.55,0.48907
5321.41,0.47128
5298.26,0.43178
5275.12,0.36510
5251.97,0.30424
5228.83,0.27288
5205.68,0.26728
5182.54,0.27352
5159.39,0.28692
5136.25,0.30434
5113.1,0.32163
5089.96,0.33879
5066.81,0.35621
5043.67,0.36947
5020.52,0.37904
4997.38,0.38172
4974.23,0.37518
4951.09,0.35768
4927.94,0.33610
4904.8,0.31494
4881.65,0.29876
4858.51,0.28618
4835.36,0.27461
4812.22,0.26528
4789.07,0.25977
4765.93,0.25599
4742.78,0.24472
4719.64,0.23771
4696.49,0.23002
4673.35,0.21833
4650.2,0.23935
4627.06,0.23541
4603.92,0.26099
4580.77,0.27498
4557.63,0.28018
4534.48,0.28354
4511.34,0.27023
4488.19,0.24390
4465.05,0.19864
4441.9,0.13619
4418.76,0.10869
4395.61,0.10995
4372.47,0.10381
4349.32,0.09983
4326.18,0.10224
4303.03,0.10813
4279.89,0.10872
4256.74,0.11182
4233.6,0.11580
4210.45,0.12072
4187.31,0.12216
4164.16,0.12109
4141.02,0.11937
4117.87,0.11684
4094.73,0.10915
4071.58,0.09589
4048.44,0.09281
4025.29,0.09478
4002.15,0.09598
3979,0.10046
3955.86,0.10984
3932.71,0.11714
3909.57,0.12518
3886.42,0.13066
3863.28,0.13739
3840.13,0.14545
3816.99,0.14784
3793.84,0.14773
3770.7,0.14450
3747.55,0.13940
3724.41,0.12834
3701.26,0.10504
3678.12,0.06597
3654.97,0.05572
3631.83,0.05344
3608.68,0.05336
3585.54,0.05285
3562.39,0.05223
3539.25,0.05252
3516.1,0.05241
3492.96,0.05229
3469.81,0.05206
3446.67,0.05219
3423.52,0.05299
3400.38,0.05326
3377.23,0.05338
3354.09,0.05280
3330.94,0.05283
3307.8,0.05370
3284.65,0.05362
3261.51,0.05404
3238.36,0.05404
3215.22,0.05426
3192.07,0.05390
3168.93,0.05349
3145.78,0.05402
3122.64,0.05328
3099.49,0.05384
3076.35,0.05296
3053.2,0.05317
3030.06,0.05249
3006.91,0.05173
2983.77,0.05116
2960.62,0.05128
2937.48,0.05272
2914.33,0.05858
2891.19,0.05620
2868.04,0.05614
2844.9,0.05909
2821.75,0.05655
2798.61,0.05672
2775.46,0.05600
2752.32,0.05610
2729.17,0.05643
2706.03,0.05688
2682.88,0.05779
2659.74,0.05890
2636.59,0.05969
2613.45,0.05989
2590.3,0.06029
2567.16,0.06078
2544.02,0.06096
2520.87,0.06201
2497.73,0.06289
2474.58,0.06461
2451.44,0.06620
2428.29,0.06592
2405.15,0.06776
2382,0.06860
2358.86,0.06869
2335.71,0.06849
2312.57,0.07044
2289.42,0.07212
2266.28,0.07432
2243.13,0.07439
2219.99,0.07445
2196.84,0.07454
2173.7,0.07184
2150.55,0.06768
2127.41,0.06432
2104.26,0.06249
2081.12,0.06096
2057.97,0.06122
2034.83,0.06150
2011.68,0.06019
1988.54,0.05997
1965.39,0.05915
1942.25,0.05954
1919.1,0.06069
1895.96,0.05751
1872.81,0.05604
1849.67,0.05397
1826.52,0.05059
1803.38,0.04644
1780.23,0.04329
1757.09,0.03680
1733.94,0.04875
1710.8,0.06801
1687.65,0.06033
1664.51,0.05742
1641.36,0.05582
1618.22,0.05529
1595.07,0.05514
1571.93,0.05392
1548.78,0.05266
1525.64,0.05099
1502.49,0.05188
1479.35,0.04748
1456.2,0.04885
1433.06,0.05061
1409.91,0.04824
1386.77,0.04864
1363.62,0.04883
1340.48,0.04654
1317.33,0.04460
1294.19,0.04280
1271.04,0.04235
1247.9,0.04584
1224.75,0.04773
1201.61,0.04830
1178.46,0.05467
1155.32,0.06527
1132.17,0.06431
1109.03,0.07111
1085.88,0.07676
1062.74,0.08131
1039.59,0.08127
1016.45,0.07935
993.304,0.07452
970.159,0.07419
947.014,0.07314
923.869,0.07206
900.724,0.07041
877.579,0.06960
854.434,0.06824
831.289,0.06591
808.144,0.06778
784.999,0.06847
761.854,0.06790
738.709,0.06791
715.565,0.06966
692.42,0.07028
669.275,0.07293
646.13,0.06900
622.985,0.06465
599.84,0.06408