Folder: fsri_materials_database/01_Data/Eucalyptus_Flooring/FTIR/IS (part 2)

File: Eucalyptus_Flooring_IS_S_220908_R5.dpt
7497.03,0.78669
7473.89,0.77028
7450.74,0.76397
7427.6,0.73456
7404.45,0.72858
7381.31,0.70159
7358.16,0.69494
7335.02,0.68333
7311.87,0.66907
7288.73,0.66698
7265.58,0.64999
7242.44,0.65283
7219.29,0.64429
7196.15,0.63337
7173,0.61780
7149.86,0.59913
7126.71,0.58712
7103.57,0.55758
7080.42,0.52584
7057.28,0.51371
7034.13,0.47934
7010.99,0.46465
6987.84,0.45313
6964.7,0.45110
6941.55,0.44490
6918.41,0.45014
6895.26,0.45133
6872.12,0.45080
6848.97,0.45358
6825.83,0.46198
6802.68,0.45934
6779.54,0.46776
6756.39,0.47031
6733.25,0.47209
6710.1,0.48383
6686.96,0.48950
6663.82,0.49418
6640.67,0.49965
6617.53,0.51095
6594.38,0.51734
6571.24,0.51738
6548.09,0.52688
6524.95,0.52612
6501.8,0.52983
6478.66,0.52793
6455.51,0.53099
6432.37,0.53274
6409.22,0.53263
6386.08,0.53576
6362.93,0.54448
6339.79,0.53864
6316.64,0.54737
6293.5,0.55498
6270.35,0.55305
6247.21,0.55649
6224.06,0.56774
6200.92,0.57032
6177.77,0.55590
6154.63,0.55482
6131.48,0.56152
6108.34,0.56115
6085.19,0.55445
6062.05,0.52865
6038.9,0.48998
6015.76,0.44555
5992.61,0.41230
5969.47,0.40202
5946.32,0.39539
5923.18,0.39078
5900.03,0.38822
5876.89,0.38550
5853.74,0.38635
5830.6,0.37670
5807.45,0.36889
5784.31,0.37106
5761.16,0.38382
5738.02,0.40105
5714.87,0.41232
5691.73,0.42440
5668.58,0.42835
5645.44,0.43564
5622.29,0.44321
5599.15,0.44804
5576,0.45244
5552.86,0.45641
5529.71,0.46209
5506.57,0.46971
5483.42,0.47100
5460.28,0.47639
5437.13,0.48798
5413.99,0.49294
5390.84,0.49836
5367.7,0.49565
5344.55,0.48980
5321.41,0.47255
5298.26,0.43284
5275.12,0.36786
5251.97,0.30398
5228.83,0.27490
5205.68,0.26765
5182.54,0.27417
5159.39,0.28813
5136.25,0.30349
5113.1,0.32190
5089.96,0.34055
5066.81,0.35658
5043.67,0.37144
5020.52,0.37871
4997.38,0.38413
4974.23,0.37612
4951.09,0.35922
4927.94,0.33706
4904.8,0.31664
4881.65,0.30025
4858.51,0.28756
4835.36,0.27559
4812.22,0.26674
4789.07,0.25944
4765.93,0.25606
4742.78,0.24461
4719.64,0.23940
4696.49,0.23031
4673.35,0.21944
4650.2,0.23880
4627.06,0.23688
4603.92,0.26020
4580.77,0.27597
4557.63,0.28017
4534.48,0.28470
4511.34,0.27247
4488.19,0.24460
4465.05,0.19970
4441.9,0.13666
4418.76,0.10821
4395.61,0.10991
4372.47,0.10366
4349.32,0.10045
4326.18,0.10322
4303.03,0.10900
4279.89,0.10912
4256.74,0.11251
4233.6,0.11678
4210.45,0.12084
4187.31,0.12244
4164.16,0.12108
4141.02,0.11866
4117.87,0.11827
4094.73,0.10866
4071.58,0.09573
4048.44,0.09207
4025.29,0.09452
4002.15,0.09641
3979,0.10080
3955.86,0.11078
3932.71,0.11772
3909.57,0.12598
3886.42,0.13002
3863.28,0.13732
3840.13,0.14592
3816.99,0.14722
3793.84,0.14881
3770.7,0.14520
3747.55,0.14060
3724.41,0.12830
3701.26,0.10545
3678.12,0.06668
3654.97,0.05581
3631.83,0.05393
3608.68,0.05342
3585.54,0.05307
3562.39,0.05267
3539.25,0.05233
3516.1,0.05249
3492.96,0.05241
3469.81,0.05228
3446.67,0.05322
3423.52,0.05296
3400.38,0.05345
3377.23,0.05337
3354.09,0.05291
3330.94,0.05318
3307.8,0.05387
3284.65,0.05388
3261.51,0.05439
3238.36,0.05364
3215.22,0.05420
3192.07,0.05402
3168.93,0.05385
3145.78,0.05424
3122.64,0.05393
3099.49,0.05415
3076.35,0.05343
3053.2,0.05392
3030.06,0.05267
3006.91,0.05205
2983.77,0.05092
2960.62,0.05134
2937.48,0.05366
2914.33,0.05873
2891.19,0.05588
2868.04,0.05559
2844.9,0.05957
2821.75,0.05700
2798.61,0.05622
2775.46,0.05627
2752.32,0.05631
2729.17,0.05634
2706.03,0.05693
2682.88,0.05815
2659.74,0.05906
2636.59,0.05966
2613.45,0.06022
2590.3,0.06034
2567.16,0.06072
2544.02,0.06046
2520.87,0.06236
2497.73,0.06330
2474.58,0.06448
2451.44,0.06642
2428.29,0.06633
2405.15,0.06778
2382,0.06878
2358.86,0.06881
2335.71,0.06831
2312.57,0.07013
2289.42,0.07231
2266.28,0.07400
2243.13,0.07443
2219.99,0.07488
2196.84,0.07419
2173.7,0.07165
2150.55,0.06789
2127.41,0.06418
2104.26,0.06248
2081.12,0.06092
2057.97,0.06127
2034.83,0.06165
2011.68,0.06047
1988.54,0.05957
1965.39,0.05911
1942.25,0.05966
1919.1,0.06041
1895.96,0.05768
1872.81,0.05596
1849.67,0.05424
1826.52,0.05067
1803.38,0.04650
1780.23,0.04348
1757.09,0.03682
1733.94,0.04955
1710.8,0.06785
1687.65,0.05979
1664.51,0.05746
1641.36,0.05632
1618.22,0.05529
1595.07,0.05543
1571.93,0.05410
1548.78,0.05294
1525.64,0.05118
1502.49,0.05206
1479.35,0.04763
1456.2,0.04907
1433.06,0.05041
1409.91,0.04868
1386.77,0.04897
1363.62,0.04848
1340.48,0.04690
1317.33,0.04410
1294.19,0.04285
1271.04,0.04229
1247.9,0.04586
1224.75,0.04775
1201.61,0.04824
1178.46,0.05448
1155.32,0.06580
1132.17,0.06547
1109.03,0.07129
1085.88,0.07702
1062.74,0.08144
1039.59,0.08164
1016.45,0.07927
993.304,0.07402
970.159,0.07511
947.014,0.07356
923.869,0.07194
900.724,0.07124
877.579,0.07020
854.434,0.06731
831.289,0.06591
808.144,0.06849
784.999,0.06808
761.854,0.06826
738.709,0.06803
715.565,0.06987
692.42,0.07001
669.275,0.07308
646.13,0.06739
622.985,0.06518
599.84,0.06625

File: Eucalyptus_Flooring_IS_S_220908_R6.dpt
7497.03,0.78858
7473.89,0.77273
7450.74,0.75427
7427.6,0.73498
7404.45,0.71690
7381.31,0.70380
7358.16,0.68931
7335.02,0.68168
7311.87,0.66411
7288.73,0.65776
7265.58,0.65899
7242.44,0.64574
7219.29,0.63958
7196.15,0.63089
7173,0.61219
7149.86,0.59392
7126.71,0.58134
7103.57,0.55610
7080.42,0.52559
7057.28,0.51195
7034.13,0.48379
7010.99,0.46910
6987.84,0.45439
6964.7,0.44968
6941.55,0.44562
6918.41,0.44342
6895.26,0.44682
6872.12,0.44979
6848.97,0.45281
6825.83,0.45912
6802.68,0.45852
6779.54,0.46502
6756.39,0.46863
6733.25,0.47571
6710.1,0.48288
6686.96,0.48802
6663.82,0.49556
6640.67,0.50344
6617.53,0.50937
6594.38,0.51398
6571.24,0.51796
6548.09,0.52179
6524.95,0.52511
6501.8,0.52802
6478.66,0.52760
6455.51,0.52538
6432.37,0.53061
6409.22,0.53372
6386.08,0.53772
6362.93,0.54075
6339.79,0.53839
6316.64,0.54454
6293.5,0.54833
6270.35,0.55204
6247.21,0.55834
6224.06,0.56617
6200.92,0.56550
6177.77,0.55357
6154.63,0.55047
6131.48,0.56023
6108.34,0.55878
6085.19,0.54739
6062.05,0.52179
6038.9,0.48800
6015.76,0.44465
5992.61,0.41086
5969.47,0.39985
5946.32,0.39653
5923.18,0.39378
5900.03,0.38761
5876.89,0.38323
5853.74,0.38508
5830.6,0.37348
5807.45,0.36565
5784.31,0.36945
5761.16,0.38461
5738.02,0.39792
5714.87,0.41313
5691.73,0.42157
5668.58,0.42696
5645.44,0.43425
5622.29,0.44165
5599.15,0.44644
5576,0.44738
5552.86,0.45441
5529.71,0.45947
5506.57,0.46658
5483.42,0.47064
5460.28,0.47762
5437.13,0.48492
5413.99,0.49161
5390.84,0.49627
5367.7,0.49310
5344.55,0.48744
5321.41,0.46943
5298.26,0.43305
5275.12,0.36610
5251.97,0.30289
5228.83,0.27310
5205.68,0.26766
5182.54,0.27497
5159.39,0.28776
5136.25,0.30232
5113.1,0.31976
5089.96,0.33897
5066.81,0.35563
5043.67,0.36866
5020.52,0.37844
4997.38,0.38153
4974.23,0.37402
4951.09,0.35809
4927.94,0.33445
4904.8,0.31504
4881.65,0.29821
4858.51,0.28636
4835.36,0.27508
4812.22,0.26434
4789.07,0.25880
4765.93,0.25453
4742.78,0.24306
4719.64,0.23914
4696.49,0.22975
4673.35,0.21934
4650.2,0.23841
4627.06,0.23551
4603.92,0.25914
4580.77,0.27448
4557.63,0.27795
4534.48,0.28267
4511.34,0.27026
4488.19,0.24298
4465.05,0.19825
4441.9,0.13594
4418.76,0.10823
4395.61,0.10921
4372.47,0.10264
4349.32,0.09911
4326.18,0.10225
4303.03,0.10846
4279.89,0.10972
4256.74,0.11254
4233.6,0.11537
4210.45,0.12030
4187.31,0.12210
4164.16,0.12071
4141.02,0.11913
4117.87,0.11750
4094.73,0.10924
4071.58,0.09543
4048.44,0.09335
4025.29,0.09330
4002.15,0.09634
3979,0.10085
3955.86,0.11023
3932.71,0.11691
3909.57,0.12419
3886.42,0.12996
3863.28,0.13704
3840.13,0.14516
3816.99,0.14764
3793.84,0.14775
3770.7,0.14448
3747.55,0.13977
3724.41,0.12954
3701.26,0.10523
3678.12,0.06638
3654.97,0.05523
3631.83,0.05382
3608.68,0.05382
3585.54,0.05333
3562.39,0.05230
3539.25,0.05282
3516.1,0.05165
3492.96,0.05246
3469.81,0.05284
3446.67,0.05283
3423.52,0.05271
3400.38,0.05323
3377.23,0.05313
3354.09,0.05328
3330.94,0.05303
3307.8,0.05370
3284.65,0.05379
3261.51,0.05401
3238.36,0.05399
3215.22,0.05324
3192.07,0.05395
3168.93,0.05352
3145.78,0.05362
3122.64,0.05399
3099.49,0.05324
3076.35,0.05341
3053.2,0.05271
3030.06,0.05249
3006.91,0.05149
2983.77,0.05053
2960.62,0.05107
2937.48,0.05314
2914.33,0.05852
2891.19,0.05558
2868.04,0.05567
2844.9,0.05935
2821.75,0.05691
2798.61,0.05556
2775.46,0.05616
2752.32,0.05621
2729.17,0.05579
2706.03,0.05733
2682.88,0.05750
2659.74,0.05840
2636.59,0.05970
2613.45,0.06014
2590.3,0.06026
2567.16,0.06095
2544.02,0.06052
2520.87,0.06212
2497.73,0.06325
2474.58,0.06462
2451.44,0.06604
2428.29,0.06580
2405.15,0.06770
2382,0.06833
2358.86,0.06858
2335.71,0.06786
2312.57,0.07047
2289.42,0.07230
2266.28,0.07395
2243.13,0.07453
2219.99,0.07479
2196.84,0.07428
2173.7,0.07129
2150.55,0.06774
2127.41,0.06408
2104.26,0.06218
2081.12,0.06085
2057.97,0.06116
2034.83,0.06116
2011.68,0.06018
1988.54,0.05932
1965.39,0.05862
1942.25,0.05965
1919.1,0.06036
1895.96,0.05744
1872.81,0.05582
1849.67,0.05396
1826.52,0.05027
1803.38,0.04606
1780.23,0.04303
1757.09,0.03628
1733.94,0.04843
1710.8,0.06767
1687.65,0.05986
1664.51,0.05721
1641.36,0.05590
1618.22,0.05469
1595.07,0.05545
1571.93,0.05352
1548.78,0.05265
1525.64,0.05137
1502.49,0.05189
1479.35,0.04771
1456.2,0.04887
1433.06,0.05009
1409.91,0.04822
1386.77,0.04803
1363.62,0.04830
1340.48,0.04639
1317.33,0.04406
1294.19,0.04293
1271.04,0.04241
1247.9,0.04561
1224.75,0.04764
1201.61,0.04757
1178.46,0.05501
1155.32,0.06532
1132.17,0.06521
1109.03,0.07108
1085.88,0.07648
1062.74,0.08170
1039.59,0.08221
1016.45,0.07868
993.304,0.07434
970.159,0.07489
947.014,0.07297
923.869,0.07210
900.724,0.07004
877.579,0.06979
854.434,0.06786
831.289,0.06631
808.144,0.06799
784.999,0.06817
761.854,0.06924
738.709,0.06771
715.565,0.06894
692.42,0.07052
669.275,0.07314
646.13,0.06989
622.985,0.06319
599.84,0.06430

File: Eucalyptus_Flooring_IS_S_220908_R8.dpt
7497.03,0.79324
7473.89,0.78434
7450.74,0.76336
7427.6,0.74998
7404.45,0.71763
7381.31,0.70521
7358.16,0.69090
7335.02,0.68491
7311.87,0.66646
7288.73,0.65816
7265.58,0.65874
7242.44,0.64741
7219.29,0.65106
7196.15,0.63072
7173,0.61718
7149.86,0.60589
7126.71,0.58145
7103.57,0.55539
7080.42,0.52948
7057.28,0.51203
7034.13,0.48663
7010.99,0.46824
6987.84,0.45102
6964.7,0.45293
6941.55,0.44863
6918.41,0.44496
6895.26,0.45430
6872.12,0.44834
6848.97,0.45193
6825.83,0.45672
6802.68,0.46631
6779.54,0.46547
6756.39,0.46703
6733.25,0.47724
6710.1,0.48343
6686.96,0.49093
6663.82,0.49459
6640.67,0.50504
6617.53,0.51014
6594.38,0.51497
6571.24,0.51890
6548.09,0.52580
6524.95,0.52935
6501.8,0.52716
6478.66,0.52932
6455.51,0.53249
6432.37,0.53155
6409.22,0.53742
6386.08,0.53831
6362.93,0.54212
6339.79,0.54658
6316.64,0.54958
6293.5,0.55155
6270.35,0.55713
6247.21,0.56023
6224.06,0.56725
6200.92,0.56666
6177.77,0.55580
6154.63,0.55707
6131.48,0.56194
6108.34,0.56631
6085.19,0.55122
6062.05,0.52723
6038.9,0.49060
6015.76,0.44514
5992.61,0.41388
5969.47,0.40365
5946.32,0.39678
5923.18,0.39590
5900.03,0.38964
5876.89,0.38718
5853.74,0.38556
5830.6,0.37609
5807.45,0.36741
5784.31,0.37223
5761.16,0.38777
5738.02,0.40165
5714.87,0.41577
5691.73,0.42527
5668.58,0.43029
5645.44,0.43638
5622.29,0.44419
5599.15,0.44809
5576,0.45441
5552.86,0.45714
5529.71,0.46141
5506.57,0.46767
5483.42,0.47466
5460.28,0.47972
5437.13,0.48659
5413.99,0.49544
5390.84,0.50037
5367.7,0.49665
5344.55,0.49006
5321.41,0.47268
5298.26,0.43283
5275.12,0.36863
5251.97,0.30704
5228.83,0.27727
5205.68,0.26986
5182.54,0.27565
5159.39,0.28758
5136.25,0.30611
5113.1,0.32346
5089.96,0.34016
5066.81,0.35761
5043.67,0.37079
5020.52,0.38016
4997.38,0.38421
4974.23,0.37729
4951.09,0.36127
4927.94,0.33731
4904.8,0.31741
4881.65,0.29977
4858.51,0.28862
4835.36,0.27636
4812.22,0.26585
4789.07,0.26117
4765.93,0.25572
4742.78,0.24498
4719.64,0.23955
4696.49,0.23149
4673.35,0.22002
4650.2,0.23996
4627.06,0.23746
4603.92,0.26058
4580.77,0.27612
4557.63,0.28061
4534.48,0.28475
4511.34,0.27172
4488.19,0.24560
4465.05,0.20047
4441.9,0.13650
4418.76,0.10827
4395.61,0.11042
4372.47,0.10350
4349.32,0.09948
4326.18,0.10266
4303.03,0.10947
4279.89,0.11025
4256.74,0.11260
4233.6,0.11602
4210.45,0.12113
4187.31,0.12319
4164.16,0.12126
4141.02,0.11936
4117.87,0.11824
4094.73,0.10938
4071.58,0.09622
4048.44,0.09428
4025.29,0.09466
4002.15,0.09639
3979,0.10113
3955.86,0.11066
3932.71,0.11784
3909.57,0.12517
3886.42,0.13013
3863.28,0.13779
3840.13,0.14598
3816.99,0.14829
3793.84,0.14872
3770.7,0.14586
3747.55,0.14086
3724.41,0.12935
3701.26,0.10604
3678.12,0.06667
3654.97,0.05593
3631.83,0.05365
3608.68,0.05360
3585.54,0.05281
3562.39,0.05253
3539.25,0.05276
3516.1,0.05170
3492.96,0.05242
3469.81,0.05290
3446.67,0.05297
3423.52,0.05239
3400.38,0.05400
3377.23,0.05312
3354.09,0.05320
3330.94,0.05350
3307.8,0.05347
3284.65,0.05359
3261.51,0.05396
3238.36,0.05412
3215.22,0.05437
3192.07,0.05400
3168.93,0.05379
3145.78,0.05382
3122.64,0.05324
3099.49,0.05346
3076.35,0.05308
3053.2,0.05277
3030.06,0.05271
3006.91,0.05203
2983.77,0.05070
2960.62,0.05095
2937.48,0.05364
2914.33,0.05860
2891.19,0.05580
2868.04,0.05596
2844.9,0.05910
2821.75,0.05688
2798.61,0.05621
2775.46,0.05612
2752.32,0.05612
2729.17,0.05635
2706.03,0.05690
2682.88,0.05795
2659.74,0.05917
2636.59,0.05970
2613.45,0.06043
2590.3,0.06049
2567.16,0.06094
2544.02,0.06051
2520.87,0.06240
2497.73,0.06259
2474.58,0.06488
2451.44,0.06646
2428.29,0.06577
2405.15,0.06769
2382,0.06852
2358.86,0.06859
2335.71,0.06893
2312.57,0.07067
2289.42,0.07279
2266.28,0.07387
2243.13,0.07515
2219.99,0.07504
2196.84,0.07433
2173.7,0.07167
2150.55,0.06798
2127.41,0.06455
2104.26,0.06279
2081.12,0.06081
2057.97,0.06154
2034.83,0.06160
2011.68,0.06097
1988.54,0.05959
1965.39,0.05935
1942.25,0.05992
1919.1,0.06060
1895.96,0.05762
1872.81,0.05590
1849.67,0.05385
1826.52,0.05071
1803.38,0.04636
1780.23,0.04368
1757.09,0.03615
1733.94,0.04900
1710.8,0.06776
1687.65,0.05976
1664.51,0.05741
1641.36,0.05643
1618.22,0.05516
1595.07,0.05524
1571.93,0.05418
1548.78,0.05299
1525.64,0.05119
1502.49,0.05231
1479.35,0.04752
1456.2,0.04867
1433.06,0.05043
1409.91,0.04820
1386.77,0.04841
1363.62,0.04851
1340.48,0.04674
1317.33,0.04402
1294.19,0.04312
1271.04,0.04207
1247.9,0.04591
1224.75,0.04798
1201.61,0.04800
1178.46,0.05487
1155.32,0.06561
1132.17,0.06450
1109.03,0.07081
1085.88,0.07732
1062.74,0.08180
1039.59,0.08194
1016.45,0.07944
993.304,0.07454
970.159,0.07457
947.014,0.07374
923.869,0.07177
900.724,0.07108
877.579,0.07054
854.434,0.06694
831.289,0.06613
808.144,0.06756
784.999,0.06886
761.854,0.06830
738.709,0.06694
715.565,0.06905
692.42,0.06896
669.275,0.07471
646.13,0.06910
622.985,0.06425
599.84,0.06100