Folder: fsri_materials_database/01_Data/Face_Shield/Cone

Note: README.md
# Materials and Products Database
### Repository of materials and products properties and fire test data to improve fire modeling and fire investigation.

This project was supported in part by Award No. 2019-DU-BX-0018, awarded by the National Institute of Justice, Office of Justice Programs, U.S. Department of Justice. The opinions, findings, and conclusions or recommendations expressed in this publication / program / exhibition are those of the author(s) and do not necessarily reflect those of the Department of Justice.

***
***

__Cite this database:__ "McKinnon, M., Weinschenk, C., Dow, N., DiDomizio, M., and Madrzykowski, D. Materials and Products Database (Version 1.0.0), Fire Safety Research Institute, UL Research Institutes. Columbia, MD 21045, 2023."

__Cite the Technical Reference Guide:__ "McKinnon, M., Weinschenk, C., and Madrzykowski, D. Materials and Products Database - Technical Reference Guide, Fire Safety Research Institute, UL Research Institutes. Columbia, MD 21045, 2023."

__Cite the User Guide:__ "McKinnon, M., and Weinschenk, C. Materials and Products Database - User Guide, Fire Safety Research Institute, UL Research Institutes. Columbia, MD 21045, 2023."

***
***

## Database Structure

## 01_Data/
Raw data generated from each apparatus are included here in plain-text format. The data is organized first by material, next by the short name of test apparatus used, and where applicable additional filtering by test settings.

### Test Apparatus and Data File Structure
- __Cone Calorimeter__ (Cone)
    + Data file structure includes the material, the short name for the apparatus, heat flux setting and scan/scalar, date of test, and replicate number. Scan is for the raw output data and scalar is for the initial conditions and high-level test parameters. 
        * Example: __MDF_Cone_HF25scalar_210323_R1__ stands for the first replicate of scalar data generated from a medium density fiber board test in cone calorimeter exposed to 25 kW/m<sup>2</sup> on March 23, 2021.
    + A _Cone_Notes.csv_ is generated for each material from the __plot_Cone_data.py__ script. For materials whose experiments deviated from typical behavior relevant pictures are included in the respective material directory.
- __Fourier Transform Infrared Spectrometer__ (FTIR)
    + The FTIR directory contains subdirectories for the Attenuated Total Reflectance method (ATR) and the Integrating Sphere (IS)
    + Data file structure for the ATR experiment files includes the material, the abbreviated name for the apparatus, date of test, and replicate number. 
        * Example: __MDF_ATR_210323_R5__ stands for the fifth replicate of data collected with the ATR accessory conducted on June 8, 2021.
    + Data file structure for the IS experiment files includes the material, the abbreviated name for the apparatus, the measurand, whether the test is a sample measurement or standard reference, date of test, and replicate number.
        * Example: __OSB_IS_REFLECT_MEAS_2

File: Face_Shield_HRRPUA_50.csv
Time after Ignition,Face_Shield_R1,Mean,Std. Dev.
0.0,-0.2,-0.2,
0.25,0.2,0.2,
0.5,0.7,0.7,
0.75,1.1,1.1,
1.0,1.4,1.4,
1.25,1.8,1.8,
1.5,2.2,2.2,
1.75,2.5,2.5,
2.0,2.9,2.9,
2.25,3.2,3.2,
2.5,3.4,3.4,
2.75,3.7,3.7,
3.0,4.0,4.0,
3.25,4.3,4.3,
3.5,4.6,4.6,
3.75,4.8,4.8,
4.0,5.1,5.1,
4.25,5.5,5.5,
4.5,5.7,5.7,
4.75,6.0,6.0,
5.0,6.2,6.2,
5.25,6.5,6.5,
5.5,6.6,6.6,
5.75,6.7,6.7,
6.0,7.0,7.0,
6.25,7.9,7.9,
6.5,8.8,8.8,
6.75,9.6,9.6,
7.0,10.3,10.3,
7.25,11.0,11.0,
7.5,11.8,11.8,
7.75,12.4,12.4,
8.0,12.9,12.9,
8.25,13.5,13.5,
8.5,14.0,14.0,
8.75,14.5,14.5,
9.0,14.6,14.6,
9.25,15.0,15.0,
9.5,15.7,15.7,
9.75,16.2,16.2,
10.0,16.5,16.5,
10.25,16.8,16.8,
10.5,17.3,17.3,
10.75,17.6,17.6,
11.0,17.8,17.8,
11.25,18.2,18.2,
11.5,18.2,18.2,
11.75,18.7,18.7,
12.0,19.0,19.0,
12.25,19.2,19.2,
12.5,19.0,19.0,
12.75,19.5,19.5,
13.0,18.8,18.8,
13.25,18.6,18.6,
13.5,18.5,18.5,
13.75,18.2,18.2,
14.0,17.9,17.9,
14.25,16.8,16.8,
14.5,16.4,16.4,
14.75,16.1,16.1,
15.0,15.0,15.0,
15.25,14.3,14.3,
15.5,13.5,13.5,
15.75,13.0,13.0,
16.0,12.4,12.4,
16.25,11.5,11.5,
16.5,11.6,11.6,
16.75,10.9,10.9,
17.0,10.2,10.2,
17.25,9.6,9.6,
17.5,9.1,9.1,
17.75,8.4,8.4,
18.0,7.9,7.9,
18.25,7.6,7.6,
18.5,7.0,7.0,
18.75,6.7,6.7,
19.0,6.4,6.4,
19.25,6.1,6.1,
19.5,5.5,5.5,
19.75,5.1,5.1,
20.0,4.7,4.7,
20.25,4.4,4.4,
20.5,4.0,4.0,
20.75,3.7,3.7,
21.0,3.4,3.4,
21.25,3.1,3.1,
21.5,2.9,2.9,
21.75,2.7,2.7,
22.0,2.5,2.5,
22.25,2.1,2.1,
22.5,1.8,1.8,
22.75,1.4,1.4,
23.0,1.1,1.1,
23.25,0.9,0.9,
23.5,0.6,0.6,
23.75,0.4,0.4,
24.0,0.1,0.1,
24.25,-0.2,-0.2,
24.5,-0.5,-0.5,
24.75,-0.7,-0.7,
25.0,-0.9,-0.9,
25.25,-1.1,-1.1,
25.5,-1.1,-1.1,
25.75,-1.3,-1.3,
26.0,-1.5,-1.5,
26.25,-1.8,-1.8,
26.5,-2.0,-2.0,
26.75,-2.2,-2.2,
27.0,-2.4,-2.4,
27.25,-2.6,-2.6,
27.5,-2.7,-2.7,
27.75,-2.8,-2.8,
28.0,-2.9,-2.9,
28.25,-3.0,-3.0,
28.5,-3.1,-3.1,
28.75,-3.2,-3.2,

File: Face_Shield_HRRPUA_75.csv
Time after Ignition,Face_Shield_R1,Mean,Std. Dev.
0.0,9.1,9.1,
0.25,9.1,9.1,
0.5,9.4,9.4,
0.75,9.6,9.6,
1.0,10.1,10.1,
1.25,10.2,10.2,
1.5,10.5,10.5,
1.75,10.7,10.7,
2.0,11.1,11.1,
2.25,11.1,11.1,
2.5,11.6,11.6,
2.75,12.0,12.0,
3.0,12.5,12.5,
3.25,12.7,12.7,
3.5,13.9,13.9,
3.75,15.1,15.1,
4.0,15.9,15.9,
4.25,17.3,17.3,
4.5,17.9,17.9,
4.75,21.3,21.3,
5.0,24.3,24.3,
5.25,27.1,27.1,
5.5,29.6,29.6,
5.75,33.4,33.4,
6.0,36.7,36.7,
6.25,40.7,40.7,
6.5,43.3,43.3,
6.75,46.9,46.9,
7.0,50.7,50.7,
7.25,53.3,53.3,
7.5,54.0,54.0,
7.75,56.7,56.7,
8.0,65.1,65.1,
8.25,65.2,65.2,
8.5,67.1,67.1,
8.75,69.7,69.7,
9.0,72.9,72.9,
9.25,73.6,73.6,
9.5,78.3,78.3,
9.75,80.3,80.3,
10.0,79.9,79.9,
10.25,82.7,82.7,
10.5,83.0,83.0,
10.75,85.2,85.2,
11.0,84.4,84.4,
11.25,85.7,85.7,
11.5,85.4,85.4,
11.75,86.8,86.8,
12.0,88.7,88.7,
12.25,90.1,90.1,
12.5,88.9,88.9,
12.75,85.1,85.1,
13.0,80.9,80.9,

File: Face_Shield_HRRPUA_100.csv
Time after Ignition,Face_Shield_R1,Mean,Std. Dev.
0.0,42.1,42.1,
0.25,47.0,47.0,
0.5,51.8,51.8,
0.75,57.2,57.2,
1.0,60.9,60.9,
1.25,67.8,67.8,
1.5,75.5,75.5,
1.75,80.5,80.5,
2.0,87.7,87.7,
2.25,95.6,95.6,
2.5,102.4,102.4,
2.75,111.7,111.7,
3.0,114.7,114.7,
3.25,127.2,127.2,
3.5,139.0,139.0,
3.75,143.8,143.8,
4.0,152.8,152.8,
4.25,161.0,161.0,
4.5,168.6,168.6,
4.75,178.3,178.3,
5.0,183.4,183.4,
5.25,191.6,191.6,
5.5,195.7,195.7,
5.75,207.1,207.1,
6.0,217.2,217.2,
6.25,218.2,218.2,
6.5,224.5,224.5,
6.75,226.1,226.1,
7.0,235.5,235.5,
7.25,238.2,238.2,
7.5,243.8,243.8,
7.75,245.1,245.1,
8.0,249.5,249.5,
8.25,251.1,251.1,
8.5,256.1,256.1,
8.75,257.2,257.2,
9.0,259.7,259.7,
9.25,257.9,257.9,
9.5,262.5,262.5,
9.75,264.6,264.6,
10.0,263.2,263.2,
10.25,259.9,259.9,
10.5,255.9,255.9,
10.75,250.5,250.5,
11.0,241.3,241.3,
11.25,243.3,243.3,
11.5,242.1,242.1,
11.75,241.7,241.7,
12.0,235.1,235.1,
12.25,223.3,223.3,
12.5,217.8,217.8,
12.75,212.2,212.2,
13.0,209.4,209.4,
13.25,200.3,200.3,
13.5,197.4,197.4,
13.75,193.1,193.1,
14.0,185.0,185.0,
14.25,183.0,183.0,
14.5,179.1,179.1,
14.75,173.1,173.1,
15.0,163.9,163.9,
15.25,158.8,158.8,
15.5,156.2,156.2,
15.75,146.4,146.4,
16.0,141.5,141.5,
16.25,133.6,133.6,
16.5,132.1,132.1,
16.75,126.2,126.2,
17.0,121.2,121.2,
17.25,111.5,111.5,
17.5,107.9,107.9,
17.75,102.1,102.1,
18.0,95.5,95.5,
18.25,91.2,91.2,
18.5,84.9,84.9,
18.75,80.4,80.4,
19.0,76.0,76.0,
19.25,71.3,71.3,
19.5,67.1,67.1,
19.75,65.7,65.7,
20.0,61.8,61.8,
20.25,58.4,58.4,
20.5,54.7,54.7,
20.75,51.5,51.5,
21.0,49.1,49.1,
21.25,47.0,47.0,
21.5,44.0,44.0,
21.75,42.3,42.3,
22.0,39.9,39.9,
22.25,38.1,38.1,
22.5,35.9,35.9,
22.75,33.9,33.9,
23.0,32.3,32.3,
23.25,30.7,30.7,
23.5,28.7,28.7,
23.75,27.7,27.7,
24.0,25.9,25.9,
24.25,24.4,24.4,
24.5,23.3,23.3,
24.75,22.1,22.1,
25.0,20.7,20.7,
25.25,20.0,20.0,
25.5,19.3,19.3,
25.75,18.1,18.1,
26.0,17.5,17.5,
26.25,16.8,16.8,
26.5,16.3,16.3,
26.75,15.5,15.5,
27.0,14.9,14.9,
27.25,14.7,14.7,
27.5,13.9,13.9,
27.75,13.3,13.3,
28.0,13.0,13.0,
28.25,12.4,12.4,
28.5,11.7,11.7,
28.75,11.2,11.2,
29.0,10.7,10.7,
29.25,10.4,10.4,
29.5,9.9,9.9,
29.75,9.4,9.4,
30.0,9.1,9.1,
30.25,8.6,8.6,
30.5,8.2,8.2,
30.75,7.9,7.9,
31.0,7.8,7.8,
31.25,7.5,7.5,
31.5,7.3,7.3,
31.75,6.9,6.9,
32.0,6.7,6.7,
32.25,6.3,6.3,
32.5,6.2,6.2,
32.75,5.8,5.8,
33.0,5.6,5.6,
33.25,5.3,5.3,
33.5,5.0,5.0,
33.75,4.9,4.9,
34.0,4.6,4.6,
34.25,4.5,4.5,
34.5,4.3,4.3,
34.75,4.2,4.2,
35.0,4.0,4.0,
35.25,3.9,3.9,
35.5,3.6,3.6,
35.75,3.4,3.4,
36.0,3.2,3.2,
36.25,3.0,3.0,
36.5,2.8,2.8,
36.75,2.7,2.7,
37.0,2.6,2.6,
37.25,2.4,2.4,
37.5,2.2,2.2,
37.75,2.0,2.0,
38.0,1.8,1.8,
38.25,1.6,1.6,
38.5,1.5,1.5,
38.75,1.3,1.3,
39.0,1.2,1.2,
39.25,1.1,1.1,
39.5,1.0,1.0,
39.75,0.9,0.9,
40.0,0.8,0.8,
40.25,0.8,0.8,
40.5,0.7,0.7,
40.75,0.6,0.6,
41.0,0.6,0.6,
41.25,0.4,0.4,
41.5,0.3,0.3,
41.75,0.1,0.1,
42.0,0.0,0.0,
42.25,-0.1,-0.1,
42.5,-0.2,-0.2,
42.75,-0.3,-0.3,
43.0,-0.4,-0.4,
43.25,-0.4,-0.4,
43.5,-0.5,-0.5,
43.75,-0.6,-0.6,
44.0,-0.6,-0.6,
44.25,-0.7,-0.7,
44.5,-0.7,-0.7,
44.75,-0.7,-0.7,
45.0,-0.8,-0.8,
45.25,-0.8,-0.8,
45.5,-0.8,-0.8,