Folder: fsri_materials_database/01_Data/PEX_Pipe/FTIR/IS (part 2)

File: PEX_Pipe_IS_S_221108_R5.dpt
7497.03,0.71419
7473.89,0.69534
7450.74,0.69437
7427.6,0.70085
7404.45,0.68478
7381.31,0.68538
7358.16,0.67023
7335.02,0.64230
7311.87,0.61808
7288.73,0.57425
7265.58,0.50927
7242.44,0.45949
7219.29,0.38711
7196.15,0.33996
7173,0.25246
7149.86,0.34659
7126.71,0.36123
7103.57,0.34175
7080.42,0.31494
7057.28,0.28896
7034.13,0.30588
7010.99,0.30784
6987.84,0.31940
6964.7,0.32539
6941.55,0.33280
6918.41,0.35689
6895.26,0.36993
6872.12,0.38281
6848.97,0.39565
6825.83,0.41417
6802.68,0.43540
6779.54,0.46269
6756.39,0.47713
6733.25,0.48950
6710.1,0.50068
6686.96,0.50725
6663.82,0.51332
6640.67,0.52218
6617.53,0.52566
6594.38,0.52423
6571.24,0.52167
6548.09,0.51481
6524.95,0.50533
6501.8,0.49167
6478.66,0.47824
6455.51,0.53021
6432.37,0.54748
6409.22,0.54964
6386.08,0.56558
6362.93,0.57338
6339.79,0.56994
6316.64,0.57861
6293.5,0.57656
6270.35,0.57682
6247.21,0.58322
6224.06,0.57985
6200.92,0.57446
6177.77,0.57233
6154.63,0.56707
6131.48,0.56207
6108.34,0.55449
6085.19,0.54200
6062.05,0.53142
6038.9,0.51246
6015.76,0.48802
5992.61,0.45292
5969.47,0.40586
5946.32,0.36208
5923.18,0.31748
5900.03,0.27842
5876.89,0.22437
5853.74,0.14636
5830.6,0.11082
5807.45,0.09379
5784.31,0.07464
5761.16,0.08314
5738.02,0.10900
5714.87,0.13149
5691.73,0.11383
5668.58,0.09377
5645.44,0.12193
5622.29,0.13577
5599.15,0.14859
5576,0.14472
5552.86,0.13566
5529.71,0.13668
5506.57,0.13354
5483.42,0.13363
5460.28,0.14130
5437.13,0.14477
5413.99,0.15005
5390.84,0.16643
5367.7,0.17224
5344.55,0.18553
5321.41,0.19020
5298.26,0.18369
5275.12,0.18404
5251.97,0.18063
5228.83,0.17553
5205.68,0.17497
5182.54,0.17271
5159.39,0.17326
5136.25,0.17773
5113.1,0.17576
5089.96,0.17550
5066.81,0.17736
5043.67,0.18166
5020.52,0.17893
4997.38,0.17151
4974.23,0.16030
4951.09,0.16834
4927.94,0.17211
4904.8,0.17045
4881.65,0.16415
4858.51,0.16316
4835.36,0.17380
4812.22,0.18315
4789.07,0.18733
4765.93,0.19632
4742.78,0.20346
4719.64,0.20836
4696.49,0.21256
4673.35,0.20147
4650.2,0.20863
4627.06,0.20910
4603.92,0.20461
4580.77,0.19942
4557.63,0.18806
4534.48,0.17230
4511.34,0.15686
4488.19,0.14077
4465.05,0.12363
4441.9,0.10516
4418.76,0.08919
4395.61,0.07164
4372.47,0.06315
4349.32,0.05784
4326.18,0.05347
4303.03,0.05972
4279.89,0.05828
4256.74,0.05486
4233.6,0.05732
4210.45,0.05665
4187.31,0.05538
4164.16,0.05516
4141.02,0.05476
4117.87,0.05534
4094.73,0.05510
4071.58,0.05730
4048.44,0.05759
4025.29,0.05830
4002.15,0.06173
3979,0.06094
3955.86,0.06138
3932.71,0.05990
3909.57,0.05930
3886.42,0.05936
3863.28,0.06077
3840.13,0.06122
3816.99,0.06006
3793.84,0.06233
3770.7,0.06289
3747.55,0.06414
3724.41,0.06338
3701.26,0.05954
3678.12,0.05977
3654.97,0.05826
3631.83,0.05851
3608.68,0.05548
3585.54,0.06075
3562.39,0.06439
3539.25,0.06657
3516.1,0.06618
3492.96,0.06469
3469.81,0.06293
3446.67,0.06077
3423.52,0.06094
3400.38,0.05956
3377.23,0.05807
3354.09,0.05922
3330.94,0.06141
3307.8,0.06255
3284.65,0.06246
3261.51,0.06226
3238.36,0.06259
3215.22,0.06131
3192.07,0.05943
3168.93,0.05905
3145.78,0.05678
3122.64,0.05605
3099.49,0.05180
3076.35,0.05007
3053.2,0.04969
3030.06,0.04818
3006.91,0.04741
2983.77,0.04576
2960.62,0.04195
2937.48,0.03457
2914.33,0.08092
2891.19,0.05917
2868.04,0.05190
2844.9,0.07164
2821.75,0.05973
2798.61,0.05700
2775.46,0.05611
2752.32,0.05578
2729.17,0.05527
2706.03,0.05507
2682.88,0.05448
2659.74,0.05429
2636.59,0.05395
2613.45,0.05415
2590.3,0.05456
2567.16,0.05531
2544.02,0.05473
2520.87,0.05458
2497.73,0.05572
2474.58,0.05625
2451.44,0.06027
2428.29,0.05840
2405.15,0.05757
2382,0.05844
2358.86,0.05556
2335.71,0.05423
2312.57,0.05436
2289.42,0.05569
2266.28,0.05791
2243.13,0.05800
2219.99,0.06436
2196.84,0.06619
2173.7,0.06499
2150.55,0.05934
2127.41,0.07002
2104.26,0.07349
2081.12,0.06990
2057.97,0.06268
2034.83,0.05549
2011.68,0.05536
1988.54,0.07336
1965.39,0.06978
1942.25,0.06817
1919.1,0.06254
1895.96,0.05459
1872.81,0.08119
1849.67,0.09388
1826.52,0.07851
1803.38,0.07294
1780.23,0.07605
1757.09,0.06519
1733.94,0.05859
1710.8,0.06099
1687.65,0.06167
1664.51,0.05822
1641.36,0.05443
1618.22,0.05439
1595.07,0.05342
1571.93,0.05342
1548.78,0.05249
1525.64,0.05218
1502.49,0.05132
1479.35,0.04880
1456.2,0.05557
1433.06,0.05452
1409.91,0.05377
1386.77,0.05335
1363.62,0.05371
1340.48,0.05341
1317.33,0.05322
1294.19,0.05324
1271.04,0.05385
1247.9,0.05370
1224.75,0.05345
1201.61,0.05323
1178.46,0.05280
1155.32,0.05345
1132.17,0.05270
1109.03,0.05291
1085.88,0.05321
1062.74,0.05299
1039.59,0.05379
1016.45,0.05406
993.304,0.05375
970.159,0.05415
947.014,0.05418
923.869,0.05336
900.724,0.05246
877.579,0.05310
854.434,0.05302
831.289,0.05305
808.144,0.05249
784.999,0.05252
761.854,0.05130
738.709,0.04974
715.565,0.05903
692.42,0.05402
669.275,0.05366
646.13,0.05390
622.985,0.05260
599.84,0.05029

File: PEX_Pipe_IS_S_221108_R6.dpt
7497.03,0.69227
7473.89,0.70382
7450.74,0.70170
7427.6,0.69240
7404.45,0.67777
7381.31,0.67117
7358.16,0.65895
7335.02,0.64277
7311.87,0.61887
7288.73,0.56094
7265.58,0.51036
7242.44,0.45643
7219.29,0.39399
7196.15,0.32740
7173,0.25694
7149.86,0.35082
7126.71,0.36231
7103.57,0.34146
7080.42,0.32686
7057.28,0.29216
7034.13,0.30606
7010.99,0.30956
6987.84,0.31851
6964.7,0.31889
6941.55,0.32408
6918.41,0.35066
6895.26,0.35812
6872.12,0.38607
6848.97,0.39024
6825.83,0.40794
6802.68,0.43634
6779.54,0.46062
6756.39,0.47132
6733.25,0.48474
6710.1,0.50092
6686.96,0.50379
6663.82,0.51387
6640.67,0.52352
6617.53,0.52378
6594.38,0.52297
6571.24,0.51521
6548.09,0.51404
6524.95,0.50509
6501.8,0.48769
6478.66,0.47313
6455.51,0.52299
6432.37,0.54697
6409.22,0.55088
6386.08,0.56084
6362.93,0.56583
6339.79,0.57492
6316.64,0.57694
6293.5,0.57896
6270.35,0.57829
6247.21,0.57641
6224.06,0.57698
6200.92,0.57325
6177.77,0.57147
6154.63,0.56319
6131.48,0.55716
6108.34,0.54906
6085.19,0.53741
6062.05,0.52623
6038.9,0.50922
6015.76,0.48542
5992.61,0.45178
5969.47,0.40474
5946.32,0.36042
5923.18,0.31641
5900.03,0.27712
5876.89,0.22168
5853.74,0.14500
5830.6,0.11150
5807.45,0.09323
5784.31,0.07711
5761.16,0.08194
5738.02,0.10856
5714.87,0.13514
5691.73,0.11349
5668.58,0.09160
5645.44,0.11799
5622.29,0.13438
5599.15,0.14719
5576,0.14319
5552.86,0.13528
5529.71,0.13398
5506.57,0.13381
5483.42,0.13284
5460.28,0.14150
5437.13,0.14460
5413.99,0.15136
5390.84,0.16517
5367.7,0.16961
5344.55,0.18530
5321.41,0.18761
5298.26,0.18338
5275.12,0.18218
5251.97,0.18040
5228.83,0.17593
5205.68,0.17400
5182.54,0.17289
5159.39,0.17349
5136.25,0.17727
5113.1,0.17612
5089.96,0.17638
5066.81,0.17732
5043.67,0.18132
5020.52,0.17714
4997.38,0.17146
4974.23,0.15996
4951.09,0.16496
4927.94,0.17151
4904.8,0.16905
4881.65,0.16429
4858.51,0.16342
4835.36,0.17346
4812.22,0.18178
4789.07,0.18655
4765.93,0.19481
4742.78,0.20170
4719.64,0.20729
4696.49,0.21052
4673.35,0.20000
4650.2,0.20799
4627.06,0.20847
4603.92,0.20442
4580.77,0.19769
4557.63,0.18684
4534.48,0.17117
4511.34,0.15669
4488.19,0.14023
4465.05,0.12197
4441.9,0.10457
4418.76,0.08841
4395.61,0.07138
4372.47,0.06304
4349.32,0.05843
4326.18,0.05343
4303.03,0.05990
4279.89,0.05889
4256.74,0.05435
4233.6,0.05680
4210.45,0.05639
4187.31,0.05551
4164.16,0.05477
4141.02,0.05498
4117.87,0.05563
4094.73,0.05479
4071.58,0.05758
4048.44,0.05792
4025.29,0.05828
4002.15,0.06117
3979,0.06006
3955.86,0.06128
3932.71,0.05999
3909.57,0.05930
3886.42,0.05994
3863.28,0.06055
3840.13,0.06096
3816.99,0.05968
3793.84,0.06201
3770.7,0.06293
3747.55,0.06347
3724.41,0.06248
3701.26,0.05956
3678.12,0.05895
3654.97,0.05800
3631.83,0.05845
3608.68,0.05418
3585.54,0.06133
3562.39,0.06421
3539.25,0.06553
3516.1,0.06538
3492.96,0.06373
3469.81,0.06316
3446.67,0.06051
3423.52,0.05964
3400.38,0.05960
3377.23,0.05847
3354.09,0.06028
3330.94,0.06096
3307.8,0.06185
3284.65,0.06271
3261.51,0.06245
3238.36,0.06223
3215.22,0.06103
3192.07,0.06014
3168.93,0.05852
3145.78,0.05753
3122.64,0.05476
3099.49,0.05194
3076.35,0.05016
3053.2,0.04981
3030.06,0.04852
3006.91,0.04724
2983.77,0.04534
2960.62,0.04238
2937.48,0.03422
2914.33,0.08001
2891.19,0.05814
2868.04,0.05175
2844.9,0.07130
2821.75,0.05915
2798.61,0.05736
2775.46,0.05633
2752.32,0.05522
2729.17,0.05528
2706.03,0.05436
2682.88,0.05436
2659.74,0.05405
2636.59,0.05379
2613.45,0.05382
2590.3,0.05401
2567.16,0.05448
2544.02,0.05471
2520.87,0.05473
2497.73,0.05538
2474.58,0.05582
2451.44,0.05963
2428.29,0.05796
2405.15,0.05715
2382,0.05786
2358.86,0.05505
2335.71,0.05373
2312.57,0.05439
2289.42,0.05495
2266.28,0.05784
2243.13,0.05735
2219.99,0.06402
2196.84,0.06582
2173.7,0.06471
2150.55,0.05937
2127.41,0.06940
2104.26,0.07326
2081.12,0.06983
2057.97,0.06248
2034.83,0.05529
2011.68,0.05533
1988.54,0.07268
1965.39,0.06988
1942.25,0.06811
1919.1,0.06213
1895.96,0.05436
1872.81,0.08025
1849.67,0.09351
1826.52,0.07796
1803.38,0.07293
1780.23,0.07625
1757.09,0.06451
1733.94,0.05870
1710.8,0.06146
1687.65,0.06123
1664.51,0.05817
1641.36,0.05424
1618.22,0.05387
1595.07,0.05365
1571.93,0.05298
1548.78,0.05267
1525.64,0.05199
1502.49,0.05108
1479.35,0.04801
1456.2,0.05597
1433.06,0.05425
1409.91,0.05384
1386.77,0.05339
1363.62,0.05304
1340.48,0.05318
1317.33,0.05329
1294.19,0.05321
1271.04,0.05299
1247.9,0.05364
1224.75,0.05311
1201.61,0.05295
1178.46,0.05268
1155.32,0.05249
1132.17,0.05214
1109.03,0.05254
1085.88,0.05315
1062.74,0.05266
1039.59,0.05377
1016.45,0.05380
993.304,0.05366
970.159,0.05310
947.014,0.05391
923.869,0.05327
900.724,0.05351
877.579,0.05252
854.434,0.05281
831.289,0.05223
808.144,0.05263
784.999,0.05268
761.854,0.05199
738.709,0.04928
715.565,0.05923
692.42,0.05454
669.275,0.05303
646.13,0.05244
622.985,0.05235
599.84,0.05301

File: PEX_Pipe_IS_S_221108_R7.dpt
7497.03,1.00132
7473.89,1.00607
7450.74,1.00041
7427.6,0.99681
7404.45,1.00419
7381.31,1.00028
7358.16,1.00058
7335.02,1.00093
7311.87,0.99159
7288.73,0.99064
7265.58,1.00382
7242.44,0.99378
7219.29,1.01429
7196.15,1.01149
7173,0.99807
7149.86,1.00271
7126.71,0.99115
7103.57,0.99824
7080.42,1.00297
7057.28,1.00654
7034.13,0.99262
7010.99,1.01097
6987.84,1.00496
6964.7,0.99865
6941.55,1.00229
6918.41,0.99676
6895.26,1.00123
6872.12,0.99660
6848.97,0.99939
6825.83,1.00703
6802.68,0.99474
6779.54,0.99920
6756.39,1.00202
6733.25,0.99672
6710.1,1.00013
6686.96,0.99961
6663.82,1.00087
6640.67,0.99652
6617.53,0.99827
6594.38,0.99727
6571.24,1.00001
6548.09,0.99603
6524.95,0.99759
6501.8,1.00219
6478.66,1.00068
6455.51,0.99774
6432.37,0.99887
6409.22,0.99990
6386.08,1.00164
6362.93,1.00189
6339.79,0.99789
6316.64,1.00289
6293.5,1.00154
6270.35,1.00602
6247.21,0.99970
6224.06,0.99833
6200.92,0.99981
6177.77,0.99968
6154.63,0.99804
6131.48,0.99969
6108.34,0.99617
6085.19,1.00363
6062.05,1.00221
6038.9,1.00563
6015.76,1.00059
5992.61,0.99968
5969.47,1.00250
5946.32,1.00008
5923.18,1.00098
5900.03,1.00246
5876.89,0.99945
5853.74,0.99959
5830.6,0.99639
5807.45,0.99690
5784.31,0.99919
5761.16,0.99928
5738.02,1.00240
5714.87,0.99800
5691.73,1.00055
5668.58,1.00267
5645.44,1.00050
5622.29,0.99809
5599.15,0.99972
5576,1.00203
5552.86,1.00086
5529.71,0.99889
5506.57,1.00227
5483.42,1.00049
5460.28,1.00098
5437.13,0.99724
5413.99,1.00061
5390.84,1.00150
5367.7,1.00473
5344.55,1.00074
5321.41,1.00145
5298.26,1.00036
5275.12,1.00105
5251.97,1.00080
5228.83,1.00015
5205.68,0.99979
5182.54,1.00126
5159.39,1.00003
5136.25,0.99937
5113.1,1.00106
5089.96,1.00035
5066.81,1.00166
5043.67,0.99891
5020.52,0.99900
4997.38,1.00030
4974.23,1.00248
4951.09,0.99954
4927.94,0.99813
4904.8,0.99980
4881.65,1.00171
4858.51,0.99938
4835.36,0.99885
4812.22,1.00014
4789.07,1.00120
4765.93,0.99937
4742.78,1.00104
4719.64,1.00101
4696.49,1.00055
4673.35,1.00049
4650.2,1.00067
4627.06,1.00105
4603.92,1.00047
4580.77,1.00035
4557.63,0.99977
4534.48,1.00024
4511.34,1.00064
4488.19,1.00045
4465.05,1.00069
4441.9,1.00070
4418.76,0.99985
4395.61,1.00052
4372.47,1.00050
4349.32,1.00069
4326.18,0.99943
4303.03,0.99979
4279.89,0.99935
4256.74,1.00025
4233.6,1.00020
4210.45,1.00035
4187.31,1.00109
4164.16,1.00123
4141.02,0.99948
4117.87,0.99972
4094.73,0.99982
4071.58,1.00078
4048.44,0.99960
4025.29,0.99944
4002.15,1.00064
3979,0.99959
3955.86,1.00066
3932.71,1.00053
3909.57,0.99977
3886.42,1.00161
3863.28,0.99995
3840.13,0.99967
3816.99,0.99986
3793.84,1.00026
3770.7,1.00069
3747.55,0.99989
3724.41,1.00013
3701.26,1.00061
3678.12,1.00024
3654.97,0.99990
3631.83,1.00066
3608.68,0.99973
3585.54,1.00045
3562.39,1.00071
3539.25,1.00082
3516.1,1.00054
3492.96,0.99970
3469.81,0.99979
3446.67,1.00136
3423.52,0.99980
3400.38,1.00159
3377.23,0.99974
3354.09,1.00022
3330.94,1.00043
3307.8,1.00072
3284.65,0.99923
3261.51,0.99977
3238.36,0.99951
3215.22,1.00003
3192.07,1.00058
3168.93,1.00130
3145.78,1.00062
3122.64,0.99955
3099.49,1.00008
3076.35,0.99983
3053.2,1.00037
3030.06,0.99952
3006.91,1.00008
2983.77,0.99983
2960.62,1.00001
2937.48,0.99985
2914.33,0.99992
2891.19,1.00051
2868.04,0.99973
2844.9,0.99978
2821.75,1.00045
2798.61,1.00053
2775.46,1.00039
2752.32,1.00044
2729.17,0.99969
2706.03,1.00088
2682.88,1.00000
2659.74,0.99969
2636.59,0.99996
2613.45,1.00020
2590.3,1.00040
2567.16,0.99993
2544.02,1.00083
2520.87,1.00075
2497.73,1.00089
2474.58,0.99962
2451.44,1.00015
2428.29,1.00009
2405.15,1.00051
2382,1.00041
2358.86,1.00054
2335.71,1.00068
2312.57,1.00030
2289.42,1.00000
2266.28,1.00002
2243.13,1.00031
2219.99,1.00005
2196.84,1.00007
2173.7,1.00025
2150.55,1.00038
2127.41,0.99968
2104.26,1.00033
2081.12,1.00038
2057.97,1.00025
2034.83,0.99972
2011.68,0.99961
1988.54,1.00017
1965.39,1.00002
1942.25,1.00077
1919.1,1.00016
1895.96,1.00012
1872.81,1.00039
1849.67,0.99984
1826.52,1.00016
1803.38,0.99993
1780.23,1.00048
1757.09,1.00066
1733.94,1.00091
1710.8,1.00019
1687.65,1.00014
1664.51,1.00018
1641.36,1.00012
1618.22,1.00050
1595.07,1.00064
1571.93,1.00023
1548.78,1.00001
1525.64,1.00029
1502.49,1.00050
1479.35,1.00031
1456.2,1.00051
1433.06,0.99979
1409.91,1.00044
1386.77,1.00015
1363.62,0.99987
1340.48,1.00003
1317.33,1.00092
1294.19,0.99991
1271.04,1.00030
1247.9,1.00029
1224.75,1.00043
1201.61,0.99956
1178.46,0.99989
1155.32,1.00032
1132.17,1.00004
1109.03,0.99981
1085.88,1.00082
1062.74,1.00031
1039.59,1.00054
1016.45,1.00059
993.304,1.00037
970.159,1.00003
947.014,0.99971
923.869,1.00072
900.724,1.00078
877.579,1.00038
854.434,0.99965
831.289,1.00020
808.144,1.00010
784.999,0.99933
761.854,1.00057
738.709,0.99919
715.565,0.99972
692.42,1.00162
669.275,1.00027
646.13,0.99929
622.985,1.00121
599.84,1.00296

File: PEX_Pipe_IS_S_221108_R8.dpt
7497.03,0.69855
7473.89,0.69519
7450.74,0.69836
7427.6,0.70087
7404.45,0.68115
7381.31,0.68224
7358.16,0.66904
7335.02,0.63767
7311.87,0.61255
7288.73,0.55931
7265.58,0.51966
7242.44,0.46153
7219.29,0.39787
7196.15,0.33300
7173,0.26642
7149.86,0.34809
7126.71,0.36878
7103.57,0.34697
7080.42,0.32007
7057.28,0.29383
7034.13,0.30807
7010.99,0.30798
6987.84,0.31776
6964.7,0.32105
6941.55,0.33064
6918.41,0.35050
6895.26,0.35963
6872.12,0.38152
6848.97,0.39164
6825.83,0.40384
6802.68,0.43247
6779.54,0.46082
6756.39,0.47472
6733.25,0.48749
6710.1,0.49591
6686.96,0.50742
6663.82,0.51249
6640.67,0.52310
6617.53,0.52047
6594.38,0.52560
6571.24,0.51974
6548.09,0.51472
6524.95,0.50486
6501.8,0.48359
6478.66,0.47379
6455.51,0.52828
6432.37,0.54457
6409.22,0.55769
6386.08,0.56152
6362.93,0.56852
6339.79,0.57447
6316.64,0.57817
6293.5,0.57741
6270.35,0.58249
6247.21,0.58201
6224.06,0.57896
6200.92,0.57967
6177.77,0.57161
6154.63,0.56578
6131.48,0.56170
6108.34,0.55367
6085.19,0.53814
6062.05,0.52960
6038.9,0.51178
6015.76,0.48793
5992.61,0.45302
5969.47,0.40609
5946.32,0.36000
5923.18,0.32037
5900.03,0.27898
5876.89,0.21992
5853.74,0.14643
5830.6,0.11305
5807.45,0.09591
5784.31,0.07747
5761.16,0.08391
5738.02,0.10867
5714.87,0.13473
5691.73,0.11658
5668.58,0.09124
5645.44,0.11833
5622.29,0.13413
5599.15,0.14915
5576,0.14249
5552.86,0.13548
5529.71,0.13820
5506.57,0.13493
5483.42,0.13418
5460.28,0.14140
5437.13,0.14443
5413.99,0.14913
5390.84,0.16418
5367.7,0.17255
5344.55,0.18440
5321.41,0.19017
5298.26,0.18328
5275.12,0.18427
5251.97,0.18227
5228.83,0.17826
5205.68,0.17601
5182.54,0.17287
5159.39,0.17418
5136.25,0.17862
5113.1,0.17679
5089.96,0.17581
5066.81,0.17772
5043.67,0.18157
5020.52,0.17810
4997.38,0.17068
4974.23,0.16040
4951.09,0.16705
4927.94,0.17230
4904.8,0.16954
4881.65,0.16430
4858.51,0.16340
4835.36,0.17477
4812.22,0.18159
4789.07,0.18820
4765.93,0.19452
4742.78,0.20027
4719.64,0.20868
4696.49,0.21162
4673.35,0.20150
4650.2,0.20840
4627.06,0.20965
4603.92,0.20549
4580.77,0.20007
4557.63,0.18655
4534.48,0.17250
4511.34,0.15661
4488.19,0.13991
4465.05,0.12349
4441.9,0.10498
4418.76,0.08903
4395.61,0.07196
4372.47,0.06376
4349.32,0.05754
4326.18,0.05280
4303.03,0.05956
4279.89,0.05919
4256.74,0.05430
4233.6,0.05677
4210.45,0.05594
4187.31,0.05537
4164.16,0.05545
4141.02,0.05537
4117.87,0.05519
4094.73,0.05567
4071.58,0.05693
4048.44,0.05751
4025.29,0.05922
4002.15,0.06174
3979,0.06037
3955.86,0.06181
3932.71,0.06028
3909.57,0.05960
3886.42,0.05983
3863.28,0.06086
3840.13,0.06066
3816.99,0.06006
3793.84,0.06201
3770.7,0.06264
3747.55,0.06355
3724.41,0.06332
3701.26,0.05979
3678.12,0.05945
3654.97,0.05816
3631.83,0.05882
3608.68,0.05552
3585.54,0.06078
3562.39,0.06447
3539.25,0.06634
3516.1,0.06493
3492.96,0.06505
3469.81,0.06239
3446.67,0.06106
3423.52,0.05971
3400.38,0.06046
3377.23,0.05828
3354.09,0.06025
3330.94,0.06124
3307.8,0.06238
3284.65,0.06244
3261.51,0.06223
3238.36,0.06276
3215.22,0.06146
3192.07,0.05994
3168.93,0.05871
3145.78,0.05719
3122.64,0.05568
3099.49,0.05238
3076.35,0.05044
3053.2,0.04951
3030.06,0.04814
3006.91,0.04770
2983.77,0.04508
2960.62,0.04198
2937.48,0.03475
2914.33,0.08102
2891.19,0.05925
2868.04,0.05178
2844.9,0.07190
2821.75,0.05948
2798.61,0.05694
2775.46,0.05611
2752.32,0.05528
2729.17,0.05507
2706.03,0.05494
2682.88,0.05484
2659.74,0.05453
2636.59,0.05429
2613.45,0.05432
2590.3,0.05446
2567.16,0.05445
2544.02,0.05503
2520.87,0.05500
2497.73,0.05541
2474.58,0.05570
2451.44,0.05985
2428.29,0.05766
2405.15,0.05755
2382,0.05814
2358.86,0.05571
2335.71,0.05384
2312.57,0.05418
2289.42,0.05513
2266.28,0.05745
2243.13,0.05777
2219.99,0.06436
2196.84,0.06607
2173.7,0.06503
2150.55,0.05909
2127.41,0.06998
2104.26,0.07377
2081.12,0.07030
2057.97,0.06264
2034.83,0.05575
2011.68,0.05559
1988.54,0.07373
1965.39,0.06985
1942.25,0.06788
1919.1,0.06257
1895.96,0.05454
1872.81,0.08082
1849.67,0.09383
1826.52,0.07836
1803.38,0.07311
1780.23,0.07682
1757.09,0.06536
1733.94,0.05883
1710.8,0.06133
1687.65,0.06153
1664.51,0.05811
1641.36,0.05472
1618.22,0.05406
1595.07,0.05324
1571.93,0.05381
1548.78,0.05239
1525.64,0.05227
1502.49,0.05102
1479.35,0.04817
1456.2,0.05615
1433.06,0.05451
1409.91,0.05424
1386.77,0.05332
1363.62,0.05372
1340.48,0.05360
1317.33,0.05355
1294.19,0.05325
1271.04,0.05328
1247.9,0.05341
1224.75,0.05307
1201.61,0.05288
1178.46,0.05293
1155.32,0.05310
1132.17,0.05268
1109.03,0.05317
1085.88,0.05248
1062.74,0.05340
1039.59,0.05372
1016.45,0.05434
993.304,0.05378
970.159,0.05323
947.014,0.05428
923.869,0.05396
900.724,0.05276
877.579,0.05309
854.434,0.05298
831.289,0.05270
808.144,0.05355
784.999,0.05247
761.854,0.05145
738.709,0.04896
715.565,0.05850
692.42,0.05408
669.275,0.05480
646.13,0.05355
622.985,0.05300
599.84,0.05235