Folder: fsri_materials_database/01_Data/PEX_Pipe/FTIR/IS

Note: README.md
# Materials and Products Database
### Repository of materials and products properties and fire test data to improve fire modeling and fire investigation.

This project was supported in part by Award No. 2019-DU-BX-0018, awarded by the National Institute of Justice, Office of Justice Programs, U.S. Department of Justice. The opinions, findings, and conclusions or recommendations expressed in this publication / program / exhibition are those of the author(s) and do not necessarily reflect those of the Department of Justice.

***
***

__Cite this database:__ "McKinnon, M., Weinschenk, C., Dow, N., DiDomizio, M., and Madrzykowski, D. Materials and Products Database (Version 1.0.0), Fire Safety Research Institute, UL Research Institutes. Columbia, MD 21045, 2023."

__Cite the Technical Reference Guide:__ "McKinnon, M., Weinschenk, C., and Madrzykowski, D. Materials and Products Database - Technical Reference Guide, Fire Safety Research Institute, UL Research Institutes. Columbia, MD 21045, 2023."

__Cite the User Guide:__ "McKinnon, M., and Weinschenk, C. Materials and Products Database - User Guide, Fire Safety Research Institute, UL Research Institutes. Columbia, MD 21045, 2023."

***
***

## Database Structure

## 01_Data/
Raw data generated from each apparatus are included here in plain-text format. The data is organized first by material, next by the short name of test apparatus used, and where applicable additional filtering by test settings.

### Test Apparatus and Data File Structure
- __Cone Calorimeter__ (Cone)
    + Data file structure includes the material, the short name for the apparatus, heat flux setting and scan/scalar, date of test, and replicate number. Scan is for the raw output data and scalar is for the initial conditions and high-level test parameters. 
        * Example: __MDF_Cone_HF25scalar_210323_R1__ stands for the first replicate of scalar data generated from a medium density fiber board test in cone calorimeter exposed to 25 kW/m<sup>2</sup> on March 23, 2021.
    + A _Cone_Notes.csv_ is generated for each material from the __plot_Cone_data.py__ script. For materials whose experiments deviated from typical behavior relevant pictures are included in the respective material directory.
- __Fourier Transform Infrared Spectrometer__ (FTIR)
    + The FTIR directory contains subdirectories for the Attenuated Total Reflectance method (ATR) and the Integrating Sphere (IS)
    + Data file structure for the ATR experiment files includes the material, the abbreviated name for the apparatus, date of test, and replicate number. 
        * Example: __MDF_ATR_210323_R5__ stands for the fifth replicate of data collected with the ATR accessory conducted on June 8, 2021.
    + Data file structure for the IS experiment files includes the material, the abbreviated name for the apparatus, the measurand, whether the test is a sample measurement or standard reference, date of test, and replicate number.
        * Example: __OSB_IS_REFLECT_MEAS_2

File: PEX_Pipe_IS_S_221108_R1.dpt
7497.03,0.69059
7473.89,0.70180
7450.74,0.69339
7427.6,0.68657
7404.45,0.68238
7381.31,0.67286
7358.16,0.66480
7335.02,0.64223
7311.87,0.60449
7288.73,0.55654
7265.58,0.51513
7242.44,0.46407
7219.29,0.39576
7196.15,0.33462
7173,0.25955
7149.86,0.34349
7126.71,0.37330
7103.57,0.34225
7080.42,0.31715
7057.28,0.29410
7034.13,0.30753
7010.99,0.30869
6987.84,0.31457
6964.7,0.31536
6941.55,0.32435
6918.41,0.35130
6895.26,0.36326
6872.12,0.38003
6848.97,0.39340
6825.83,0.40788
6802.68,0.43239
6779.54,0.46192
6756.39,0.47442
6733.25,0.48084
6710.1,0.49733
6686.96,0.50331
6663.82,0.51568
6640.67,0.52203
6617.53,0.52258
6594.38,0.51952
6571.24,0.51684
6548.09,0.50713
6524.95,0.50359
6501.8,0.48584
6478.66,0.46966
6455.51,0.52507
6432.37,0.53917
6409.22,0.55073
6386.08,0.55897
6362.93,0.56649
6339.79,0.57258
6316.64,0.57379
6293.5,0.57291
6270.35,0.57282
6247.21,0.57425
6224.06,0.57505
6200.92,0.57061
6177.77,0.56531
6154.63,0.56259
6131.48,0.55482
6108.34,0.54595
6085.19,0.53193
6062.05,0.52192
6038.9,0.50924
6015.76,0.48134
5992.61,0.44620
5969.47,0.40486
5946.32,0.35954
5923.18,0.31983
5900.03,0.27818
5876.89,0.21984
5853.74,0.14471
5830.6,0.11339
5807.45,0.09363
5784.31,0.07595
5761.16,0.08255
5738.02,0.10759
5714.87,0.13493
5691.73,0.11574
5668.58,0.09273
5645.44,0.11733
5622.29,0.13583
5599.15,0.14560
5576,0.14126
5552.86,0.13361
5529.71,0.13681
5506.57,0.13420
5483.42,0.13249
5460.28,0.13943
5437.13,0.14341
5413.99,0.15061
5390.84,0.16458
5367.7,0.17031
5344.55,0.18402
5321.41,0.18767
5298.26,0.18196
5275.12,0.18220
5251.97,0.17947
5228.83,0.17502
5205.68,0.17376
5182.54,0.17230
5159.39,0.17196
5136.25,0.17752
5113.1,0.17399
5089.96,0.17419
5066.81,0.17592
5043.67,0.17991
5020.52,0.17573
4997.38,0.16921
4974.23,0.15826
4951.09,0.16563
4927.94,0.17052
4904.8,0.16966
4881.65,0.16436
4858.51,0.16278
4835.36,0.17279
4812.22,0.18070
4789.07,0.18629
4765.93,0.19407
4742.78,0.20051
4719.64,0.20733
4696.49,0.21026
4673.35,0.19965
4650.2,0.20732
4627.06,0.20741
4603.92,0.20295
4580.77,0.19780
4557.63,0.18609
4534.48,0.17041
4511.34,0.15636
4488.19,0.13906
4465.05,0.12383
4441.9,0.10351
4418.76,0.08940
4395.61,0.07148
4372.47,0.06309
4349.32,0.05781
4326.18,0.05319
4303.03,0.05955
4279.89,0.05838
4256.74,0.05529
4233.6,0.05645
4210.45,0.05585
4187.31,0.05483
4164.16,0.05551
4141.02,0.05571
4117.87,0.05489
4094.73,0.05605
4071.58,0.05684
4048.44,0.05845
4025.29,0.05775
4002.15,0.06070
3979,0.05994
3955.86,0.06025
3932.71,0.05997
3909.57,0.05931
3886.42,0.05941
3863.28,0.05997
3840.13,0.06092
3816.99,0.06000
3793.84,0.06145
3770.7,0.06301
3747.55,0.06313
3724.41,0.06311
3701.26,0.05955
3678.12,0.05886
3654.97,0.05734
3631.83,0.05823
3608.68,0.05473
3585.54,0.06079
3562.39,0.06408
3539.25,0.06582
3516.1,0.06525
3492.96,0.06400
3469.81,0.06226
3446.67,0.06055
3423.52,0.05986
3400.38,0.05948
3377.23,0.05815
3354.09,0.06000
3330.94,0.06074
3307.8,0.06190
3284.65,0.06183
3261.51,0.06246
3238.36,0.06143
3215.22,0.06163
3192.07,0.05953
3168.93,0.05852
3145.78,0.05618
3122.64,0.05515
3099.49,0.05222
3076.35,0.05011
3053.2,0.04971
3030.06,0.04787
3006.91,0.04740
2983.77,0.04552
2960.62,0.04209
2937.48,0.03400
2914.33,0.07978
2891.19,0.05846
2868.04,0.05150
2844.9,0.07107
2821.75,0.05920
2798.61,0.05662
2775.46,0.05511
2752.32,0.05558
2729.17,0.05497
2706.03,0.05460
2682.88,0.05442
2659.74,0.05380
2636.59,0.05419
2613.45,0.05426
2590.3,0.05408
2567.16,0.05389
2544.02,0.05413
2520.87,0.05447
2497.73,0.05544
2474.58,0.05576
2451.44,0.05973
2428.29,0.05728
2405.15,0.05691
2382,0.05798
2358.86,0.05517
2335.71,0.05373
2312.57,0.05383
2289.42,0.05484
2266.28,0.05773
2243.13,0.05741
2219.99,0.06380
2196.84,0.06525
2173.7,0.06432
2150.55,0.05898
2127.41,0.06921
2104.26,0.07335
2081.12,0.06957
2057.97,0.06211
2034.83,0.05523
2011.68,0.05533
1988.54,0.07288
1965.39,0.06918
1942.25,0.06710
1919.1,0.06196
1895.96,0.05401
1872.81,0.08021
1849.67,0.09292
1826.52,0.07744
1803.38,0.07279
1780.23,0.07593
1757.09,0.06461
1733.94,0.05825
1710.8,0.06060
1687.65,0.06102
1664.51,0.05774
1641.36,0.05395
1618.22,0.05385
1595.07,0.05324
1571.93,0.05318
1548.78,0.05224
1525.64,0.05167
1502.49,0.05094
1479.35,0.04851
1456.2,0.05554
1433.06,0.05412
1409.91,0.05382
1386.77,0.05316
1363.62,0.05317
1340.48,0.05365
1317.33,0.05312
1294.19,0.05311
1271.04,0.05296
1247.9,0.05274
1224.75,0.05340
1201.61,0.05249
1178.46,0.05287
1155.32,0.05301
1132.17,0.05302
1109.03,0.05274
1085.88,0.05321
1062.74,0.05336
1039.59,0.05399
1016.45,0.05427
993.304,0.05327
970.159,0.05372
947.014,0.05398
923.869,0.05323
900.724,0.05326
877.579,0.05249
854.434,0.05267
831.289,0.05253
808.144,0.05265
784.999,0.05254
761.854,0.05181
738.709,0.04932
715.565,0.05865
692.42,0.05406
669.275,0.05323
646.13,0.05077
622.985,0.05374
599.84,0.05412

File: PEX_Pipe_IS_S_221108_R2.dpt
7497.03,0.70188
7473.89,0.69250
7450.74,0.69927
7427.6,0.69346
7404.45,0.68591
7381.31,0.68397
7358.16,0.65519
7335.02,0.63811
7311.87,0.60678
7288.73,0.56571
7265.58,0.51772
7242.44,0.46335
7219.29,0.39958
7196.15,0.33830
7173,0.26041
7149.86,0.35115
7126.71,0.37443
7103.57,0.34149
7080.42,0.32041
7057.28,0.29062
7034.13,0.30574
7010.99,0.30962
6987.84,0.32050
6964.7,0.32225
6941.55,0.31917
6918.41,0.35486
6895.26,0.36644
6872.12,0.38258
6848.97,0.39297
6825.83,0.41055
6802.68,0.43563
6779.54,0.45342
6756.39,0.47992
6733.25,0.48040
6710.1,0.49508
6686.96,0.50304
6663.82,0.51464
6640.67,0.52211
6617.53,0.52067
6594.38,0.52354
6571.24,0.51526
6548.09,0.51127
6524.95,0.50374
6501.8,0.48440
6478.66,0.47288
6455.51,0.52752
6432.37,0.54393
6409.22,0.55525
6386.08,0.56289
6362.93,0.57119
6339.79,0.57546
6316.64,0.57522
6293.5,0.58065
6270.35,0.57467
6247.21,0.57785
6224.06,0.57746
6200.92,0.57394
6177.77,0.56820
6154.63,0.56357
6131.48,0.55538
6108.34,0.54947
6085.19,0.53756
6062.05,0.52622
6038.9,0.50764
6015.76,0.48330
5992.61,0.44729
5969.47,0.40601
5946.32,0.36006
5923.18,0.31783
5900.03,0.27919
5876.89,0.22180
5853.74,0.14356
5830.6,0.11102
5807.45,0.09246
5784.31,0.07646
5761.16,0.08356
5738.02,0.10821
5714.87,0.13365
5691.73,0.11461
5668.58,0.09206
5645.44,0.11724
5622.29,0.13589
5599.15,0.14658
5576,0.14401
5552.86,0.13427
5529.71,0.13684
5506.57,0.13468
5483.42,0.13452
5460.28,0.14156
5437.13,0.14344
5413.99,0.15094
5390.84,0.16427
5367.7,0.16886
5344.55,0.18406
5321.41,0.18849
5298.26,0.18261
5275.12,0.18243
5251.97,0.18153
5228.83,0.17721
5205.68,0.17530
5182.54,0.17285
5159.39,0.17204
5136.25,0.17743
5113.1,0.17542
5089.96,0.17573
5066.81,0.17530
5043.67,0.18085
5020.52,0.17674
4997.38,0.17028
4974.23,0.15960
4951.09,0.16660
4927.94,0.17123
4904.8,0.16939
4881.65,0.16405
4858.51,0.16341
4835.36,0.17403
4812.22,0.18084
4789.07,0.18788
4765.93,0.19390
4742.78,0.20243
4719.64,0.20797
4696.49,0.21096
4673.35,0.19988
4650.2,0.20807
4627.06,0.20796
4603.92,0.20300
4580.77,0.19852
4557.63,0.18680
4534.48,0.17091
4511.34,0.15643
4488.19,0.13994
4465.05,0.12329
4441.9,0.10376
4418.76,0.08889
4395.61,0.07292
4372.47,0.06389
4349.32,0.05786
4326.18,0.05294
4303.03,0.05907
4279.89,0.05850
4256.74,0.05507
4233.6,0.05645
4210.45,0.05634
4187.31,0.05533
4164.16,0.05531
4141.02,0.05560
4117.87,0.05513
4094.73,0.05548
4071.58,0.05700
4048.44,0.05778
4025.29,0.05785
4002.15,0.06169
3979,0.06034
3955.86,0.06068
3932.71,0.06039
3909.57,0.05916
3886.42,0.05899
3863.28,0.06045
3840.13,0.06051
3816.99,0.06009
3793.84,0.06087
3770.7,0.06218
3747.55,0.06343
3724.41,0.06281
3701.26,0.05946
3678.12,0.05967
3654.97,0.05782
3631.83,0.05790
3608.68,0.05540
3585.54,0.06033
3562.39,0.06399
3539.25,0.06617
3516.1,0.06563
3492.96,0.06421
3469.81,0.06286
3446.67,0.06033
3423.52,0.06034
3400.38,0.06004
3377.23,0.05840
3354.09,0.05942
3330.94,0.06133
3307.8,0.06137
3284.65,0.06246
3261.51,0.06239
3238.36,0.06219
3215.22,0.06151
3192.07,0.05978
3168.93,0.05888
3145.78,0.05715
3122.64,0.05434
3099.49,0.05211
3076.35,0.05020
3053.2,0.04907
3030.06,0.04876
3006.91,0.04738
2983.77,0.04594
2960.62,0.04236
2937.48,0.03437
2914.33,0.08063
2891.19,0.05816
2868.04,0.05191
2844.9,0.07114
2821.75,0.05903
2798.61,0.05689
2775.46,0.05574
2752.32,0.05532
2729.17,0.05474
2706.03,0.05509
2682.88,0.05416
2659.74,0.05399
2636.59,0.05374
2613.45,0.05370
2590.3,0.05424
2567.16,0.05412
2544.02,0.05453
2520.87,0.05474
2497.73,0.05566
2474.58,0.05561
2451.44,0.05985
2428.29,0.05773
2405.15,0.05711
2382,0.05803
2358.86,0.05562
2335.71,0.05402
2312.57,0.05412
2289.42,0.05513
2266.28,0.05769
2243.13,0.05747
2219.99,0.06375
2196.84,0.06562
2173.7,0.06462
2150.55,0.05927
2127.41,0.06964
2104.26,0.07299
2081.12,0.06968
2057.97,0.06239
2034.83,0.05543
2011.68,0.05539
1988.54,0.07277
1965.39,0.06948
1942.25,0.06770
1919.1,0.06200
1895.96,0.05439
1872.81,0.08055
1849.67,0.09305
1826.52,0.07751
1803.38,0.07304
1780.23,0.07616
1757.09,0.06487
1733.94,0.05877
1710.8,0.06105
1687.65,0.06123
1664.51,0.05788
1641.36,0.05448
1618.22,0.05397
1595.07,0.05344
1571.93,0.05399
1548.78,0.05250
1525.64,0.05209
1502.49,0.05150
1479.35,0.04838
1456.2,0.05597
1433.06,0.05385
1409.91,0.05416
1386.77,0.05329
1363.62,0.05363
1340.48,0.05328
1317.33,0.05301
1294.19,0.05313
1271.04,0.05344
1247.9,0.05344
1224.75,0.05311
1201.61,0.05295
1178.46,0.05277
1155.32,0.05315
1132.17,0.05283
1109.03,0.05271
1085.88,0.05257
1062.74,0.05262
1039.59,0.05321
1016.45,0.05458
993.304,0.05368
970.159,0.05321
947.014,0.05376
923.869,0.05329
900.724,0.05276
877.579,0.05283
854.434,0.05243
831.289,0.05272
808.144,0.05291
784.999,0.05324
761.854,0.05174
738.709,0.04971
715.565,0.05883
692.42,0.05457
669.275,0.05353
646.13,0.05411
622.985,0.05348
599.84,0.05248

File: PEX_Pipe_IS_S_221108_R3.dpt
7497.03,0.69870
7473.89,0.69786
7450.74,0.69944
7427.6,0.69154
7404.45,0.69165
7381.31,0.67492
7358.16,0.66571
7335.02,0.63851
7311.87,0.61263
7288.73,0.56833
7265.58,0.51897
7242.44,0.45250
7219.29,0.39494
7196.15,0.33150
7173,0.25963
7149.86,0.34971
7126.71,0.37572
7103.57,0.33687
7080.42,0.31881
7057.28,0.29376
7034.13,0.30286
7010.99,0.30338
6987.84,0.32204
6964.7,0.32343
6941.55,0.32438
6918.41,0.35361
6895.26,0.36234
6872.12,0.38189
6848.97,0.39249
6825.83,0.41039
6802.68,0.43426
6779.54,0.45928
6756.39,0.47064
6733.25,0.48403
6710.1,0.49458
6686.96,0.50785
6663.82,0.51460
6640.67,0.51937
6617.53,0.52065
6594.38,0.52195
6571.24,0.51854
6548.09,0.51336
6524.95,0.50341
6501.8,0.48520
6478.66,0.47340
6455.51,0.52670
6432.37,0.54491
6409.22,0.55507
6386.08,0.55798
6362.93,0.56889
6339.79,0.57761
6316.64,0.57778
6293.5,0.58191
6270.35,0.57611
6247.21,0.58127
6224.06,0.57446
6200.92,0.57405
6177.77,0.56647
6154.63,0.56155
6131.48,0.55870
6108.34,0.54867
6085.19,0.53861
6062.05,0.52563
6038.9,0.51011
6015.76,0.48483
5992.61,0.44979
5969.47,0.40687
5946.32,0.35824
5923.18,0.32040
5900.03,0.27655
5876.89,0.22166
5853.74,0.14589
5830.6,0.11247
5807.45,0.09267
5784.31,0.07575
5761.16,0.08378
5738.02,0.10773
5714.87,0.13482
5691.73,0.11484
5668.58,0.09142
5645.44,0.11796
5622.29,0.13497
5599.15,0.14751
5576,0.14412
5552.86,0.13463
5529.71,0.13374
5506.57,0.13497
5483.42,0.13435
5460.28,0.14057
5437.13,0.14225
5413.99,0.15044
5390.84,0.16494
5367.7,0.17242
5344.55,0.18525
5321.41,0.18845
5298.26,0.18352
5275.12,0.18297
5251.97,0.18141
5228.83,0.17603
5205.68,0.17395
5182.54,0.17324
5159.39,0.17243
5136.25,0.17815
5113.1,0.17659
5089.96,0.17422
5066.81,0.17775
5043.67,0.18043
5020.52,0.17651
4997.38,0.17053
4974.23,0.15942
4951.09,0.16714
4927.94,0.17160
4904.8,0.17057
4881.65,0.16472
4858.51,0.16141
4835.36,0.17405
4812.22,0.18215
4789.07,0.18681
4765.93,0.19496
4742.78,0.20227
4719.64,0.20768
4696.49,0.21213
4673.35,0.20095
4650.2,0.20789
4627.06,0.20755
4603.92,0.20465
4580.77,0.19941
4557.63,0.18735
4534.48,0.17144
4511.34,0.15707
4488.19,0.13873
4465.05,0.12305
4441.9,0.10395
4418.76,0.08899
4395.61,0.07193
4372.47,0.06296
4349.32,0.05707
4326.18,0.05280
4303.03,0.05947
4279.89,0.05862
4256.74,0.05541
4233.6,0.05752
4210.45,0.05601
4187.31,0.05448
4164.16,0.05535
4141.02,0.05528
4117.87,0.05511
4094.73,0.05588
4071.58,0.05713
4048.44,0.05796
4025.29,0.05824
4002.15,0.06132
3979,0.06018
3955.86,0.06128
3932.71,0.05993
3909.57,0.05962
3886.42,0.05924
3863.28,0.06029
3840.13,0.06006
3816.99,0.05959
3793.84,0.06158
3770.7,0.06294
3747.55,0.06439
3724.41,0.06272
3701.26,0.05974
3678.12,0.05885
3654.97,0.05817
3631.83,0.05838
3608.68,0.05618
3585.54,0.06094
3562.39,0.06474
3539.25,0.06625
3516.1,0.06552
3492.96,0.06405
3469.81,0.06200
3446.67,0.06058
3423.52,0.06024
3400.38,0.06015
3377.23,0.05867
3354.09,0.05973
3330.94,0.06180
3307.8,0.06229
3284.65,0.06244
3261.51,0.06327
3238.36,0.06214
3215.22,0.06208
3192.07,0.05925
3168.93,0.05836
3145.78,0.05782
3122.64,0.05513
3099.49,0.05223
3076.35,0.05033
3053.2,0.04953
3030.06,0.04829
3006.91,0.04712
2983.77,0.04536
2960.62,0.04217
2937.48,0.03419
2914.33,0.08063
2891.19,0.05852
2868.04,0.05187
2844.9,0.07076
2821.75,0.05884
2798.61,0.05678
2775.46,0.05633
2752.32,0.05535
2729.17,0.05485
2706.03,0.05487
2682.88,0.05427
2659.74,0.05419
2636.59,0.05432
2613.45,0.05387
2590.3,0.05425
2567.16,0.05451
2544.02,0.05438
2520.87,0.05473
2497.73,0.05559
2474.58,0.05611
2451.44,0.05967
2428.29,0.05797
2405.15,0.05736
2382,0.05782
2358.86,0.05529
2335.71,0.05425
2312.57,0.05453
2289.42,0.05508
2266.28,0.05767
2243.13,0.05766
2219.99,0.06381
2196.84,0.06579
2173.7,0.06480
2150.55,0.05927
2127.41,0.06940
2104.26,0.07312
2081.12,0.06935
2057.97,0.06204
2034.83,0.05546
2011.68,0.05532
1988.54,0.07293
1965.39,0.06972
1942.25,0.06770
1919.1,0.06189
1895.96,0.05457
1872.81,0.08055
1849.67,0.09315
1826.52,0.07761
1803.38,0.07244
1780.23,0.07616
1757.09,0.06466
1733.94,0.05866
1710.8,0.06096
1687.65,0.06122
1664.51,0.05796
1641.36,0.05400
1618.22,0.05425
1595.07,0.05324
1571.93,0.05287
1548.78,0.05234
1525.64,0.05204
1502.49,0.05120
1479.35,0.04866
1456.2,0.05565
1433.06,0.05420
1409.91,0.05405
1386.77,0.05345
1363.62,0.05308
1340.48,0.05324
1317.33,0.05310
1294.19,0.05275
1271.04,0.05297
1247.9,0.05329
1224.75,0.05317
1201.61,0.05252
1178.46,0.05314
1155.32,0.05288
1132.17,0.05303
1109.03,0.05174
1085.88,0.05265
1062.74,0.05313
1039.59,0.05366
1016.45,0.05478
993.304,0.05338
970.159,0.05315
947.014,0.05406
923.869,0.05310
900.724,0.05249
877.579,0.05293
854.434,0.05271
831.289,0.05250
808.144,0.05299
784.999,0.05233
761.854,0.05170
738.709,0.04914
715.565,0.05839
692.42,0.05486
669.275,0.05380
646.13,0.05364
622.985,0.05528
599.84,0.05192

File: PEX_Pipe_IS_S_221108_R4.dpt
7497.03,0.71065
7473.89,0.70687
7450.74,0.69507
7427.6,0.69164
7404.45,0.67597
7381.31,0.67261
7358.16,0.66806
7335.02,0.63628
7311.87,0.61409
7288.73,0.56322
7265.58,0.52121
7242.44,0.46097
7219.29,0.39922
7196.15,0.33399
7173,0.25469
7149.86,0.34654
7126.71,0.36611
7103.57,0.33011
7080.42,0.31738
7057.28,0.29255
7034.13,0.30404
7010.99,0.30768
6987.84,0.32154
6964.7,0.31486
6941.55,0.32508
6918.41,0.34709
6895.26,0.35853
6872.12,0.37659
6848.97,0.39440
6825.83,0.40882
6802.68,0.42686
6779.54,0.45864
6756.39,0.47722
6733.25,0.48204
6710.1,0.49121
6686.96,0.50919
6663.82,0.50906
6640.67,0.51785
6617.53,0.52133
6594.38,0.52364
6571.24,0.52026
6548.09,0.50754
6524.95,0.50298
6501.8,0.48439
6478.66,0.47214
6455.51,0.52314
6432.37,0.54128
6409.22,0.54818
6386.08,0.55522
6362.93,0.56586
6339.79,0.57456
6316.64,0.57613
6293.5,0.57483
6270.35,0.57335
6247.21,0.57394
6224.06,0.57367
6200.92,0.57304
6177.77,0.57039
6154.63,0.55914
6131.48,0.55508
6108.34,0.54652
6085.19,0.53605
6062.05,0.52993
6038.9,0.51011
6015.76,0.48543
5992.61,0.44772
5969.47,0.40381
5946.32,0.35691
5923.18,0.31810
5900.03,0.27598
5876.89,0.22090
5853.74,0.14568
5830.6,0.11263
5807.45,0.09376
5784.31,0.07386
5761.16,0.08364
5738.02,0.10835
5714.87,0.13234
5691.73,0.11638
5668.58,0.09158
5645.44,0.11859
5622.29,0.13533
5599.15,0.14761
5576,0.14240
5552.86,0.13553
5529.71,0.13543
5506.57,0.13403
5483.42,0.13177
5460.28,0.14084
5437.13,0.14185
5413.99,0.14896
5390.84,0.16329
5367.7,0.16918
5344.55,0.18405
5321.41,0.18805
5298.26,0.18215
5275.12,0.18309
5251.97,0.18073
5228.83,0.17543
5205.68,0.17482
5182.54,0.17129
5159.39,0.17210
5136.25,0.17755
5113.1,0.17560
5089.96,0.17347
5066.81,0.17685
5043.67,0.17990
5020.52,0.17746
4997.38,0.16999
4974.23,0.15891
4951.09,0.16547
4927.94,0.17126
4904.8,0.16815
4881.65,0.16325
4858.51,0.16155
4835.36,0.17293
4812.22,0.17997
4789.07,0.18542
4765.93,0.19418
4742.78,0.20106
4719.64,0.20717
4696.49,0.20916
4673.35,0.19970
4650.2,0.20595
4627.06,0.20702
4603.92,0.20335
4580.77,0.19777
4557.63,0.18513
4534.48,0.17162
4511.34,0.15665
4488.19,0.13991
4465.05,0.12271
4441.9,0.10410
4418.76,0.08912
4395.61,0.07082
4372.47,0.06247
4349.32,0.05787
4326.18,0.05331
4303.03,0.05894
4279.89,0.05918
4256.74,0.05435
4233.6,0.05684
4210.45,0.05642
4187.31,0.05487
4164.16,0.05411
4141.02,0.05502
4117.87,0.05527
4094.73,0.05504
4071.58,0.05717
4048.44,0.05740
4025.29,0.05816
4002.15,0.06083
3979,0.05986
3955.86,0.06071
3932.71,0.05960
3909.57,0.05928
3886.42,0.05870
3863.28,0.05931
3840.13,0.06084
3816.99,0.06022
3793.84,0.06165
3770.7,0.06291
3747.55,0.06374
3724.41,0.06356
3701.26,0.05927
3678.12,0.05939
3654.97,0.05798
3631.83,0.05805
3608.68,0.05655
3585.54,0.06104
3562.39,0.06402
3539.25,0.06607
3516.1,0.06541
3492.96,0.06346
3469.81,0.06157
3446.67,0.06038
3423.52,0.06053
3400.38,0.06048
3377.23,0.05907
3354.09,0.05954
3330.94,0.06054
3307.8,0.06197
3284.65,0.06240
3261.51,0.06218
3238.36,0.06214
3215.22,0.06082
3192.07,0.06004
3168.93,0.05828
3145.78,0.05737
3122.64,0.05467
3099.49,0.05203
3076.35,0.05036
3053.2,0.04912
3030.06,0.04871
3006.91,0.04674
2983.77,0.04552
2960.62,0.04193
2937.48,0.03412
2914.33,0.08026
2891.19,0.05842
2868.04,0.05165
2844.9,0.07091
2821.75,0.05903
2798.61,0.05650
2775.46,0.05557
2752.32,0.05527
2729.17,0.05458
2706.03,0.05476
2682.88,0.05391
2659.74,0.05421
2636.59,0.05388
2613.45,0.05406
2590.3,0.05431
2567.16,0.05409
2544.02,0.05443
2520.87,0.05462
2497.73,0.05514
2474.58,0.05551
2451.44,0.05916
2428.29,0.05745
2405.15,0.05689
2382,0.05794
2358.86,0.05546
2335.71,0.05380
2312.57,0.05410
2289.42,0.05505
2266.28,0.05728
2243.13,0.05733
2219.99,0.06358
2196.84,0.06539
2173.7,0.06439
2150.55,0.05909
2127.41,0.06879
2104.26,0.07294
2081.12,0.06951
2057.97,0.06194
2034.83,0.05486
2011.68,0.05515
1988.54,0.07265
1965.39,0.06941
1942.25,0.06757
1919.1,0.06193
1895.96,0.05425
1872.81,0.07980
1849.67,0.09295
1826.52,0.07748
1803.38,0.07261
1780.23,0.07593
1757.09,0.06446
1733.94,0.05810
1710.8,0.06063
1687.65,0.06102
1664.51,0.05785
1641.36,0.05380
1618.22,0.05423
1595.07,0.05305
1571.93,0.05268
1548.78,0.05183
1525.64,0.05203
1502.49,0.05093
1479.35,0.04839
1456.2,0.05584
1433.06,0.05395
1409.91,0.05354
1386.77,0.05301
1363.62,0.05304
1340.48,0.05323
1317.33,0.05284
1294.19,0.05298
1271.04,0.05314
1247.9,0.05335
1224.75,0.05265
1201.61,0.05287
1178.46,0.05256
1155.32,0.05314
1132.17,0.05232
1109.03,0.05253
1085.88,0.05285
1062.74,0.05381
1039.59,0.05363
1016.45,0.05411
993.304,0.05401
970.159,0.05350
947.014,0.05354
923.869,0.05359
900.724,0.05312
877.579,0.05286
854.434,0.05220
831.289,0.05265
808.144,0.05242
784.999,0.05278
761.854,0.05173
738.709,0.04947
715.565,0.05895
692.42,0.05410
669.275,0.05369
646.13,0.05378
622.985,0.05149
599.84,0.05470