Folder: fsri_materials_database/01_Data/Black_PMMA/FTIR/IS (part 2)

File: Black_PMMA_IS_S_221012_R5.dpt
7497.03,0.05336
7473.89,0.05891
7450.74,0.05011
7427.6,0.04658
7404.45,0.05440
7381.31,0.05969
7358.16,0.05406
7335.02,0.04561
7311.87,0.05298
7288.73,0.05572
7265.58,0.04743
7242.44,0.04751
7219.29,0.04524
7196.15,0.05141
7173,0.05631
7149.86,0.04994
7126.71,0.05211
7103.57,0.04559
7080.42,0.05240
7057.28,0.05897
7034.13,0.05859
7010.99,0.05658
6987.84,0.05832
6964.7,0.05164
6941.55,0.04829
6918.41,0.05088
6895.26,0.05164
6872.12,0.04645
6848.97,0.04950
6825.83,0.05502
6802.68,0.05768
6779.54,0.05169
6756.39,0.05144
6733.25,0.05221
6710.1,0.05432
6686.96,0.05161
6663.82,0.04857
6640.67,0.05220
6617.53,0.05029
6594.38,0.05210
6571.24,0.05540
6548.09,0.05272
6524.95,0.05362
6501.8,0.05071
6478.66,0.05238
6455.51,0.05093
6432.37,0.05354
6409.22,0.04976
6386.08,0.05184
6362.93,0.05624
6339.79,0.05165
6316.64,0.04964
6293.5,0.05014
6270.35,0.05074
6247.21,0.04885
6224.06,0.05043
6200.92,0.05601
6177.77,0.05405
6154.63,0.05466
6131.48,0.05196
6108.34,0.04921
6085.19,0.05215
6062.05,0.05149
6038.9,0.05223
6015.76,0.05025
5992.61,0.05237
5969.47,0.05134
5946.32,0.05194
5923.18,0.05123
5900.03,0.05239
5876.89,0.05040
5853.74,0.05104
5830.6,0.05315
5807.45,0.05075
5784.31,0.05157
5761.16,0.05189
5738.02,0.05244
5714.87,0.05568
5691.73,0.05188
5668.58,0.05356
5645.44,0.05325
5622.29,0.05463
5599.15,0.05478
5576,0.05182
5552.86,0.05549
5529.71,0.05372
5506.57,0.05331
5483.42,0.05521
5460.28,0.05734
5437.13,0.05542
5413.99,0.05640
5390.84,0.05188
5367.7,0.05495
5344.55,0.05216
5321.41,0.05449
5298.26,0.05413
5275.12,0.05228
5251.97,0.05471
5228.83,0.05382
5205.68,0.05423
5182.54,0.05385
5159.39,0.05594
5136.25,0.05542
5113.1,0.05408
5089.96,0.05590
5066.81,0.05588
5043.67,0.05502
5020.52,0.05547
4997.38,0.05505
4974.23,0.05562
4951.09,0.05487
4927.94,0.05492
4904.8,0.05641
4881.65,0.05528
4858.51,0.05396
4835.36,0.05570
4812.22,0.05647
4789.07,0.05509
4765.93,0.05479
4742.78,0.05494
4719.64,0.05457
4696.49,0.05482
4673.35,0.05521
4650.2,0.05511
4627.06,0.05509
4603.92,0.05583
4580.77,0.05437
4557.63,0.05542
4534.48,0.05476
4511.34,0.05368
4488.19,0.05329
4465.05,0.05211
4441.9,0.05184
4418.76,0.05257
4395.61,0.05157
4372.47,0.05180
4349.32,0.05274
4326.18,0.05296
4303.03,0.05329
4279.89,0.05362
4256.74,0.05340
4233.6,0.05302
4210.45,0.05355
4187.31,0.05306
4164.16,0.05263
4141.02,0.05221
4117.87,0.05317
4094.73,0.05306
4071.58,0.05395
4048.44,0.05370
4025.29,0.05459
4002.15,0.05431
3979,0.05401
3955.86,0.05379
3932.71,0.05419
3909.57,0.05515
3886.42,0.05519
3863.28,0.05454
3840.13,0.05547
3816.99,0.05500
3793.84,0.05478
3770.7,0.05512
3747.55,0.05551
3724.41,0.05490
3701.26,0.05413
3678.12,0.05249
3654.97,0.05244
3631.83,0.05237
3608.68,0.05172
3585.54,0.05212
3562.39,0.05191
3539.25,0.05185
3516.1,0.05154
3492.96,0.05224
3469.81,0.05176
3446.67,0.05128
3423.52,0.05055
3400.38,0.05240
3377.23,0.05176
3354.09,0.05219
3330.94,0.05220
3307.8,0.05241
3284.65,0.05181
3261.51,0.05181
3238.36,0.05241
3215.22,0.05208
3192.07,0.05204
3168.93,0.05183
3145.78,0.05146
3122.64,0.05115
3099.49,0.05051
3076.35,0.05045
3053.2,0.04954
3030.06,0.04785
3006.91,0.04770
2983.77,0.05058
2960.62,0.04888
2937.48,0.05423
2914.33,0.05621
2891.19,0.05430
2868.04,0.05382
2844.9,0.05413
2821.75,0.05376
2798.61,0.05324
2775.46,0.05257
2752.32,0.05290
2729.17,0.05293
2706.03,0.05322
2682.88,0.05312
2659.74,0.05322
2636.59,0.05289
2613.45,0.05263
2590.3,0.05253
2567.16,0.05278
2544.02,0.05277
2520.87,0.05268
2497.73,0.05269
2474.58,0.05245
2451.44,0.05238
2428.29,0.05192
2405.15,0.05215
2382,0.05194
2358.86,0.05196
2335.71,0.05176
2312.57,0.05202
2289.42,0.05218
2266.28,0.05222
2243.13,0.05177
2219.99,0.05130
2196.84,0.05156
2173.7,0.05120
2150.55,0.05088
2127.41,0.05065
2104.26,0.05082
2081.12,0.05073
2057.97,0.05022
2034.83,0.05031
2011.68,0.04997
1988.54,0.04978
1965.39,0.04956
1942.25,0.04966
1919.1,0.04931
1895.96,0.04860
1872.81,0.04785
1849.67,0.04710
1826.52,0.04610
1803.38,0.04402
1780.23,0.04113
1757.09,0.03170
1733.94,0.05987
1710.8,0.07521
1687.65,0.05968
1664.51,0.05562
1641.36,0.05380
1618.22,0.05241
1595.07,0.05121
1571.93,0.05034
1548.78,0.04876
1525.64,0.04740
1502.49,0.04404
1479.35,0.04583
1456.2,0.04596
1433.06,0.05638
1409.91,0.05157
1386.77,0.05011
1363.62,0.04997
1340.48,0.04783
1317.33,0.04497
1294.19,0.04019
1271.04,0.04214
1247.9,0.04449
1224.75,0.05112
1201.61,0.03885
1178.46,0.05417
1155.32,0.06255
1132.17,0.08797
1109.03,0.07553
1085.88,0.06796
1062.74,0.06629
1039.59,0.06365
1016.45,0.05917
993.304,0.05669
970.159,0.06188
947.014,0.06396
923.869,0.06086
900.724,0.06126
877.579,0.05899
854.434,0.05738
831.289,0.06011
808.144,0.06068
784.999,0.05947
761.854,0.05607
738.709,0.06322
715.565,0.06021
692.42,0.05951
669.275,0.05647
646.13,0.05657
622.985,0.05382
599.84,0.05313

File: Black_PMMA_IS_S_221012_R6.dpt
7497.03,0.05952
7473.89,0.04738
7450.74,0.04630
7427.6,0.04897
7404.45,0.04735
7381.31,0.04683
7358.16,0.05177
7335.02,0.05734
7311.87,0.04433
7288.73,0.04722
7265.58,0.05445
7242.44,0.05668
7219.29,0.04725
7196.15,0.05610
7173,0.04511
7149.86,0.05009
7126.71,0.05003
7103.57,0.05314
7080.42,0.04739
7057.28,0.04909
7034.13,0.05150
7010.99,0.05241
6987.84,0.05269
6964.7,0.05343
6941.55,0.05447
6918.41,0.05434
6895.26,0.04906
6872.12,0.05354
6848.97,0.05041
6825.83,0.05190
6802.68,0.05549
6779.54,0.05628
6756.39,0.05634
6733.25,0.05010
6710.1,0.05235
6686.96,0.05044
6663.82,0.04975
6640.67,0.05335
6617.53,0.05199
6594.38,0.05117
6571.24,0.05227
6548.09,0.04793
6524.95,0.05017
6501.8,0.05076
6478.66,0.05084
6455.51,0.05624
6432.37,0.05256
6409.22,0.05092
6386.08,0.05271
6362.93,0.05207
6339.79,0.04966
6316.64,0.05315
6293.5,0.05252
6270.35,0.05192
6247.21,0.05425
6224.06,0.05417
6200.92,0.05345
6177.77,0.05225
6154.63,0.05172
6131.48,0.05032
6108.34,0.05094
6085.19,0.05472
6062.05,0.05309
6038.9,0.05343
6015.76,0.05179
5992.61,0.05093
5969.47,0.05110
5946.32,0.05351
5923.18,0.05294
5900.03,0.05386
5876.89,0.05167
5853.74,0.05245
5830.6,0.05486
5807.45,0.05156
5784.31,0.05505
5761.16,0.05188
5738.02,0.05467
5714.87,0.05247
5691.73,0.05241
5668.58,0.05323
5645.44,0.05415
5622.29,0.05427
5599.15,0.05328
5576,0.05236
5552.86,0.05111
5529.71,0.05366
5506.57,0.05381
5483.42,0.05366
5460.28,0.05389
5437.13,0.05536
5413.99,0.05468
5390.84,0.05370
5367.7,0.05457
5344.55,0.05590
5321.41,0.05351
5298.26,0.05315
5275.12,0.05383
5251.97,0.05362
5228.83,0.05244
5205.68,0.05561
5182.54,0.05420
5159.39,0.05468
5136.25,0.05404
5113.1,0.05420
5089.96,0.05394
5066.81,0.05506
5043.67,0.05497
5020.52,0.05448
4997.38,0.05398
4974.23,0.05531
4951.09,0.05506
4927.94,0.05465
4904.8,0.05515
4881.65,0.05481
4858.51,0.05532
4835.36,0.05458
4812.22,0.05494
4789.07,0.05536
4765.93,0.05494
4742.78,0.05492
4719.64,0.05568
4696.49,0.05383
4673.35,0.05421
4650.2,0.05539
4627.06,0.05521
4603.92,0.05466
4580.77,0.05457
4557.63,0.05395
4534.48,0.05362
4511.34,0.05353
4488.19,0.05240
4465.05,0.05222
4441.9,0.05127
4418.76,0.05214
4395.61,0.05195
4372.47,0.05191
4349.32,0.05233
4326.18,0.05281
4303.03,0.05345
4279.89,0.05288
4256.74,0.05291
4233.6,0.05268
4210.45,0.05241
4187.31,0.05219
4164.16,0.05212
4141.02,0.05318
4117.87,0.05352
4094.73,0.05292
4071.58,0.05355
4048.44,0.05386
4025.29,0.05336
4002.15,0.05401
3979,0.05368
3955.86,0.05375
3932.71,0.05345
3909.57,0.05477
3886.42,0.05471
3863.28,0.05393
3840.13,0.05432
3816.99,0.05480
3793.84,0.05459
3770.7,0.05413
3747.55,0.05469
3724.41,0.05490
3701.26,0.05403
3678.12,0.05217
3654.97,0.05194
3631.83,0.05196
3608.68,0.05170
3585.54,0.05269
3562.39,0.05111
3539.25,0.05151
3516.1,0.05170
3492.96,0.05192
3469.81,0.05191
3446.67,0.05129
3423.52,0.05163
3400.38,0.05116
3377.23,0.05113
3354.09,0.05138
3330.94,0.05147
3307.8,0.05155
3284.65,0.05156
3261.51,0.05105
3238.36,0.05157
3215.22,0.05105
3192.07,0.05065
3168.93,0.05073
3145.78,0.05095
3122.64,0.05045
3099.49,0.04947
3076.35,0.04977
3053.2,0.04813
3030.06,0.04801
3006.91,0.04719
2983.77,0.04979
2960.62,0.04850
2937.48,0.05440
2914.33,0.05555
2891.19,0.05339
2868.04,0.05341
2844.9,0.05372
2821.75,0.05288
2798.61,0.05321
2775.46,0.05273
2752.32,0.05255
2729.17,0.05292
2706.03,0.05279
2682.88,0.05271
2659.74,0.05243
2636.59,0.05217
2613.45,0.05231
2590.3,0.05176
2567.16,0.05211
2544.02,0.05199
2520.87,0.05190
2497.73,0.05203
2474.58,0.05251
2451.44,0.05171
2428.29,0.05212
2405.15,0.05145
2382,0.05172
2358.86,0.05189
2335.71,0.05141
2312.57,0.05177
2289.42,0.05136
2266.28,0.05163
2243.13,0.05158
2219.99,0.05131
2196.84,0.05092
2173.7,0.05067
2150.55,0.05046
2127.41,0.05062
2104.26,0.05082
2081.12,0.05023
2057.97,0.05001
2034.83,0.04974
2011.68,0.04993
1988.54,0.04964
1965.39,0.04905
1942.25,0.04921
1919.1,0.04908
1895.96,0.04815
1872.81,0.04778
1849.67,0.04656
1826.52,0.04573
1803.38,0.04384
1780.23,0.04059
1757.09,0.03144
1733.94,0.05987
1710.8,0.07421
1687.65,0.05871
1664.51,0.05494
1641.36,0.05369
1618.22,0.05246
1595.07,0.05083
1571.93,0.05002
1548.78,0.04823
1525.64,0.04716
1502.49,0.04362
1479.35,0.04579
1456.2,0.04608
1433.06,0.05631
1409.91,0.05107
1386.77,0.04921
1363.62,0.04974
1340.48,0.04747
1317.33,0.04447
1294.19,0.03995
1271.04,0.04160
1247.9,0.04433
1224.75,0.05068
1201.61,0.03881
1178.46,0.05336
1155.32,0.06209
1132.17,0.08784
1109.03,0.07564
1085.88,0.06724
1062.74,0.06566
1039.59,0.06377
1016.45,0.05943
993.304,0.05639
970.159,0.06102
947.014,0.06337
923.869,0.06099
900.724,0.06080
877.579,0.05906
854.434,0.05749
831.289,0.06012
808.144,0.06040
784.999,0.05844
761.854,0.05628
738.709,0.06246
715.565,0.05948
692.42,0.05981
669.275,0.05794
646.13,0.05613
622.985,0.05425
599.84,0.05648

File: Black_PMMA_IS_S_221012_R7.dpt
7497.03,0.04390
7473.89,0.04879
7450.74,0.04779
7427.6,0.05470
7404.45,0.05586
7381.31,0.05998
7358.16,0.04434
7335.02,0.05327
7311.87,0.05268
7288.73,0.05114
7265.58,0.06161
7242.44,0.05014
7219.29,0.05378
7196.15,0.04683
7173,0.05801
7149.86,0.05057
7126.71,0.06036
7103.57,0.05489
7080.42,0.05080
7057.28,0.05251
7034.13,0.05692
7010.99,0.05283
6987.84,0.05499
6964.7,0.05892
6941.55,0.05274
6918.41,0.05250
6895.26,0.04875
6872.12,0.05127
6848.97,0.05272
6825.83,0.05899
6802.68,0.05165
6779.54,0.05585
6756.39,0.05698
6733.25,0.05038
6710.1,0.05234
6686.96,0.04910
6663.82,0.05508
6640.67,0.05317
6617.53,0.05362
6594.38,0.05677
6571.24,0.05241
6548.09,0.05110
6524.95,0.05495
6501.8,0.05591
6478.66,0.05492
6455.51,0.05292
6432.37,0.05277
6409.22,0.05076
6386.08,0.05256
6362.93,0.05396
6339.79,0.05338
6316.64,0.05230
6293.5,0.05507
6270.35,0.05278
6247.21,0.05052
6224.06,0.05120
6200.92,0.05444
6177.77,0.05298
6154.63,0.05289
6131.48,0.05260
6108.34,0.05296
6085.19,0.05159
6062.05,0.05476
6038.9,0.05437
6015.76,0.05139
5992.61,0.05298
5969.47,0.05081
5946.32,0.04893
5923.18,0.05409
5900.03,0.05141
5876.89,0.05270
5853.74,0.05051
5830.6,0.05351
5807.45,0.05053
5784.31,0.05186
5761.16,0.05032
5738.02,0.05042
5714.87,0.05113
5691.73,0.05322
5668.58,0.05291
5645.44,0.05314
5622.29,0.05372
5599.15,0.05392
5576,0.05315
5552.86,0.05218
5529.71,0.05576
5506.57,0.05454
5483.42,0.05440
5460.28,0.05436
5437.13,0.05360
5413.99,0.05325
5390.84,0.05342
5367.7,0.05254
5344.55,0.05279
5321.41,0.05408
5298.26,0.05310
5275.12,0.05381
5251.97,0.05290
5228.83,0.05421
5205.68,0.05654
5182.54,0.05467
5159.39,0.05298
5136.25,0.05277
5113.1,0.05448
5089.96,0.05322
5066.81,0.05445
5043.67,0.05517
5020.52,0.05556
4997.38,0.05467
4974.23,0.05413
4951.09,0.05443
4927.94,0.05498
4904.8,0.05504
4881.65,0.05622
4858.51,0.05518
4835.36,0.05568
4812.22,0.05434
4789.07,0.05443
4765.93,0.05455
4742.78,0.05305
4719.64,0.05361
4696.49,0.05467
4673.35,0.05336
4650.2,0.05465
4627.06,0.05465
4603.92,0.05375
4580.77,0.05481
4557.63,0.05430
4534.48,0.05350
4511.34,0.05353
4488.19,0.05301
4465.05,0.05111
4441.9,0.05142
4418.76,0.05120
4395.61,0.05182
4372.47,0.05227
4349.32,0.05183
4326.18,0.05305
4303.03,0.05330
4279.89,0.05268
4256.74,0.05243
4233.6,0.05264
4210.45,0.05156
4187.31,0.05238
4164.16,0.05306
4141.02,0.05273
4117.87,0.05354
4094.73,0.05313
4071.58,0.05267
4048.44,0.05307
4025.29,0.05314
4002.15,0.05336
3979,0.05377
3955.86,0.05411
3932.71,0.05369
3909.57,0.05372
3886.42,0.05362
3863.28,0.05369
3840.13,0.05393
3816.99,0.05400
3793.84,0.05417
3770.7,0.05368
3747.55,0.05395
3724.41,0.05448
3701.26,0.05365
3678.12,0.05269
3654.97,0.05176
3631.83,0.05147
3608.68,0.05216
3585.54,0.05132
3562.39,0.05104
3539.25,0.05133
3516.1,0.05204
3492.96,0.05084
3469.81,0.05152
3446.67,0.05042
3423.52,0.05084
3400.38,0.05138
3377.23,0.05117
3354.09,0.05190
3330.94,0.05149
3307.8,0.05149
3284.65,0.05152
3261.51,0.05048
3238.36,0.05086
3215.22,0.05082
3192.07,0.05078
3168.93,0.05021
3145.78,0.05090
3122.64,0.05050
3099.49,0.04970
3076.35,0.05002
3053.2,0.04929
3030.06,0.04790
3006.91,0.04685
2983.77,0.04921
2960.62,0.04809
2937.48,0.05345
2914.33,0.05557
2891.19,0.05323
2868.04,0.05327
2844.9,0.05342
2821.75,0.05310
2798.61,0.05210
2775.46,0.05237
2752.32,0.05242
2729.17,0.05225
2706.03,0.05256
2682.88,0.05214
2659.74,0.05231
2636.59,0.05181
2613.45,0.05182
2590.3,0.05160
2567.16,0.05164
2544.02,0.05144
2520.87,0.05147
2497.73,0.05162
2474.58,0.05201
2451.44,0.05161
2428.29,0.05166
2405.15,0.05116
2382,0.05136
2358.86,0.05178
2335.71,0.05096
2312.57,0.05125
2289.42,0.05089
2266.28,0.05113
2243.13,0.05067
2219.99,0.05114
2196.84,0.05092
2173.7,0.05084
2150.55,0.05046
2127.41,0.05002
2104.26,0.05016
2081.12,0.04991
2057.97,0.04944
2034.83,0.04949
2011.68,0.04946
1988.54,0.04908
1965.39,0.04875
1942.25,0.04862
1919.1,0.04861
1895.96,0.04815
1872.81,0.04729
1849.67,0.04620
1826.52,0.04543
1803.38,0.04364
1780.23,0.04024
1757.09,0.03072
1733.94,0.05967
1710.8,0.07374
1687.65,0.05843
1664.51,0.05488
1641.36,0.05308
1618.22,0.05211
1595.07,0.05075
1571.93,0.04920
1548.78,0.04817
1525.64,0.04715
1502.49,0.04350
1479.35,0.04552
1456.2,0.04578
1433.06,0.05598
1409.91,0.05089
1386.77,0.04916
1363.62,0.04936
1340.48,0.04701
1317.33,0.04441
1294.19,0.03977
1271.04,0.04144
1247.9,0.04403
1224.75,0.05043
1201.61,0.03821
1178.46,0.05421
1155.32,0.06159
1132.17,0.08758
1109.03,0.07448
1085.88,0.06726
1062.74,0.06501
1039.59,0.06352
1016.45,0.05992
993.304,0.05669
970.159,0.06105
947.014,0.06308
923.869,0.06068
900.724,0.06105
877.579,0.05849
854.434,0.05737
831.289,0.06060
808.144,0.05985
784.999,0.05872
761.854,0.05569
738.709,0.06218
715.565,0.05918
692.42,0.05843
669.275,0.05664
646.13,0.05415
622.985,0.05680
599.84,0.05306

File: Black_PMMA_IS_S_221012_R8.dpt
7497.03,0.05208
7473.89,0.04469
7450.74,0.04486
7427.6,0.05619
7404.45,0.05203
7381.31,0.04706
7358.16,0.05245
7335.02,0.05282
7311.87,0.05275
7288.73,0.05717
7265.58,0.05724
7242.44,0.04667
7219.29,0.05947
7196.15,0.05577
7173,0.05723
7149.86,0.05215
7126.71,0.05546
7103.57,0.05173
7080.42,0.05478
7057.28,0.05132
7034.13,0.05217
7010.99,0.05382
6987.84,0.05332
6964.7,0.05391
6941.55,0.05643
6918.41,0.04594
6895.26,0.05499
6872.12,0.05405
6848.97,0.05355
6825.83,0.05177
6802.68,0.04908
6779.54,0.05735
6756.39,0.05353
6733.25,0.04621
6710.1,0.05331
6686.96,0.05325
6663.82,0.05577
6640.67,0.05618
6617.53,0.05260
6594.38,0.05319
6571.24,0.05118
6548.09,0.05233
6524.95,0.05078
6501.8,0.05299
6478.66,0.05525
6455.51,0.05611
6432.37,0.05179
6409.22,0.05168
6386.08,0.05056
6362.93,0.05105
6339.79,0.05316
6316.64,0.05175
6293.5,0.05437
6270.35,0.05566
6247.21,0.05194
6224.06,0.05347
6200.92,0.05232
6177.77,0.05566
6154.63,0.05496
6131.48,0.05488
6108.34,0.05313
6085.19,0.05289
6062.05,0.05371
6038.9,0.05271
6015.76,0.05306
5992.61,0.05296
5969.47,0.05237
5946.32,0.05228
5923.18,0.04921
5900.03,0.05203
5876.89,0.05033
5853.74,0.05156
5830.6,0.05216
5807.45,0.05059
5784.31,0.05236
5761.16,0.05436
5738.02,0.05214
5714.87,0.05332
5691.73,0.05543
5668.58,0.05406
5645.44,0.05358
5622.29,0.05153
5599.15,0.05378
5576,0.05423
5552.86,0.05419
5529.71,0.05349
5506.57,0.05449
5483.42,0.05409
5460.28,0.05566
5437.13,0.05589
5413.99,0.05434
5390.84,0.05656
5367.7,0.05377
5344.55,0.05433
5321.41,0.05366
5298.26,0.05489
5275.12,0.05315
5251.97,0.05408
5228.83,0.05597
5205.68,0.05376
5182.54,0.05492
5159.39,0.05448
5136.25,0.05354
5113.1,0.05449
5089.96,0.05461
5066.81,0.05515
5043.67,0.05670
5020.52,0.05531
4997.38,0.05477
4974.23,0.05504
4951.09,0.05563
4927.94,0.05553
4904.8,0.05722
4881.65,0.05584
4858.51,0.05560
4835.36,0.05501
4812.22,0.05626
4789.07,0.05557
4765.93,0.05503
4742.78,0.05424
4719.64,0.05494
4696.49,0.05466
4673.35,0.05407
4650.2,0.05549
4627.06,0.05578
4603.92,0.05412
4580.77,0.05466
4557.63,0.05471
4534.48,0.05428
4511.34,0.05377
4488.19,0.05240
4465.05,0.05199
4441.9,0.05166
4418.76,0.05092
4395.61,0.05105
4372.47,0.05183
4349.32,0.05315
4326.18,0.05284
4303.03,0.05324
4279.89,0.05293
4256.74,0.05304
4233.6,0.05256
4210.45,0.05214
4187.31,0.05253
4164.16,0.05274
4141.02,0.05289
4117.87,0.05289
4094.73,0.05283
4071.58,0.05320
4048.44,0.05383
4025.29,0.05349
4002.15,0.05425
3979,0.05446
3955.86,0.05392
3932.71,0.05353
3909.57,0.05435
3886.42,0.05389
3863.28,0.05461
3840.13,0.05448
3816.99,0.05449
3793.84,0.05447
3770.7,0.05441
3747.55,0.05400
3724.41,0.05443
3701.26,0.05380
3678.12,0.05297
3654.97,0.05237
3631.83,0.05221
3608.68,0.05130
3585.54,0.05217
3562.39,0.05131
3539.25,0.05204
3516.1,0.05128
3492.96,0.05185
3469.81,0.05122
3446.67,0.05111
3423.52,0.05084
3400.38,0.05174
3377.23,0.05236
3354.09,0.05169
3330.94,0.05239
3307.8,0.05183
3284.65,0.05152
3261.51,0.05126
3238.36,0.05126
3215.22,0.05116
3192.07,0.05115
3168.93,0.05144
3145.78,0.05082
3122.64,0.05056
3099.49,0.04993
3076.35,0.05003
3053.2,0.04879
3030.06,0.04795
3006.91,0.04782
2983.77,0.05022
2960.62,0.04896
2937.48,0.05427
2914.33,0.05608
2891.19,0.05354
2868.04,0.05357
2844.9,0.05358
2821.75,0.05295
2798.61,0.05327
2775.46,0.05303
2752.32,0.05299
2729.17,0.05265
2706.03,0.05255
2682.88,0.05279
2659.74,0.05266
2636.59,0.05249
2613.45,0.05225
2590.3,0.05202
2567.16,0.05223
2544.02,0.05236
2520.87,0.05198
2497.73,0.05221
2474.58,0.05207
2451.44,0.05190
2428.29,0.05212
2405.15,0.05195
2382,0.05186
2358.86,0.05168
2335.71,0.05137
2312.57,0.05152
2289.42,0.05181
2266.28,0.05116
2243.13,0.05091
2219.99,0.05104
2196.84,0.05109
2173.7,0.05082
2150.55,0.05092
2127.41,0.05064
2104.26,0.05061
2081.12,0.05007
2057.97,0.05007
2034.83,0.04976
2011.68,0.04983
1988.54,0.04936
1965.39,0.04918
1942.25,0.04920
1919.1,0.04869
1895.96,0.04830
1872.81,0.04775
1849.67,0.04704
1826.52,0.04562
1803.38,0.04374
1780.23,0.04065
1757.09,0.03117
1733.94,0.05975
1710.8,0.07453
1687.65,0.05943
1664.51,0.05530
1641.36,0.05330
1618.22,0.05240
1595.07,0.05126
1571.93,0.04960
1548.78,0.04843
1525.64,0.04722
1502.49,0.04418
1479.35,0.04592
1456.2,0.04653
1433.06,0.05619
1409.91,0.05089
1386.77,0.04978
1363.62,0.05005
1340.48,0.04742
1317.33,0.04441
1294.19,0.03972
1271.04,0.04174
1247.9,0.04423
1224.75,0.05129
1201.61,0.03881
1178.46,0.05374
1155.32,0.06200
1132.17,0.08848
1109.03,0.07517
1085.88,0.06663
1062.74,0.06564
1039.59,0.06315
1016.45,0.05927
993.304,0.05710
970.159,0.06139
947.014,0.06319
923.869,0.06126
900.724,0.06143
877.579,0.05911
854.434,0.05767
831.289,0.05979
808.144,0.05977
784.999,0.05841
761.854,0.05627
738.709,0.06220
715.565,0.05983
692.42,0.05888
669.275,0.05756
646.13,0.05670
622.985,0.05673
599.84,0.05236

File: Black_PMMA_IS_T_221012_R1.dpt
7497.03,0.02499
7473.89,0.01882
7450.74,0.02691
7427.6,0.02096
7404.45,0.02167
7381.31,0.03003
7358.16,0.01832
7335.02,0.02780
7311.87,0.02427
7288.73,0.02756
7265.58,0.02435
7242.44,0.03014
7219.29,0.02256
7196.15,0.02019
7173,0.02462
7149.86,0.02178
7126.71,0.02094
7103.57,0.02446
7080.42,0.02073
7057.28,0.02577
7034.13,0.02071
7010.99,0.02641
6987.84,0.02545
6964.7,0.02323
6941.55,0.02351
6918.41,0.02540
6895.26,0.02781
6872.12,0.02295
6848.97,0.02357
6825.83,0.01995
6802.68,0.02468
6779.54,0.01956
6756.39,0.01798
6733.25,0.02543
6710.1,0.02627
6686.96,0.02252
6663.82,0.01986
6640.67,0.02763
6617.53,0.01845
6594.38,0.02240
6571.24,0.02299
6548.09,0.01711
6524.95,0.02037
6501.8,0.02221
6478.66,0.02240
6455.51,0.02347
6432.37,0.02501
6409.22,0.02072
6386.08,0.02421
6362.93,0.02460
6339.79,0.01951
6316.64,0.02181
6293.5,0.01932
6270.35,0.02259
6247.21,0.02152
6224.06,0.01884
6200.92,0.02281
6177.77,0.01858
6154.63,0.01934
6131.48,0.01927
6108.34,0.02182
6085.19,0.01925
6062.05,0.02123
6038.9,0.02284
6015.76,0.02161
5992.61,0.01910
5969.47,0.01937
5946.32,0.02283
5923.18,0.02190
5900.03,0.02031
5876.89,0.01987
5853.74,0.01654
5830.6,0.01998
5807.45,0.02105
5784.31,0.01929
5761.16,0.01974
5738.02,0.01765
5714.87,0.02047
5691.73,0.02077
5668.58,0.02026
5645.44,0.02216
5622.29,0.02041
5599.15,0.02042
5576,0.02131
5552.86,0.02180
5529.71,0.02134
5506.57,0.02140
5483.42,0.02112
5460.28,0.02202
5437.13,0.02172
5413.99,0.02402
5390.84,0.02046
5367.7,0.02044
5344.55,0.02049
5321.41,0.02049
5298.26,0.02141
5275.12,0.02130
5251.97,0.02056
5228.83,0.02047
5205.68,0.02258
5182.54,0.02087
5159.39,0.02282
5136.25,0.02135
5113.1,0.01971
5089.96,0.02226
5066.81,0.02255
5043.67,0.02211
5020.52,0.02187
4997.38,0.02107
4974.23,0.02151
4951.09,0.02253
4927.94,0.02188
4904.8,0.02234
4881.65,0.02175
4858.51,0.02133
4835.36,0.02098
4812.22,0.02143
4789.07,0.02104
4765.93,0.02139
4742.78,0.02262
4719.64,0.02087
4696.49,0.02275
4673.35,0.02239
4650.2,0.02196
4627.06,0.02168
4603.92,0.02172
4580.77,0.02155
4557.63,0.02218
4534.48,0.02217
4511.34,0.02169
4488.19,0.02121
4465.05,0.02161
4441.9,0.02102
4418.76,0.02103
4395.61,0.02106
4372.47,0.02167
4349.32,0.02122
4326.18,0.02138
4303.03,0.02214
4279.89,0.02187
4256.74,0.02242
4233.6,0.02215
4210.45,0.02133
4187.31,0.02192
4164.16,0.02227
4141.02,0.02144
4117.87,0.02181
4094.73,0.02133
4071.58,0.02224
4048.44,0.02203
4025.29,0.02220
4002.15,0.02199
3979,0.02168
3955.86,0.02261
3932.71,0.02259
3909.57,0.02180
3886.42,0.02241
3863.28,0.02184
3840.13,0.02285
3816.99,0.02343
3793.84,0.02240
3770.7,0.02231
3747.55,0.02225
3724.41,0.02345
3701.26,0.02211
3678.12,0.02244
3654.97,0.02169
3631.83,0.02147
3608.68,0.02139
3585.54,0.02200
3562.39,0.02063
3539.25,0.02051
3516.1,0.02093
3492.96,0.02060
3469.81,0.02011
3446.67,0.02073
3423.52,0.02027
3400.38,0.02096
3377.23,0.02054
3354.09,0.02012
3330.94,0.01966
3307.8,0.01983
3284.65,0.01991
3261.51,0.01979
3238.36,0.02066
3215.22,0.02044
3192.07,0.02023
3168.93,0.02100
3145.78,0.02078
3122.64,0.02052
3099.49,0.02081
3076.35,0.01980
3053.2,0.02089
3030.06,0.01986
3006.91,0.02005
2983.77,0.01963
2960.62,0.01925
2937.48,0.01956
2914.33,0.01992
2891.19,0.02009
2868.04,0.02029
2844.9,0.02045
2821.75,0.02118
2798.61,0.02108
2775.46,0.02128
2752.32,0.02113
2729.17,0.02089
2706.03,0.02159
2682.88,0.02127
2659.74,0.02115
2636.59,0.02120
2613.45,0.02103
2590.3,0.02096
2567.16,0.02132
2544.02,0.02096
2520.87,0.02090
2497.73,0.02133
2474.58,0.02085
2451.44,0.02114
2428.29,0.02161
2405.15,0.02100
2382,0.02126
2358.86,0.02239
2335.71,0.02262
2312.57,0.02134
2289.42,0.02083
2266.28,0.02108
2243.13,0.02106
2219.99,0.02089
2196.84,0.02091
2173.7,0.02089
2150.55,0.02117
2127.41,0.02085
2104.26,0.02101
2081.12,0.02054
2057.97,0.02078
2034.83,0.02065
2011.68,0.02101
1988.54,0.02038
1965.39,0.02037
1942.25,0.02069
1919.1,0.02057
1895.96,0.02079
1872.81,0.02003
1849.67,0.02029
1826.52,0.02022
1803.38,0.01966
1780.23,0.01918
1757.09,0.01790
1733.94,0.01985
1710.8,0.02110
1687.65,0.01950
1664.51,0.01890
1641.36,0.01855
1618.22,0.01935
1595.07,0.01877
1571.93,0.01847
1548.78,0.01852
1525.64,0.01872
1502.49,0.01851
1479.35,0.01850
1456.2,0.01876
1433.06,0.01898
1409.91,0.01867
1386.77,0.01806
1363.62,0.01831
1340.48,0.01820
1317.33,0.01717
1294.19,0.01784
1271.04,0.01987
1247.9,0.02036
1224.75,0.01955
1201.61,0.01841
1178.46,0.01797
1155.32,0.01770
1132.17,0.01825
1109.03,0.01924
1085.88,0.01849
1062.74,0.01987
1039.59,0.01898
1016.45,0.01997
993.304,0.02064
970.159,0.02051
947.014,0.01961
923.869,0.01926
900.724,0.01883
877.579,0.01868
854.434,0.01969
831.289,0.01788
808.144,0.01879
784.999,0.01863
761.854,0.01815
738.709,0.01887
715.565,0.01734
692.42,0.01785
669.275,0.01720
646.13,0.01604
622.985,0.01510
599.84,0.01662