Folder: fsri_materials_database/01_Data/Black_PMMA/FTIR/IS

Note: README.md
# Materials and Products Database
### Repository of materials and products properties and fire test data to improve fire modeling and fire investigation.

This project was supported in part by Award No. 2019-DU-BX-0018, awarded by the National Institute of Justice, Office of Justice Programs, U.S. Department of Justice. The opinions, findings, and conclusions or recommendations expressed in this publication / program / exhibition are those of the author(s) and do not necessarily reflect those of the Department of Justice.

***
***

__Cite this database:__ "McKinnon, M., Weinschenk, C., Dow, N., DiDomizio, M., and Madrzykowski, D. Materials and Products Database (Version 1.0.0), Fire Safety Research Institute, UL Research Institutes. Columbia, MD 21045, 2023."

__Cite the Technical Reference Guide:__ "McKinnon, M., Weinschenk, C., and Madrzykowski, D. Materials and Products Database - Technical Reference Guide, Fire Safety Research Institute, UL Research Institutes. Columbia, MD 21045, 2023."

__Cite the User Guide:__ "McKinnon, M., and Weinschenk, C. Materials and Products Database - User Guide, Fire Safety Research Institute, UL Research Institutes. Columbia, MD 21045, 2023."

***
***

## Database Structure

## 01_Data/
Raw data generated from each apparatus are included here in plain-text format. The data is organized first by material, next by the short name of test apparatus used, and where applicable additional filtering by test settings.

### Test Apparatus and Data File Structure
- __Cone Calorimeter__ (Cone)
    + Data file structure includes the material, the short name for the apparatus, heat flux setting and scan/scalar, date of test, and replicate number. Scan is for the raw output data and scalar is for the initial conditions and high-level test parameters. 
        * Example: __MDF_Cone_HF25scalar_210323_R1__ stands for the first replicate of scalar data generated from a medium density fiber board test in cone calorimeter exposed to 25 kW/m<sup>2</sup> on March 23, 2021.
    + A _Cone_Notes.csv_ is generated for each material from the __plot_Cone_data.py__ script. For materials whose experiments deviated from typical behavior relevant pictures are included in the respective material directory.
- __Fourier Transform Infrared Spectrometer__ (FTIR)
    + The FTIR directory contains subdirectories for the Attenuated Total Reflectance method (ATR) and the Integrating Sphere (IS)
    + Data file structure for the ATR experiment files includes the material, the abbreviated name for the apparatus, date of test, and replicate number. 
        * Example: __MDF_ATR_210323_R5__ stands for the fifth replicate of data collected with the ATR accessory conducted on June 8, 2021.
    + Data file structure for the IS experiment files includes the material, the abbreviated name for the apparatus, the measurand, whether the test is a sample measurement or standard reference, date of test, and replicate number.
        * Example: __OSB_IS_REFLECT_MEAS_2

File: Black_PMMA_IS_S_221012_R1.dpt
7497.03,0.05452
7473.89,0.06095
7450.74,0.04932
7427.6,0.05529
7404.45,0.05242
7381.31,0.05135
7358.16,0.05708
7335.02,0.04836
7311.87,0.05003
7288.73,0.05376
7265.58,0.04303
7242.44,0.06020
7219.29,0.05010
7196.15,0.05349
7173,0.05088
7149.86,0.05866
7126.71,0.05106
7103.57,0.05152
7080.42,0.04932
7057.28,0.05591
7034.13,0.05230
7010.99,0.04725
6987.84,0.05078
6964.7,0.05553
6941.55,0.05045
6918.41,0.04675
6895.26,0.05528
6872.12,0.05589
6848.97,0.05589
6825.83,0.05225
6802.68,0.05765
6779.54,0.05521
6756.39,0.05701
6733.25,0.05068
6710.1,0.05026
6686.96,0.05260
6663.82,0.05139
6640.67,0.05129
6617.53,0.06150
6594.38,0.05198
6571.24,0.05226
6548.09,0.05201
6524.95,0.05751
6501.8,0.05243
6478.66,0.05189
6455.51,0.05407
6432.37,0.04943
6409.22,0.05285
6386.08,0.05833
6362.93,0.05232
6339.79,0.04870
6316.64,0.05385
6293.5,0.05195
6270.35,0.05034
6247.21,0.05401
6224.06,0.05367
6200.92,0.05318
6177.77,0.05297
6154.63,0.05241
6131.48,0.05310
6108.34,0.05161
6085.19,0.05388
6062.05,0.05337
6038.9,0.05146
6015.76,0.04955
5992.61,0.05352
5969.47,0.05235
5946.32,0.04948
5923.18,0.05105
5900.03,0.05017
5876.89,0.05176
5853.74,0.05283
5830.6,0.05222
5807.45,0.05018
5784.31,0.05220
5761.16,0.05301
5738.02,0.05200
5714.87,0.05428
5691.73,0.05379
5668.58,0.05295
5645.44,0.05129
5622.29,0.05214
5599.15,0.05391
5576,0.05487
5552.86,0.05413
5529.71,0.05365
5506.57,0.05461
5483.42,0.05305
5460.28,0.05445
5437.13,0.05438
5413.99,0.05672
5390.84,0.05477
5367.7,0.05552
5344.55,0.05546
5321.41,0.05454
5298.26,0.05220
5275.12,0.05320
5251.97,0.05333
5228.83,0.05258
5205.68,0.05343
5182.54,0.05425
5159.39,0.05383
5136.25,0.05350
5113.1,0.05412
5089.96,0.05395
5066.81,0.05486
5043.67,0.05418
5020.52,0.05473
4997.38,0.05635
4974.23,0.05492
4951.09,0.05537
4927.94,0.05548
4904.8,0.05426
4881.65,0.05546
4858.51,0.05517
4835.36,0.05524
4812.22,0.05530
4789.07,0.05506
4765.93,0.05436
4742.78,0.05442
4719.64,0.05431
4696.49,0.05550
4673.35,0.05542
4650.2,0.05483
4627.06,0.05409
4603.92,0.05403
4580.77,0.05446
4557.63,0.05384
4534.48,0.05413
4511.34,0.05251
4488.19,0.05242
4465.05,0.05177
4441.9,0.05111
4418.76,0.05200
4395.61,0.05219
4372.47,0.05145
4349.32,0.05246
4326.18,0.05301
4303.03,0.05326
4279.89,0.05285
4256.74,0.05324
4233.6,0.05256
4210.45,0.05201
4187.31,0.05177
4164.16,0.05317
4141.02,0.05315
4117.87,0.05320
4094.73,0.05314
4071.58,0.05314
4048.44,0.05325
4025.29,0.05308
4002.15,0.05307
3979,0.05400
3955.86,0.05412
3932.71,0.05434
3909.57,0.05465
3886.42,0.05408
3863.28,0.05408
3840.13,0.05383
3816.99,0.05418
3793.84,0.05457
3770.7,0.05519
3747.55,0.05391
3724.41,0.05450
3701.26,0.05346
3678.12,0.05212
3654.97,0.05166
3631.83,0.05121
3608.68,0.05081
3585.54,0.05146
3562.39,0.05064
3539.25,0.05117
3516.1,0.05163
3492.96,0.05102
3469.81,0.05076
3446.67,0.05126
3423.52,0.05049
3400.38,0.05131
3377.23,0.05101
3354.09,0.05131
3330.94,0.05148
3307.8,0.05158
3284.65,0.05148
3261.51,0.05132
3238.36,0.05184
3215.22,0.05142
3192.07,0.05150
3168.93,0.05109
3145.78,0.05090
3122.64,0.05032
3099.49,0.04986
3076.35,0.05054
3053.2,0.04908
3030.06,0.04779
3006.91,0.04790
2983.77,0.04982
2960.62,0.04861
2937.48,0.05378
2914.33,0.05541
2891.19,0.05353
2868.04,0.05395
2844.9,0.05356
2821.75,0.05290
2798.61,0.05303
2775.46,0.05247
2752.32,0.05281
2729.17,0.05273
2706.03,0.05330
2682.88,0.05244
2659.74,0.05238
2636.59,0.05250
2613.45,0.05187
2590.3,0.05193
2567.16,0.05176
2544.02,0.05210
2520.87,0.05225
2497.73,0.05220
2474.58,0.05204
2451.44,0.05201
2428.29,0.05194
2405.15,0.05123
2382,0.05156
2358.86,0.05142
2335.71,0.05162
2312.57,0.05175
2289.42,0.05128
2266.28,0.05133
2243.13,0.05127
2219.99,0.05113
2196.84,0.05099
2173.7,0.05115
2150.55,0.05039
2127.41,0.05024
2104.26,0.05035
2081.12,0.05002
2057.97,0.04968
2034.83,0.04991
2011.68,0.04962
1988.54,0.04942
1965.39,0.04911
1942.25,0.04911
1919.1,0.04876
1895.96,0.04836
1872.81,0.04763
1849.67,0.04664
1826.52,0.04543
1803.38,0.04357
1780.23,0.04048
1757.09,0.03155
1733.94,0.05938
1710.8,0.07445
1687.65,0.05946
1664.51,0.05527
1641.36,0.05359
1618.22,0.05209
1595.07,0.05113
1571.93,0.04956
1548.78,0.04854
1525.64,0.04719
1502.49,0.04326
1479.35,0.04597
1456.2,0.04598
1433.06,0.05554
1409.91,0.05119
1386.77,0.04996
1363.62,0.04943
1340.48,0.04723
1317.33,0.04446
1294.19,0.03966
1271.04,0.04178
1247.9,0.04412
1224.75,0.05101
1201.61,0.03823
1178.46,0.05374
1155.32,0.06210
1132.17,0.08734
1109.03,0.07495
1085.88,0.06724
1062.74,0.06661
1039.59,0.06315
1016.45,0.05916
993.304,0.05706
970.159,0.06121
947.014,0.06312
923.869,0.06084
900.724,0.06035
877.579,0.05879
854.434,0.05719
831.289,0.06025
808.144,0.06026
784.999,0.05872
761.854,0.05584
738.709,0.06142
715.565,0.05941
692.42,0.05880
669.275,0.05761
646.13,0.05652
622.985,0.05489
599.84,0.05479

File: Black_PMMA_IS_S_221012_R2.dpt
7497.03,0.04775
7473.89,0.05528
7450.74,0.05376
7427.6,0.04371
7404.45,0.04803
7381.31,0.05727
7358.16,0.04611
7335.02,0.04675
7311.87,0.05593
7288.73,0.05063
7265.58,0.04996
7242.44,0.05764
7219.29,0.06232
7196.15,0.05824
7173,0.05576
7149.86,0.05200
7126.71,0.05287
7103.57,0.04926
7080.42,0.05602
7057.28,0.05355
7034.13,0.04824
7010.99,0.04940
6987.84,0.05036
6964.7,0.05370
6941.55,0.05377
6918.41,0.05459
6895.26,0.05546
6872.12,0.05743
6848.97,0.05483
6825.83,0.04749
6802.68,0.05331
6779.54,0.05595
6756.39,0.05412
6733.25,0.05174
6710.1,0.05991
6686.96,0.04812
6663.82,0.04966
6640.67,0.05101
6617.53,0.04792
6594.38,0.05149
6571.24,0.05064
6548.09,0.05026
6524.95,0.05014
6501.8,0.05036
6478.66,0.05288
6455.51,0.05414
6432.37,0.04843
6409.22,0.04985
6386.08,0.05023
6362.93,0.05457
6339.79,0.05222
6316.64,0.05135
6293.5,0.05243
6270.35,0.05081
6247.21,0.05307
6224.06,0.05439
6200.92,0.04973
6177.77,0.05375
6154.63,0.05469
6131.48,0.05452
6108.34,0.05452
6085.19,0.05208
6062.05,0.05351
6038.9,0.05254
6015.76,0.05119
5992.61,0.04898
5969.47,0.04903
5946.32,0.05441
5923.18,0.05231
5900.03,0.05181
5876.89,0.05195
5853.74,0.04915
5830.6,0.05205
5807.45,0.05088
5784.31,0.05098
5761.16,0.05166
5738.02,0.05323
5714.87,0.05526
5691.73,0.05447
5668.58,0.05344
5645.44,0.05390
5622.29,0.05348
5599.15,0.05212
5576,0.05419
5552.86,0.05383
5529.71,0.05473
5506.57,0.05448
5483.42,0.05557
5460.28,0.05308
5437.13,0.05475
5413.99,0.05414
5390.84,0.05550
5367.7,0.05525
5344.55,0.05417
5321.41,0.05485
5298.26,0.05498
5275.12,0.05413
5251.97,0.05540
5228.83,0.05357
5205.68,0.05457
5182.54,0.05459
5159.39,0.05415
5136.25,0.05454
5113.1,0.05408
5089.96,0.05358
5066.81,0.05465
5043.67,0.05575
5020.52,0.05393
4997.38,0.05602
4974.23,0.05596
4951.09,0.05583
4927.94,0.05552
4904.8,0.05435
4881.65,0.05501
4858.51,0.05565
4835.36,0.05489
4812.22,0.05507
4789.07,0.05503
4765.93,0.05437
4742.78,0.05439
4719.64,0.05367
4696.49,0.05361
4673.35,0.05481
4650.2,0.05528
4627.06,0.05462
4603.92,0.05537
4580.77,0.05461
4557.63,0.05392
4534.48,0.05398
4511.34,0.05397
4488.19,0.05278
4465.05,0.05222
4441.9,0.05192
4418.76,0.05155
4395.61,0.05152
4372.47,0.05250
4349.32,0.05207
4326.18,0.05326
4303.03,0.05399
4279.89,0.05281
4256.74,0.05413
4233.6,0.05341
4210.45,0.05223
4187.31,0.05316
4164.16,0.05225
4141.02,0.05330
4117.87,0.05289
4094.73,0.05323
4071.58,0.05383
4048.44,0.05338
4025.29,0.05373
4002.15,0.05406
3979,0.05413
3955.86,0.05427
3932.71,0.05437
3909.57,0.05418
3886.42,0.05463
3863.28,0.05459
3840.13,0.05483
3816.99,0.05422
3793.84,0.05495
3770.7,0.05513
3747.55,0.05579
3724.41,0.05429
3701.26,0.05457
3678.12,0.05350
3654.97,0.05181
3631.83,0.05210
3608.68,0.05106
3585.54,0.05165
3562.39,0.05175
3539.25,0.05116
3516.1,0.05084
3492.96,0.05146
3469.81,0.05081
3446.67,0.05113
3423.52,0.05116
3400.38,0.05153
3377.23,0.05163
3354.09,0.05221
3330.94,0.05135
3307.8,0.05175
3284.65,0.05142
3261.51,0.05191
3238.36,0.05195
3215.22,0.05049
3192.07,0.05164
3168.93,0.05068
3145.78,0.05126
3122.64,0.05101
3099.49,0.04976
3076.35,0.04980
3053.2,0.04862
3030.06,0.04760
3006.91,0.04785
2983.77,0.04996
2960.62,0.04886
2937.48,0.05397
2914.33,0.05584
2891.19,0.05389
2868.04,0.05403
2844.9,0.05421
2821.75,0.05285
2798.61,0.05262
2775.46,0.05281
2752.32,0.05250
2729.17,0.05320
2706.03,0.05261
2682.88,0.05308
2659.74,0.05231
2636.59,0.05293
2613.45,0.05242
2590.3,0.05165
2567.16,0.05221
2544.02,0.05250
2520.87,0.05224
2497.73,0.05243
2474.58,0.05227
2451.44,0.05202
2428.29,0.05172
2405.15,0.05197
2382,0.05161
2358.86,0.05148
2335.71,0.05127
2312.57,0.05229
2289.42,0.05162
2266.28,0.05175
2243.13,0.05130
2219.99,0.05165
2196.84,0.05132
2173.7,0.05110
2150.55,0.05096
2127.41,0.05051
2104.26,0.05043
2081.12,0.05053
2057.97,0.05030
2034.83,0.04991
2011.68,0.04968
1988.54,0.04941
1965.39,0.04932
1942.25,0.04922
1919.1,0.04854
1895.96,0.04869
1872.81,0.04802
1849.67,0.04663
1826.52,0.04566
1803.38,0.04391
1780.23,0.04068
1757.09,0.03139
1733.94,0.05967
1710.8,0.07457
1687.65,0.05904
1664.51,0.05539
1641.36,0.05370
1618.22,0.05171
1595.07,0.05086
1571.93,0.04994
1548.78,0.04872
1525.64,0.04724
1502.49,0.04391
1479.35,0.04595
1456.2,0.04565
1433.06,0.05603
1409.91,0.05137
1386.77,0.05011
1363.62,0.04966
1340.48,0.04780
1317.33,0.04478
1294.19,0.04005
1271.04,0.04188
1247.9,0.04412
1224.75,0.05127
1201.61,0.03829
1178.46,0.05353
1155.32,0.06245
1132.17,0.08826
1109.03,0.07531
1085.88,0.06818
1062.74,0.06575
1039.59,0.06386
1016.45,0.05938
993.304,0.05710
970.159,0.06093
947.014,0.06342
923.869,0.06068
900.724,0.06115
877.579,0.05910
854.434,0.05777
831.289,0.06069
808.144,0.05942
784.999,0.05911
761.854,0.05669
738.709,0.06287
715.565,0.06047
692.42,0.05920
669.275,0.05722
646.13,0.05647
622.985,0.05528
599.84,0.05245

File: Black_PMMA_IS_S_221012_R3.dpt
7497.03,0.04780
7473.89,0.05264
7450.74,0.05035
7427.6,0.04895
7404.45,0.05370
7381.31,0.05362
7358.16,0.05936
7335.02,0.05248
7311.87,0.05385
7288.73,0.05198
7265.58,0.05834
7242.44,0.04956
7219.29,0.05435
7196.15,0.05898
7173,0.05329
7149.86,0.04858
7126.71,0.04888
7103.57,0.05555
7080.42,0.05775
7057.28,0.05564
7034.13,0.05087
7010.99,0.05475
6987.84,0.05465
6964.7,0.05282
6941.55,0.05153
6918.41,0.05046
6895.26,0.05363
6872.12,0.05601
6848.97,0.05328
6825.83,0.05734
6802.68,0.05276
6779.54,0.05279
6756.39,0.05191
6733.25,0.04934
6710.1,0.05562
6686.96,0.05457
6663.82,0.05047
6640.67,0.05406
6617.53,0.05404
6594.38,0.05317
6571.24,0.05394
6548.09,0.05242
6524.95,0.05210
6501.8,0.05484
6478.66,0.05551
6455.51,0.05398
6432.37,0.05213
6409.22,0.05206
6386.08,0.05260
6362.93,0.05587
6339.79,0.05677
6316.64,0.05783
6293.5,0.05066
6270.35,0.05238
6247.21,0.04955
6224.06,0.05012
6200.92,0.05283
6177.77,0.05113
6154.63,0.05233
6131.48,0.05020
6108.34,0.05147
6085.19,0.05804
6062.05,0.05162
6038.9,0.05382
6015.76,0.05242
5992.61,0.05242
5969.47,0.04878
5946.32,0.05125
5923.18,0.05004
5900.03,0.05227
5876.89,0.05241
5853.74,0.05247
5830.6,0.05356
5807.45,0.05272
5784.31,0.05288
5761.16,0.05205
5738.02,0.05364
5714.87,0.05515
5691.73,0.05107
5668.58,0.05219
5645.44,0.05235
5622.29,0.05251
5599.15,0.05330
5576,0.05306
5552.86,0.05236
5529.71,0.05413
5506.57,0.05544
5483.42,0.05361
5460.28,0.05527
5437.13,0.05402
5413.99,0.05458
5390.84,0.05617
5367.7,0.05398
5344.55,0.05485
5321.41,0.05428
5298.26,0.05523
5275.12,0.05391
5251.97,0.05368
5228.83,0.05317
5205.68,0.05532
5182.54,0.05444
5159.39,0.05442
5136.25,0.05551
5113.1,0.05494
5089.96,0.05592
5066.81,0.05540
5043.67,0.05408
5020.52,0.05536
4997.38,0.05440
4974.23,0.05579
4951.09,0.05401
4927.94,0.05485
4904.8,0.05443
4881.65,0.05426
4858.51,0.05530
4835.36,0.05442
4812.22,0.05478
4789.07,0.05439
4765.93,0.05538
4742.78,0.05460
4719.64,0.05498
4696.49,0.05441
4673.35,0.05549
4650.2,0.05450
4627.06,0.05468
4603.92,0.05411
4580.77,0.05455
4557.63,0.05397
4534.48,0.05506
4511.34,0.05414
4488.19,0.05206
4465.05,0.05210
4441.9,0.05189
4418.76,0.05187
4395.61,0.05209
4372.47,0.05174
4349.32,0.05210
4326.18,0.05225
4303.03,0.05304
4279.89,0.05275
4256.74,0.05275
4233.6,0.05241
4210.45,0.05301
4187.31,0.05235
4164.16,0.05244
4141.02,0.05284
4117.87,0.05303
4094.73,0.05291
4071.58,0.05237
4048.44,0.05323
4025.29,0.05347
4002.15,0.05327
3979,0.05415
3955.86,0.05399
3932.71,0.05384
3909.57,0.05403
3886.42,0.05401
3863.28,0.05462
3840.13,0.05423
3816.99,0.05453
3793.84,0.05489
3770.7,0.05467
3747.55,0.05518
3724.41,0.05498
3701.26,0.05370
3678.12,0.05220
3654.97,0.05215
3631.83,0.05170
3608.68,0.05106
3585.54,0.05213
3562.39,0.05133
3539.25,0.05126
3516.1,0.05100
3492.96,0.05151
3469.81,0.05128
3446.67,0.05011
3423.52,0.05110
3400.38,0.05160
3377.23,0.05118
3354.09,0.05148
3330.94,0.05179
3307.8,0.05201
3284.65,0.05163
3261.51,0.05197
3238.36,0.05184
3215.22,0.05069
3192.07,0.05111
3168.93,0.05105
3145.78,0.05047
3122.64,0.05047
3099.49,0.05008
3076.35,0.04946
3053.2,0.04869
3030.06,0.04724
3006.91,0.04724
2983.77,0.04960
2960.62,0.04876
2937.48,0.05445
2914.33,0.05613
2891.19,0.05362
2868.04,0.05370
2844.9,0.05394
2821.75,0.05260
2798.61,0.05281
2775.46,0.05282
2752.32,0.05263
2729.17,0.05288
2706.03,0.05290
2682.88,0.05225
2659.74,0.05237
2636.59,0.05208
2613.45,0.05185
2590.3,0.05142
2567.16,0.05182
2544.02,0.05200
2520.87,0.05178
2497.73,0.05170
2474.58,0.05234
2451.44,0.05176
2428.29,0.05186
2405.15,0.05162
2382,0.05128
2358.86,0.05166
2335.71,0.05206
2312.57,0.05114
2289.42,0.05182
2266.28,0.05165
2243.13,0.05131
2219.99,0.05120
2196.84,0.05101
2173.7,0.05083
2150.55,0.05066
2127.41,0.05085
2104.26,0.05014
2081.12,0.04984
2057.97,0.04980
2034.83,0.05006
2011.68,0.04952
1988.54,0.04933
1965.39,0.04932
1942.25,0.04882
1919.1,0.04885
1895.96,0.04839
1872.81,0.04740
1849.67,0.04674
1826.52,0.04544
1803.38,0.04366
1780.23,0.04019
1757.09,0.03120
1733.94,0.05987
1710.8,0.07402
1687.65,0.05869
1664.51,0.05507
1641.36,0.05321
1618.22,0.05262
1595.07,0.05103
1571.93,0.04965
1548.78,0.04816
1525.64,0.04692
1502.49,0.04365
1479.35,0.04576
1456.2,0.04609
1433.06,0.05592
1409.91,0.05132
1386.77,0.04956
1363.62,0.04963
1340.48,0.04710
1317.33,0.04420
1294.19,0.03984
1271.04,0.04162
1247.9,0.04413
1224.75,0.05095
1201.61,0.03828
1178.46,0.05362
1155.32,0.06175
1132.17,0.08703
1109.03,0.07467
1085.88,0.06764
1062.74,0.06599
1039.59,0.06327
1016.45,0.05915
993.304,0.05684
970.159,0.06047
947.014,0.06342
923.869,0.06100
900.724,0.06105
877.579,0.05887
854.434,0.05783
831.289,0.06078
808.144,0.06028
784.999,0.05880
761.854,0.05570
738.709,0.06177
715.565,0.05991
692.42,0.05848
669.275,0.05749
646.13,0.05628
622.985,0.05478
599.84,0.05278

File: Black_PMMA_IS_S_221012_R4.dpt
7497.03,0.04375
7473.89,0.04617
7450.74,0.05564
7427.6,0.04749
7404.45,0.04354
7381.31,0.05615
7358.16,0.05173
7335.02,0.05459
7311.87,0.05692
7288.73,0.05007
7265.58,0.05574
7242.44,0.04922
7219.29,0.05484
7196.15,0.05827
7173,0.05561
7149.86,0.05257
7126.71,0.04835
7103.57,0.04694
7080.42,0.05088
7057.28,0.05678
7034.13,0.05865
7010.99,0.05290
6987.84,0.04856
6964.7,0.04752
6941.55,0.04883
6918.41,0.05949
6895.26,0.05469
6872.12,0.05053
6848.97,0.05779
6825.83,0.05601
6802.68,0.05230
6779.54,0.04756
6756.39,0.05254
6733.25,0.05348
6710.1,0.05185
6686.96,0.05488
6663.82,0.05549
6640.67,0.05487
6617.53,0.05317
6594.38,0.05057
6571.24,0.05352
6548.09,0.05571
6524.95,0.04943
6501.8,0.04661
6478.66,0.05613
6455.51,0.05275
6432.37,0.05426
6409.22,0.05123
6386.08,0.05283
6362.93,0.05209
6339.79,0.05319
6316.64,0.05134
6293.5,0.05372
6270.35,0.05165
6247.21,0.05354
6224.06,0.05091
6200.92,0.05261
6177.77,0.05314
6154.63,0.05319
6131.48,0.05342
6108.34,0.05348
6085.19,0.05397
6062.05,0.05403
6038.9,0.05433
6015.76,0.05323
5992.61,0.05214
5969.47,0.05010
5946.32,0.05150
5923.18,0.05261
5900.03,0.05369
5876.89,0.05260
5853.74,0.05007
5830.6,0.05553
5807.45,0.05354
5784.31,0.05232
5761.16,0.05418
5738.02,0.05302
5714.87,0.05310
5691.73,0.05151
5668.58,0.05278
5645.44,0.05367
5622.29,0.05274
5599.15,0.05410
5576,0.05351
5552.86,0.05353
5529.71,0.05449
5506.57,0.05428
5483.42,0.05318
5460.28,0.05269
5437.13,0.05441
5413.99,0.05475
5390.84,0.05182
5367.7,0.05236
5344.55,0.05482
5321.41,0.05432
5298.26,0.05505
5275.12,0.05431
5251.97,0.05417
5228.83,0.05307
5205.68,0.05386
5182.54,0.05392
5159.39,0.05540
5136.25,0.05564
5113.1,0.05432
5089.96,0.05495
5066.81,0.05452
5043.67,0.05412
5020.52,0.05511
4997.38,0.05492
4974.23,0.05443
4951.09,0.05409
4927.94,0.05509
4904.8,0.05557
4881.65,0.05412
4858.51,0.05566
4835.36,0.05467
4812.22,0.05622
4789.07,0.05546
4765.93,0.05544
4742.78,0.05408
4719.64,0.05469
4696.49,0.05480
4673.35,0.05372
4650.2,0.05447
4627.06,0.05400
4603.92,0.05464
4580.77,0.05389
4557.63,0.05420
4534.48,0.05395
4511.34,0.05297
4488.19,0.05301
4465.05,0.05183
4441.9,0.05086
4418.76,0.05221
4395.61,0.05113
4372.47,0.05156
4349.32,0.05223
4326.18,0.05325
4303.03,0.05321
4279.89,0.05286
4256.74,0.05286
4233.6,0.05292
4210.45,0.05248
4187.31,0.05266
4164.16,0.05149
4141.02,0.05257
4117.87,0.05280
4094.73,0.05296
4071.58,0.05314
4048.44,0.05297
4025.29,0.05356
4002.15,0.05414
3979,0.05414
3955.86,0.05484
3932.71,0.05371
3909.57,0.05449
3886.42,0.05427
3863.28,0.05380
3840.13,0.05423
3816.99,0.05494
3793.84,0.05455
3770.7,0.05435
3747.55,0.05474
3724.41,0.05481
3701.26,0.05407
3678.12,0.05246
3654.97,0.05137
3631.83,0.05146
3608.68,0.05161
3585.54,0.05164
3562.39,0.05138
3539.25,0.05166
3516.1,0.05161
3492.96,0.05216
3469.81,0.05182
3446.67,0.05089
3423.52,0.05030
3400.38,0.05104
3377.23,0.05161
3354.09,0.05149
3330.94,0.05140
3307.8,0.05210
3284.65,0.05127
3261.51,0.05160
3238.36,0.05159
3215.22,0.05116
3192.07,0.05090
3168.93,0.05048
3145.78,0.05081
3122.64,0.05113
3099.49,0.05026
3076.35,0.04994
3053.2,0.04849
3030.06,0.04770
3006.91,0.04780
2983.77,0.05026
2960.62,0.04852
2937.48,0.05376
2914.33,0.05592
2891.19,0.05377
2868.04,0.05375
2844.9,0.05402
2821.75,0.05291
2798.61,0.05301
2775.46,0.05245
2752.32,0.05270
2729.17,0.05227
2706.03,0.05240
2682.88,0.05246
2659.74,0.05203
2636.59,0.05254
2613.45,0.05174
2590.3,0.05216
2567.16,0.05181
2544.02,0.05197
2520.87,0.05192
2497.73,0.05163
2474.58,0.05193
2451.44,0.05191
2428.29,0.05134
2405.15,0.05161
2382,0.05165
2358.86,0.05164
2335.71,0.05141
2312.57,0.05163
2289.42,0.05119
2266.28,0.05111
2243.13,0.05098
2219.99,0.05111
2196.84,0.05090
2173.7,0.05114
2150.55,0.05068
2127.41,0.05033
2104.26,0.05005
2081.12,0.04987
2057.97,0.04990
2034.83,0.04977
2011.68,0.04958
1988.54,0.04946
1965.39,0.04883
1942.25,0.04884
1919.1,0.04863
1895.96,0.04824
1872.81,0.04730
1849.67,0.04670
1826.52,0.04545
1803.38,0.04375
1780.23,0.04048
1757.09,0.03119
1733.94,0.05950
1710.8,0.07427
1687.65,0.05880
1664.51,0.05491
1641.36,0.05345
1618.22,0.05236
1595.07,0.05083
1571.93,0.04960
1548.78,0.04838
1525.64,0.04707
1502.49,0.04380
1479.35,0.04566
1456.2,0.04562
1433.06,0.05598
1409.91,0.05147
1386.77,0.04968
1363.62,0.04947
1340.48,0.04741
1317.33,0.04448
1294.19,0.04002
1271.04,0.04163
1247.9,0.04408
1224.75,0.05076
1201.61,0.03929
1178.46,0.05364
1155.32,0.06146
1132.17,0.08708
1109.03,0.07491
1085.88,0.06738
1062.74,0.06620
1039.59,0.06339
1016.45,0.05925
993.304,0.05643
970.159,0.06103
947.014,0.06294
923.869,0.06045
900.724,0.06105
877.579,0.05872
854.434,0.05758
831.289,0.06048
808.144,0.05931
784.999,0.05878
761.854,0.05589
738.709,0.06285
715.565,0.05975
692.42,0.05905
669.275,0.05715
646.13,0.05642
622.985,0.05718
599.84,0.05418