Folder: fsri_materials_database/01_Data/PE_Foam_Pipe_Insulation/Cone

Note: README.md
# Materials and Products Database
### Repository of materials and products properties and fire test data to improve fire modeling and fire investigation.

This project was supported in part by Award No. 2019-DU-BX-0018, awarded by the National Institute of Justice, Office of Justice Programs, U.S. Department of Justice. The opinions, findings, and conclusions or recommendations expressed in this publication / program / exhibition are those of the author(s) and do not necessarily reflect those of the Department of Justice.

***
***

__Cite this database:__ "McKinnon, M., Weinschenk, C., Dow, N., DiDomizio, M., and Madrzykowski, D. Materials and Products Database (Version 1.0.0), Fire Safety Research Institute, UL Research Institutes. Columbia, MD 21045, 2023."

__Cite the Technical Reference Guide:__ "McKinnon, M., Weinschenk, C., and Madrzykowski, D. Materials and Products Database - Technical Reference Guide, Fire Safety Research Institute, UL Research Institutes. Columbia, MD 21045, 2023."

__Cite the User Guide:__ "McKinnon, M., and Weinschenk, C. Materials and Products Database - User Guide, Fire Safety Research Institute, UL Research Institutes. Columbia, MD 21045, 2023."

***
***

## Database Structure

## 01_Data/
Raw data generated from each apparatus are included here in plain-text format. The data is organized first by material, next by the short name of test apparatus used, and where applicable additional filtering by test settings.

### Test Apparatus and Data File Structure
- __Cone Calorimeter__ (Cone)
    + Data file structure includes the material, the short name for the apparatus, heat flux setting and scan/scalar, date of test, and replicate number. Scan is for the raw output data and scalar is for the initial conditions and high-level test parameters. 
        * Example: __MDF_Cone_HF25scalar_210323_R1__ stands for the first replicate of scalar data generated from a medium density fiber board test in cone calorimeter exposed to 25 kW/m<sup>2</sup> on March 23, 2021.
    + A _Cone_Notes.csv_ is generated for each material from the __plot_Cone_data.py__ script. For materials whose experiments deviated from typical behavior relevant pictures are included in the respective material directory.
- __Fourier Transform Infrared Spectrometer__ (FTIR)
    + The FTIR directory contains subdirectories for the Attenuated Total Reflectance method (ATR) and the Integrating Sphere (IS)
    + Data file structure for the ATR experiment files includes the material, the abbreviated name for the apparatus, date of test, and replicate number. 
        * Example: __MDF_ATR_210323_R5__ stands for the fifth replicate of data collected with the ATR accessory conducted on June 8, 2021.
    + Data file structure for the IS experiment files includes the material, the abbreviated name for the apparatus, the measurand, whether the test is a sample measurement or standard reference, date of test, and replicate number.
        * Example: __OSB_IS_REFLECT_MEAS_2

File: PE_Foam_Pipe_Insulation_HRRPUA_25.csv
Time after Ignition,PE_Foam_Pipe_Insulation_R1,PE_Foam_Pipe_Insulation_R2,PE_Foam_Pipe_Insulation_R3,Mean,Std. Dev.
0.0,8.9,10.3,5.4,8.2,2.5
0.5,11.2,12.3,6.3,9.9,3.2
1.0,13.0,14.8,6.9,11.6,4.2
1.5,15.3,18.1,8.7,14.0,4.8
2.0,18.6,21.4,10.0,16.6,5.9
2.5,24.1,24.4,12.7,20.4,6.7
3.0,28.8,28.5,14.5,24.0,8.2
3.5,32.1,31.6,17.7,27.1,8.2
4.0,35.7,35.2,20.1,30.3,8.9
4.5,39.9,38.3,24.5,34.2,8.5
5.0,43.7,41.3,27.3,37.4,8.9
5.5,47.2,43.4,31.7,40.8,8.1
6.0,48.9,45.9,35.0,43.3,7.4
6.5,52.0,46.6,39.0,45.9,6.5
7.0,54.3,48.6,41.7,48.2,6.3
7.5,54.4,50.1,43.6,49.4,5.4
8.0,57.0,51.3,46.2,51.5,5.4
8.5,56.0,51.7,46.6,51.5,4.7
9.0,57.0,52.2,49.0,52.8,4.0
9.5,58.3,53.0,50.2,53.9,4.1
10.0,57.1,53.0,51.2,53.8,3.1
10.5,58.6,52.6,51.2,54.2,4.0
11.0,57.7,53.4,52.7,54.6,2.7
11.5,57.4,53.2,52.1,54.2,2.8
12.0,57.0,54.0,53.2,54.8,2.0
12.5,57.5,54.5,52.8,54.9,2.4
13.0,57.7,55.4,53.6,55.6,2.0
13.5,56.9,56.5,54.5,56.0,1.3
14.0,57.8,58.7,54.7,57.1,2.1
14.5,57.5,59.6,55.7,57.6,1.9
15.0,58.5,62.3,55.8,58.8,3.3
15.5,60.0,67.5,55.6,61.0,6.0
16.0,63.8,71.9,57.7,64.5,7.1
16.5,65.2,74.6,59.5,66.4,7.6
17.0,70.3,80.3,60.7,70.4,9.8
17.5,72.2,84.1,63.5,73.3,10.3
18.0,79.0,91.6,67.0,79.2,12.3
18.5,81.6,96.8,71.6,83.3,12.7
19.0,85.3,104.8,77.0,89.0,14.2
19.5,92.3,109.7,81.6,94.5,14.2
20.0,95.1,116.1,90.9,100.7,13.5
20.5,105.8,121.4,98.3,108.5,11.8
21.0,110.3,128.4,109.1,115.9,10.8
21.5,122.5,133.0,116.2,123.9,8.5
22.0,131.8,137.4,128.6,132.6,4.4
22.5,137.8,141.4,134.9,138.0,3.3
23.0,148.8,146.6,153.0,149.4,3.3
23.5,161.9,154.5,161.0,159.1,4.0
24.0,175.1,156.7,173.1,168.3,10.1
24.5,179.0,163.9,183.7,175.6,10.4
25.0,184.7,170.8,196.7,184.0,13.0
25.5,197.6,176.0,213.1,195.6,18.7
26.0,209.5,189.4,227.7,208.9,19.2
26.5,215.8,200.0,235.2,217.0,17.6
27.0,226.0,209.2,244.6,226.6,17.7
27.5,237.8,217.0,258.0,237.6,20.5
28.0,245.3,231.8,260.2,245.7,14.2
28.5,263.2,241.9,268.0,257.7,13.9
29.0,269.4,243.7,275.3,262.8,16.8
29.5,283.5,262.4,269.9,271.9,10.7
30.0,295.8,267.6,271.5,278.3,15.3
30.5,301.9,277.7,278.1,285.9,13.9
31.0,320.4,279.2,284.6,294.7,22.4
31.5,327.8,291.6,283.9,301.1,23.4
32.0,324.9,288.9,288.4,300.7,21.0
32.5,332.7,290.9,292.4,305.3,23.7
33.0,341.8,304.5,289.6,311.9,26.9
33.5,344.0,304.7,300.8,316.5,23.9
34.0,354.1,313.8,296.3,321.4,29.6
34.5,355.5,315.1,309.6,326.7,25.0
35.0,358.4,324.6,311.2,331.4,24.3
35.5,359.3,330.4,311.4,333.7,24.1
36.0,352.8,325.9,323.2,334.0,16.4
36.5,362.5,340.5,320.4,341.1,21.0
37.0,358.0,343.0,343.3,348.1,8.6
37.5,366.1,346.5,334.3,349.0,16.0
38.0,359.1,349.2,339.7,349.3,9.7
38.5,360.1,355.2,347.9,354.4,6.2
39.0,360.1,352.1,344.8,352.3,7.7
39.5,364.3,351.2,361.5,359.0,6.9
40.0,356.5,354.9,355.4,355.6,0.8
40.5,365.4,358.0,364.2,362.5,3.9
41.0,363.4,359.5,367.1,363.3,3.8
41.5,357.7,367.8,376.5,367.3,9.4
42.0,364.3,366.5,374.4,368.4,5.4
42.5,357.0,362.6,371.8,363.8,7.5
43.0,364.1,370.0,380.3,371.5,8.2
43.5,375.1,375.6,379.2,376.6,2.2
44.0,367.5,371.9,389.5,376.3,11.6
44.5,360.0,381.2,389.0,376.7,15.0
45.0,365.0,378.6,387.6,377.1,11.4
45.5,371.3,390.5,388.5,383.4,10.6
46.0,370.7,397.3,392.7,386.9,14.2
46.5,364.4,403.9,395.9,388.0,20.9
47.0,374.7,398.1,400.0,390.9,14.1
47.5,371.6,398.1,389.4,386.3,13.5
48.0,371.1,400.6,389.7,387.1,14.9
48.5,367.8,394.0,399.9,387.2,17.1
49.0,359.0,400.5,396.8,385.4,23.0
49.5,367.6,407.6,388.3,387.8,20.0
50.0,369.8,406.2,404.2,393.4,20.5
50.5,372.9,408.9,391.0,390.9,18.0
51.0,364.2,404.2,391.1,386.5,20.4
51.5,371.3,410.2,385.1,388.9,19.7
52.0,363.8,397.2,380.4,380.5,16.7
52.5,369.8,411.0,384.1,388.3,20.9
53.0,361.2,402.8,388.6,384.2,21.1
53.5,361.5,398.4,392.3,384.1,19.8
54.0,363.5,399.5,381.7,381.6,18.0
54.5,362.3,395.7,382.3,380.1,16.8
55.0,361.7,400.3,385.6,382.5,19.5
55.5,366.3,393.9,379.5,379.9,13.8
56.0,357.3,388.4,374.4,373.4,15.6
56.5,360.2,375.7,371.6,369.2,8.0
57.0,357.2,385.3,373.2,371.9,14.1
57.5,368.9,387.8,382.3,379.7,9.7
58.0,361.7,380.6,378.4,373.6,10.3
58.5,371.1,372.5,378.1,373.9,3.7
59.0,366.8,370.4,378.6,371.9,6.1
59.5,366.6,375.9,373.2,371.9,4.8
60.0,366.6,373.7,371.7,370.7,3.7
60.5,369.6,368.0,375.7,371.1,4.0
61.0,365.1,368.4,377.4,370.3,6.4
61.5,370.4,364.6,380.5,371.8,8.0
62.0,375.0,365.3,380.7,373.7,7.8
62.5,364.7,361.1,383.4,369.7,12.0
63.0,377.1,364.3,373.2,371.6,6.5
63.5,370.5,370.6,379.0,373.4,4.9
64.0,368.0,362.9,380.7,370.5,9.2
64.5,370.3,361.3,379.5,370.4,9.1
65.0,359.6,352.7,385.9,366.1,17.5
65.5,361.6,358.1,374.2,364.6,8.5
66.0,362.1,350.6,380.6,364.4,15.1
66.5,354.1,355.6,389.4,366.4,20.0
67.0,360.7,340.4,374.2,358.5,17.0
67.5,354.3,346.1,384.2,361.5,20.0
68.0,364.5,334.9,386.9,362.1,26.1
68.5,364.4,334.3,372.5,357.1,20.2
69.0,364.0,336.9,376.2,359.0,20.1
69.5,363.7,337.8,373.1,358.2,18.3
70.0,355.9,336.8,376.1,356.3,19.6
70.5,359.8,325.8,373.1,352.9,24.4
71.0,352.7,318.2,360.5,343.8,22.5
71.5,363.2,323.4,363.5,350.1,23.1
72.0,350.8,313.7,363.5,342.7,25.9
72.5,347.2,314.2,363.1,341.5,24.9
73.0,350.0,317.6,352.3,340.0,19.4
73.5,351.9,303.7,345.0,333.5,26.1
74.0,344.5,299.1,339.0,327.5,24.7
74.5,345.2,297.7,330.2,324.4,24.3
75.0,346.3,303.2,326.9,325.4,21.6
75.5,341.4,296.4,315.7,317.8,22.6
76.0,350.4,288.4,300.9,313.2,32.8
76.5,342.2,287.0,284.5,304.5,32.6
77.0,336.7,281.7,277.3,298.6,33.1
77.5,327.2,281.7,267.4,292.1,31.2
78.0,308.9,281.0,252.4,280.8,28.2
78.5,300.5,275.7,241.3,272.5,29.7
79.0,291.4,271.2,224.3,262.3,34.4
79.5,266.3,272.8,210.4,249.9,34.3
80.0,260.3,271.1,198.4,243.3,39.2
80.5,248.4,263.1,188.1,233.2,39.7
81.0,234.7,259.8,174.3,222.9,43.9
81.5,217.7,260.3,154.8,210.9,53.1
82.0,201.0,259.8,139.4,200.1,60.2
82.5,185.7,255.5,122.9,188.0,66.3
83.0,168.1,251.2,110.1,176.4,70.9
83.5,152.9,254.8,97.9,168.5,79.6
84.0,135.7,248.0,87.9,157.2,82.2
84.5,119.2,241.1,77.1,145.8,85.1
85.0,102.0,229.9,69.4,133.8,84.8
85.25,96.7,228.8,65.1,130.2,86.8

File: PE_Foam_Pipe_Insulation_HRRPUA_50.csv
Time after Ignition,PE_Foam_Pipe_Insulation_R1,PE_Foam_Pipe_Insulation_R2,PE_Foam_Pipe_Insulation_R3,Mean,Std. Dev.
0.0,13.0,8.4,17.2,12.9,4.4
0.25,14.2,9.2,19.5,14.3,5.1
0.5,19.4,12.0,21.2,17.5,4.9
0.75,23.8,14.5,25.6,21.3,5.9
1.0,27.6,16.9,29.7,24.7,6.9
1.25,31.5,18.8,32.3,27.5,7.5
1.5,31.2,20.5,36.3,29.3,8.0
1.75,34.6,22.2,38.7,31.9,8.6
2.0,37.8,24.4,41.2,34.5,8.9
2.25,40.6,25.5,43.1,36.4,9.5
2.5,42.7,26.7,45.2,38.2,10.0
2.75,45.2,27.8,47.4,40.1,10.8
3.0,47.7,28.9,49.6,42.1,11.4
3.25,48.6,29.7,51.6,43.3,11.9
3.5,49.8,30.4,52.6,44.3,12.1
3.75,51.8,30.9,54.1,45.6,12.8
4.0,52.8,31.7,55.6,46.7,13.1
4.25,55.2,32.9,57.5,48.5,13.6
4.5,55.5,33.1,57.7,48.8,13.6
4.75,57.4,33.6,58.8,49.9,14.2
5.0,59.1,34.1,59.2,50.8,14.5
5.25,58.7,34.3,60.1,51.1,14.5
5.5,59.8,34.6,61.4,51.9,15.1
5.75,59.7,35.0,62.3,52.4,15.1
6.0,61.1,36.3,63.1,53.5,14.9
6.25,60.4,35.4,63.8,53.2,15.5
6.5,61.0,36.4,64.3,53.9,15.3
6.75,60.8,36.9,64.8,54.2,15.1
7.0,62.1,36.9,65.2,54.8,15.5
7.25,62.2,37.2,65.9,55.1,15.6
7.5,63.4,38.8,67.2,56.5,15.4
7.75,65.2,38.8,69.3,57.8,16.5
8.0,65.4,39.3,70.9,58.5,16.9
8.25,66.9,38.6,71.8,59.1,17.9
8.5,68.7,39.7,72.3,60.2,17.9
8.75,70.6,40.4,75.1,62.0,18.8
9.0,71.9,41.3,74.7,62.7,18.5
9.25,73.5,42.3,76.5,64.1,18.9
9.5,76.5,42.7,78.3,65.8,20.0
9.75,81.2,43.6,80.2,68.3,21.4
10.0,82.2,44.4,81.2,69.2,21.5
10.25,85.1,46.0,81.7,70.9,21.7
10.5,86.6,47.0,84.9,72.8,22.4
10.75,88.1,48.2,88.2,74.8,23.1
11.0,92.2,49.9,89.6,77.2,23.7
11.25,98.1,49.4,90.5,79.3,26.2
11.5,99.9,51.5,92.0,81.1,26.0
11.75,104.2,53.5,95.5,84.4,27.1
12.0,103.8,54.7,100.5,86.3,27.4
12.25,109.5,57.0,100.5,89.0,28.1
12.5,116.6,58.1,102.3,92.4,30.5
12.75,119.8,59.3,104.9,94.7,31.5
13.0,130.9,62.3,112.8,102.0,35.6
13.25,129.5,63.4,117.0,103.3,35.1
13.5,135.8,65.4,122.8,108.0,37.5
13.75,152.5,66.5,126.8,115.3,44.1
14.0,149.5,69.6,130.8,116.7,41.8
14.25,159.6,71.0,142.0,124.2,46.9
14.5,172.9,73.9,146.6,131.1,51.3
14.75,179.2,75.0,158.2,137.5,55.1
15.0,185.6,77.5,167.2,143.4,57.9
15.25,197.4,77.8,182.8,152.7,65.2
15.5,206.3,82.5,196.4,161.7,68.8
15.75,216.7,83.2,205.2,168.4,74.0
16.0,228.1,85.6,224.6,179.4,81.3
16.25,239.1,88.6,230.4,186.0,84.5
16.5,238.8,94.0,243.3,192.0,84.9
16.75,245.9,94.9,255.5,198.7,90.1
17.0,260.6,98.4,264.7,207.9,94.8
17.25,261.8,100.3,277.5,213.2,98.1
17.5,271.5,105.8,279.2,218.8,98.0
17.75,279.3,111.6,298.7,229.9,102.9
18.0,288.9,113.1,309.8,237.3,108.1
18.25,291.3,118.1,309.6,239.7,105.7
18.5,305.2,121.8,321.8,249.6,111.0
18.75,304.9,121.4,336.1,254.1,116.0
19.0,306.2,123.9,335.0,255.0,114.4
19.25,316.3,131.8,343.1,263.7,115.0
19.5,321.3,132.3,340.0,264.6,114.9
19.75,330.8,137.6,354.3,274.2,118.9
20.0,335.2,142.3,369.2,282.2,122.4
20.25,336.1,146.9,356.2,279.7,115.5
20.5,351.1,155.6,379.5,295.4,121.9
20.75,361.0,162.3,374.6,299.3,118.8
21.0,367.5,165.7,380.0,304.4,120.3
21.25,360.8,172.8,396.1,309.9,120.0
21.5,372.4,180.3,391.2,314.6,116.7
21.75,386.2,189.2,406.3,327.2,120.0
22.0,392.8,196.8,415.2,334.9,120.2
22.25,394.6,201.6,426.1,340.8,121.6
22.5,408.7,215.0,422.8,348.8,116.1
22.75,429.0,224.6,427.9,360.5,117.7
23.0,429.8,231.7,445.4,369.0,119.1
23.25,431.4,234.3,445.9,370.5,118.2
23.5,455.1,243.8,461.2,386.7,123.8
23.75,456.5,258.3,463.2,392.7,116.4
24.0,436.5,263.2,472.9,390.9,112.1
24.25,474.7,270.7,474.1,406.5,117.6
24.5,478.6,284.5,484.2,415.7,113.7
24.75,481.7,294.5,488.2,421.5,110.0
25.0,482.8,299.5,512.2,431.5,115.2
25.25,499.9,308.0,500.0,436.0,110.8
25.5,493.2,313.6,496.3,434.4,104.6
25.75,484.0,323.8,521.2,443.0,104.9
26.0,503.5,325.2,500.5,443.1,102.1
26.25,523.0,327.7,529.7,460.1,114.7
26.5,497.9,344.1,535.3,459.1,101.3
26.75,510.9,352.7,533.6,465.7,98.6
27.0,517.2,358.5,523.7,466.5,93.6
27.25,533.9,364.7,539.7,479.4,99.4
27.5,531.9,369.2,533.3,478.2,94.3
27.75,527.9,378.9,551.5,486.1,93.6
28.0,553.7,377.2,574.4,501.8,108.4
28.25,538.2,378.2,568.9,495.1,102.4
28.5,528.8,376.2,583.2,496.1,107.3
28.75,536.9,388.4,571.6,499.0,97.3
29.0,534.3,384.8,567.0,495.4,97.2
29.25,565.1,403.1,581.3,516.5,98.5
29.5,555.1,407.0,583.0,515.0,94.6
29.75,550.4,408.7,587.8,515.6,94.4
30.0,550.6,417.1,604.6,524.1,96.5
30.25,586.4,425.5,593.6,535.1,95.0
30.5,585.1,416.9,609.1,537.0,104.7
30.75,573.0,416.5,599.1,529.5,98.8
31.0,587.9,419.6,606.5,538.0,102.9
31.25,572.5,412.3,600.9,528.6,101.6
31.5,582.1,435.5,619.7,545.8,97.3
31.75,591.2,465.1,621.2,559.1,82.8
32.0,598.4,443.4,607.2,549.7,92.1
32.25,585.3,449.9,621.2,552.1,90.3
32.5,598.0,455.6,607.9,553.8,85.2
32.75,606.6,453.8,623.9,561.5,93.6
33.0,597.2,454.7,628.3,560.1,92.6
33.25,604.3,459.1,616.5,560.0,87.5
33.5,631.7,450.6,626.0,569.5,103.0
33.75,602.5,457.0,605.6,555.0,84.9
34.0,619.1,475.4,609.0,567.8,80.2
34.25,606.9,449.8,628.6,561.7,97.6
34.5,634.1,469.8,624.6,576.2,92.2
34.75,635.9,470.8,640.0,582.3,96.5
35.0,631.1,462.6,615.6,569.8,93.1
35.25,629.1,478.2,604.6,570.6,81.0
35.5,627.8,472.8,627.3,576.0,89.4
35.75,616.0,483.7,625.9,575.2,79.4
36.0,616.1,477.7,614.5,569.4,79.5
36.25,630.5,478.4,632.0,580.3,88.3
36.5,637.4,472.1,608.5,572.7,88.3
36.75,625.5,490.3,641.4,585.7,83.0
37.0,640.4,484.6,632.7,585.9,87.8
37.25,640.9,483.1,625.5,583.2,87.0
37.5,646.9,479.1,642.1,589.4,95.5
37.75,635.9,491.1,625.0,584.0,80.6
38.0,651.2,505.3,633.2,596.6,79.5
38.25,637.3,496.2,627.8,587.1,78.8
38.5,631.4,491.0,615.1,579.2,76.8
38.75,618.6,479.2,630.2,576.0,84.0
39.0,602.3,499.9,650.2,584.1,76.7
39.25,613.9,483.3,633.8,577.0,81.7
39.5,634.5,491.9,650.3,592.2,87.2
39.75,621.0,488.8,631.4,580.4,79.5
40.0,636.9,493.0,627.1,585.7,80.4
40.25,622.3,481.7,648.1,584.0,89.6
40.5,613.1,501.2,660.2,591.5,81.7
40.75,626.9,487.9,647.7,587.5,86.9
41.0,650.0,488.2,650.2,596.2,93.5
41.25,621.6,485.5,664.7,590.6,93.5
41.5,626.4,475.1,659.3,587.0,98.2
41.75,619.3,481.7,640.0,580.3,86.1
42.0,623.4,491.8,630.6,581.9,78.1
42.25,612.0,467.0,625.4,568.1,87.8
42.5,618.1,456.1,635.5,569.9,98.9
42.75,630.2,479.5,654.9,588.2,94.9
43.0,605.5,464.3,648.9,572.9,96.5
43.25,592.9,457.8,636.6,562.4,93.2
43.5,610.6,461.2,633.3,568.4,93.5
43.75,611.9,470.2,641.1,574.4,91.4
44.0,610.0,469.2,679.9,586.4,107.3
44.25,614.0,461.1,661.5,578.9,104.7
44.5,598.4,453.2,667.2,572.9,109.2
44.75,630.5,448.1,656.6,578.4,113.6
45.0,613.4,441.6,660.3,571.8,115.1
45.25,599.8,453.2,627.9,560.3,93.8
45.5,606.3,447.5,656.1,570.0,109.0
45.75,604.3,446.5,641.2,564.0,103.4
46.0,587.2,435.4,649.4,557.3,110.1
46.25,612.8,440.0,648.5,567.1,111.5
46.5,616.1,436.3,629.6,560.6,107.9
46.75,614.3,438.6,665.0,572.6,118.8
47.0,588.7,428.0,628.5,548.4,106.1
47.25,597.1,436.2,640.2,557.8,107.5
47.5,583.9,432.8,635.5,550.7,105.3
47.75,618.3,440.1,620.3,559.6,103.5
48.0,632.1,435.5,625.6,564.4,111.7
48.25,591.5,434.7,611.0,545.7,96.6
48.5,601.7,427.5,608.7,546.0,102.6
48.75,604.3,432.3,607.6,548.1,100.3
49.0,607.4,442.4,589.9,546.5,90.6
49.25,593.8,435.5,592.5,540.6,91.1
49.5,586.4,421.4,589.3,532.3,96.1
49.75,595.5,437.4,580.7,537.9,87.3
50.0,614.8,448.1,563.0,542.0,85.3
50.25,587.7,447.5,560.8,532.0,74.4
50.5,602.1,436.2,558.3,532.2,86.0
50.75,602.4,431.2,541.0,524.9,86.7
51.0,591.0,439.0,526.6,518.9,76.3
51.25,600.4,439.4,513.9,517.9,80.6
51.5,614.8,447.3,518.5,526.9,84.0
51.75,611.8,452.4,498.2,520.8,82.1
52.0,579.4,453.0,496.0,509.5,64.3
52.25,583.6,450.5,488.2,507.4,68.6
52.5,611.2,447.4,471.0,509.9,88.5
52.75,586.1,459.7,473.6,506.5,69.3
53.0,604.1,457.3,475.3,512.2,80.1
53.25,583.5,467.6,461.6,504.2,68.7
53.5,572.6,467.2,455.4,498.4,64.6
53.75,585.1,469.7,454.3,503.0,71.5
54.0,557.5,459.6,443.5,486.9,61.7
54.25,564.9,481.9,428.4,491.8,68.8
54.5,555.7,471.6,422.8,483.4,67.3
54.75,547.7,466.0,418.9,477.5,65.2
55.0,538.8,469.0,418.4,475.4,60.5
55.25,525.1,462.6,402.5,463.4,61.3
55.5,523.0,476.7,389.2,463.0,67.9
55.75,523.4,480.4,381.7,461.8,72.7
56.0,494.0,482.8,377.8,451.5,64.1
56.25,476.6,477.7,370.5,441.6,61.6
56.5,468.4,484.9,361.9,438.4,66.7
56.75,456.6,481.6,351.9,430.0,68.8
57.0,436.9,476.1,340.4,417.8,69.9
57.25,411.5,462.5,323.7,399.2,70.2
57.5,399.6,464.2,,431.9,45.6
57.75,377.3,464.4,,420.8,61.6
58.0,359.1,452.2,,405.7,65.8
58.25,335.6,456.0,,395.8,85.2
58.5,312.3,451.6,,382.0,98.5
58.75,299.3,441.5,,370.4,100.5

File: PE_Foam_Pipe_Insulation_HRRPUA_75.csv
Time after Ignition,PE_Foam_Pipe_Insulation_R1,PE_Foam_Pipe_Insulation_R2,PE_Foam_Pipe_Insulation_R3,Mean,Std. Dev.
0.0,16.1,23.8,25.7,21.9,5.1
0.25,18.1,28.6,25.6,24.1,5.4
0.5,24.2,32.9,31.0,29.4,4.6
0.75,30.1,36.8,35.5,34.1,3.6
1.0,34.1,40.8,39.1,38.0,3.5
1.25,38.8,45.1,42.9,42.3,3.2
1.5,43.6,49.8,46.1,46.5,3.1
1.75,50.4,54.3,49.9,51.5,2.4
2.0,54.0,57.4,52.3,54.6,2.6
2.25,58.6,61.3,58.4,59.4,1.6
2.5,62.2,65.1,61.9,63.1,1.8
2.75,67.8,69.1,66.7,67.8,1.2
3.0,68.3,71.6,69.6,69.9,1.7
3.25,72.9,74.8,73.9,73.9,0.9
3.5,75.3,79.0,76.2,76.8,1.9
3.75,78.6,81.4,80.4,80.1,1.4
4.0,81.2,82.7,81.9,82.0,0.8
4.25,82.9,87.9,83.0,84.6,2.8
4.5,84.5,88.0,85.3,85.9,1.8
4.75,85.8,89.3,88.0,87.7,1.7
5.0,86.7,90.4,92.1,89.8,2.7
5.25,89.2,96.5,93.2,93.0,3.6
5.5,89.3,97.0,96.2,94.2,4.3
5.75,92.8,100.2,98.1,97.0,3.8
6.0,92.9,103.3,103.4,99.9,6.1
6.25,94.7,104.1,109.7,102.8,7.6
6.5,95.9,111.5,113.1,106.8,9.5
6.75,97.9,114.7,119.3,110.6,11.3
7.0,98.7,119.3,121.8,113.2,12.7
7.25,98.8,121.3,130.3,116.8,16.2
7.5,101.0,128.2,137.9,122.4,19.1
7.75,101.6,139.6,145.1,128.8,23.7
8.0,106.1,146.2,154.8,135.7,26.0
8.25,108.5,150.3,153.7,137.5,25.1
8.5,113.0,165.0,167.2,148.4,30.7
8.75,115.6,179.6,177.2,157.5,36.3
9.0,124.6,197.4,184.8,168.9,38.9
9.25,131.6,204.2,195.8,177.2,39.7
9.5,140.2,223.0,205.1,189.4,43.6
9.75,149.8,244.9,217.1,203.9,48.9
10.0,167.7,261.3,232.8,220.6,48.0
10.25,187.6,277.5,244.0,236.4,45.5
10.5,201.2,293.1,245.3,246.5,46.0
10.75,213.3,316.1,257.1,262.2,51.6
11.0,229.8,328.3,278.7,278.9,49.2
11.25,246.9,352.0,284.7,294.5,53.2
11.5,263.4,354.5,302.7,306.9,45.7
11.75,282.1,373.8,325.7,327.2,45.9
12.0,316.9,397.7,356.7,357.1,40.4
12.25,321.3,396.1,379.4,365.6,39.3
12.5,347.8,429.4,383.5,386.9,40.9
12.75,348.0,437.4,383.7,389.7,45.0
13.0,359.3,434.7,394.6,396.2,37.8
13.25,367.3,464.4,421.3,417.7,48.6
13.5,414.3,475.0,465.7,451.6,32.7
13.75,418.0,487.9,484.2,463.4,39.3
14.0,426.9,485.7,472.6,461.7,30.9
14.25,425.5,505.1,496.0,475.5,43.6
14.5,473.3,511.8,535.1,506.7,31.2
14.75,455.5,561.3,548.2,521.6,57.7
15.0,506.6,527.1,563.6,532.4,28.8
15.25,504.2,564.4,587.8,552.1,43.1
15.5,515.9,590.0,597.0,567.6,44.9
15.75,538.3,612.5,622.3,591.0,45.9
16.0,565.1,629.4,663.6,619.4,50.0
16.25,567.2,623.2,680.6,623.7,56.7
16.5,579.9,643.1,675.0,632.7,48.4
16.75,628.5,644.5,703.1,658.7,39.3
17.0,637.8,646.7,705.9,663.4,37.0
17.25,654.2,660.7,695.9,670.3,22.5
17.5,691.5,680.5,735.7,702.6,29.2
17.75,648.4,697.5,736.5,694.1,44.1
18.0,687.5,682.6,768.4,712.8,48.2
18.25,716.5,695.2,736.9,716.2,20.8
18.5,724.8,705.8,795.3,741.9,47.2
18.75,751.6,713.7,746.6,737.3,20.6
19.0,779.6,720.7,790.6,763.6,37.6
19.25,744.3,707.5,813.1,755.0,53.6
19.5,871.9,765.5,811.7,816.3,53.4
19.75,797.4,722.8,823.2,781.1,52.1
20.0,805.0,743.1,802.9,783.7,35.1
20.25,795.7,743.4,833.4,790.8,45.2
20.5,862.5,741.1,809.1,804.2,60.9
20.75,849.5,730.8,820.4,800.2,61.9
21.0,869.3,733.6,814.4,805.8,68.3
21.25,843.5,754.4,853.1,817.0,54.4
21.5,855.3,731.4,844.5,810.4,68.6
21.75,832.8,764.5,836.8,811.4,40.6
22.0,913.0,753.3,829.2,831.8,79.9
22.25,901.6,766.1,857.6,841.8,69.1
22.5,848.0,773.9,888.8,836.9,58.3
22.75,889.2,757.5,855.6,834.1,68.4
23.0,875.7,771.4,833.9,827.0,52.5
23.25,896.4,760.6,884.2,847.0,75.1
23.5,859.6,753.9,841.7,818.4,56.5
23.75,886.1,759.0,879.6,841.6,71.5
24.0,907.8,739.1,840.7,829.2,84.9
24.25,883.9,733.6,844.1,820.5,77.9
24.5,873.5,748.7,866.7,829.7,70.2
24.75,859.0,759.6,836.4,818.3,52.1
25.0,881.3,745.4,795.3,807.4,68.7
25.25,869.4,774.5,814.0,819.3,47.7
25.5,877.0,744.0,825.0,815.4,67.1
25.75,879.4,764.7,834.7,826.3,57.8
26.0,859.6,734.2,828.7,807.5,65.4
26.25,837.8,727.0,814.5,793.1,58.4
26.5,866.8,728.9,800.6,798.8,69.0
26.75,857.8,718.4,821.9,799.4,72.4
27.0,857.9,740.9,808.3,802.4,58.7
27.25,850.0,709.5,761.5,773.7,71.1
27.5,845.8,715.7,780.0,780.5,65.1
27.75,825.8,712.6,813.4,783.9,62.1
28.0,819.5,700.4,806.8,775.6,65.4
28.25,799.6,694.9,806.2,766.9,62.5
28.5,836.0,697.7,773.7,769.1,69.2
28.75,833.4,727.1,783.7,781.4,53.2
29.0,814.2,734.7,787.2,778.7,40.4
29.25,812.6,702.7,741.8,752.3,55.7
29.5,800.6,693.9,742.3,745.6,53.4
29.75,804.5,687.9,759.3,750.5,58.8
30.0,793.4,672.6,771.7,745.9,64.4
30.25,792.9,680.2,728.4,733.8,56.5
30.5,759.1,667.3,752.7,726.4,51.2
30.75,767.2,667.8,767.8,734.2,57.6
31.0,770.4,669.2,756.0,731.9,54.7
31.25,757.0,658.5,770.6,728.7,61.2
31.5,758.5,656.2,755.4,723.4,58.2
31.75,749.9,649.4,758.9,719.4,60.8
32.0,745.7,654.2,748.6,716.2,53.7
32.25,724.6,651.2,741.5,705.8,48.0
32.5,736.3,626.7,742.8,702.0,65.3
32.75,745.5,628.5,746.5,706.8,67.8
33.0,725.5,623.3,749.0,699.3,66.8
33.25,751.4,619.0,725.8,698.7,70.2
33.5,727.0,606.6,715.7,683.1,66.5
33.75,729.8,623.9,763.0,705.5,72.6
34.0,706.4,606.0,768.3,693.6,81.9
34.25,704.8,612.6,730.1,682.5,61.8
34.5,734.3,609.3,730.7,691.4,71.1
34.75,716.7,605.1,732.8,684.9,69.5
35.0,700.1,597.3,736.6,678.0,72.2
35.25,716.5,599.5,757.7,691.2,82.1
35.5,690.7,594.6,732.4,672.6,70.6
35.75,695.5,583.1,740.6,673.1,81.1
36.0,687.2,577.2,720.4,661.6,75.0
36.25,714.4,585.2,704.2,667.9,71.9
36.5,672.6,562.0,693.7,642.8,70.7
36.75,695.9,560.7,724.5,660.4,87.5
37.0,696.9,562.4,703.0,654.1,79.4
37.25,668.4,548.4,701.7,639.5,80.6
37.5,659.1,542.6,696.4,632.7,80.2
37.75,673.8,563.0,694.6,643.8,70.7
38.0,647.8,533.0,680.0,620.3,77.3
38.25,674.4,536.5,700.2,637.1,88.0
38.5,638.7,536.1,688.9,621.3,77.9
38.75,628.1,523.7,683.6,611.8,81.2
39.0,639.9,519.9,671.6,610.5,80.0
39.25,634.3,515.3,677.7,609.1,84.1
39.5,623.1,507.3,649.7,593.4,75.7
39.75,601.1,504.9,642.3,582.8,70.5
40.0,608.8,501.1,635.9,582.0,71.3
40.25,606.7,504.1,615.5,575.4,62.0
40.5,589.6,488.1,633.2,570.3,74.4
40.75,574.2,478.6,592.3,548.4,61.1
41.0,572.0,470.5,601.2,547.9,68.6
41.25,560.2,478.2,571.5,536.6,50.9
41.5,549.2,467.2,566.4,527.6,53.1
41.75,527.9,451.9,559.3,513.0,55.2
42.0,524.5,458.9,550.8,511.4,47.3
42.25,519.5,450.4,528.5,499.5,42.7
42.5,490.9,433.7,523.9,482.9,45.6
42.75,493.1,423.8,504.5,473.8,43.7
43.0,466.3,416.4,482.2,455.0,34.3
43.25,442.4,412.6,466.2,440.4,26.9
43.5,423.8,401.2,452.7,425.9,25.8
43.75,398.6,389.3,440.7,409.5,27.3
44.0,369.4,374.8,425.3,389.9,30.8
44.25,347.0,368.8,400.9,372.3,27.1
44.5,320.9,,376.5,348.7,39.3
44.75,302.6,,,302.6,
45.0,281.2,,,281.2,
45.25,262.5,,,262.5,
45.5,242.7,,,242.7,
45.75,228.0,,,228.0,
46.0,213.8,,,213.8,
46.25,196.9,,,196.9,