Folder: fsri_materials_database/01_Data/HIPS/Cone (part 5)

File: HIPS_Cone_HF75Scan_220218_R3.csv
Names,Time,Stack TC,Smoke TC,Exh Press,Smoke Comp,Smoke Meas,CO Meter,CO2 Meter,O2 Meter,Sample Mass,Ext Coeff,Start Test,Flame Verif
Chan Gain,,500,500,1,1,1,1,1,1,1,1,1.0,1.0
Offset,,0,0,0.134285,0,0,0,0,0,0,0,0.0,0.0
Gain,,1,1,25.011,13.3843,12.7012,1,1,1,1.00088,1.02252,1.0,1.0
Units,sec,C,C,Pa,%,%,%,%,%,g,/m,,
Baseline,,50.5569,49.6248,151.252,100.834,93.7023,-0.000505934,0.0469659,21.0121,-0.319363,0.658132,,
10,2.25,44.7657,44.5253,153.824,100.623,93.6143,-0.000305166,0.0559356,21.0065,514.31,0.647559,0.0,0.0
20,4.75,44.9448,43.8256,155.622,100.577,94.231,-0.000496708,0.0537977,21.0107,514.23,0.584587,0.0,0.0
30,7.25,44.687,44.4555,154.906,100.543,93.4372,-0.000713586,0.0521862,21.0121,514.33,0.657444,0.0,0.0
40,9.75,45.1554,44.7534,152.429,100.506,93.5624,-0.00071795,0.0511142,21.0118,514.31,0.642153,0.0,0.0
50,12.25,45.2344,44.6321,151.774,100.45,92.9216,-0.000493173,0.051016,21.0098,514.3,0.698793,0.0,0.0
60,14.75,45.0837,44.6223,150.766,100.403,91.3499,-7.33516e-05,0.0528722,21.0019,514.29,0.847541,0.0,0.0
70,17.25,45.176,44.854,150.212,100.345,80.2836,0.0026475,0.0685829,20.9426,514.26,2.0006,0.0,1.0
80,19.75,46.1809,46.3528,135.375,100.299,42.6254,0.00930018,0.145328,20.6882,513.93,7.67526,0.0,1.0
90,22.25,47.9986,48.9602,129.733,100.264,43.7154,0.0177071,0.291708,20.3566,513.59,7.44561,0.0,0.0
100,24.75,52.2131,53.4052,120.524,100.227,41.0141,0.0268694,0.46055,20.0499,513.199,8.01446,0.0,0.0
110,27.25,56.2883,58.5814,120.675,100.241,36.8407,0.0349629,0.616969,19.8005,512.779,8.97821,0.0,0.0
120,29.75,60.5332,64.2264,121.569,100.238,28.4428,0.0437713,0.768525,19.5915,512.268,11.2985,0.0,0.0
130,32.25,65.9362,70.4444,114.487,100.26,28.4688,0.0530655,0.911341,19.4029,511.738,11.2922,0.0,0.0
140,34.75,69.9424,77.1617,108.421,100.254,24.5524,0.0609163,1.05778,19.1705,511.128,12.6191,0.0,0.0
150,37.25,75.2591,83.3112,104.426,100.266,23.9287,0.0679047,1.1937,18.9655,510.497,12.851,0.0,0.0
160,39.75,80.2444,90.2107,103.968,100.255,21.7352,0.0742218,1.32234,18.7968,509.886,13.7124,0.0,0.0
170,42.25,85.2178,96.8043,107.956,100.25,22.6019,0.0814312,1.43305,18.6154,509.196,13.3613,0.0,0.0
180,44.75,90.8572,104.334,101.4,100.268,22.5659,0.0881225,1.55066,18.4537,508.445,13.3772,0.0,0.0
190,47.25,95.7665,110.497,98.6211,100.252,18.0246,0.0944596,1.65977,18.298,507.755,15.3912,0.0,0.0
200,49.75,100.565,117.22,100.702,100.252,17.9789,0.101287,1.7657,18.1089,506.974,15.414,0.0,0.0
210,52.25,105.824,124.647,91.3928,100.234,17.5742,0.108421,1.89232,17.9406,506.173,15.6165,0.0,0.0
220,54.75,110.673,131.547,85.782,100.235,15.0404,0.116713,2.01137,17.8138,505.302,17.0131,0.0,0.0
230,57.25,116.211,138.622,99.5248,100.231,14.302,0.126653,2.1283,17.6175,504.422,17.4643,0.0,0.0
240,59.75,121.63,145.517,83.9761,100.234,13.7586,0.140163,2.27433,17.3618,503.461,17.812,0.0,0.0
250,62.25,126.988,153.422,94.9276,100.233,13.8919,0.151862,2.43618,17.0995,502.52,17.7254,0.0,0.0
260,64.75,133.182,162.139,79.3781,100.254,13.1217,0.161698,2.58988,16.9109,501.569,18.2388,0.0,0.0
270,67.25,138.35,169.933,84.157,100.268,12.2667,0.173944,2.70787,16.7523,500.708,18.8446,0.0,0.0
280,69.75,143.907,177.22,91.4852,100.289,11.4062,0.186269,2.82676,16.5679,499.597,19.4987,0.0,0.0
290,72.25,148.896,185.086,74.9183,100.307,10.938,0.197059,2.92743,16.4233,498.486,19.8763,0.0,0.0
300,74.75,153.845,191.865,79.4873,100.318,10.2794,0.207292,3.03308,16.256,497.536,20.4343,0.0,0.0
310,77.25,159.171,199.768,81.6313,100.339,13.1725,0.216946,3.1441,16.1333,496.395,18.2119,0.0,0.0
320,79.75,163.71,207.057,83.7693,100.345,11.824,0.224047,3.23602,16.0327,495.214,19.1811,0.0,0.0
330,82.25,168.973,213.869,84.1143,100.389,8.67664,0.22752,3.32128,15.8844,494.243,21.9611,0.0,0.0
340,84.75,173.878,220.779,84.4646,100.421,8.99758,0.227773,3.42033,15.791,493.112,21.6381,0.0,0.0
350,87.25,177.074,226.803,78.1027,100.464,11.7298,0.229119,3.46796,15.7483,491.911,19.2635,0.0,0.0
360,89.75,181.936,232.01,83.8914,100.496,10.4023,0.228622,3.50385,15.764,490.89,20.3436,0.0,0.0
370,92.25,184.121,236.87,87.2521,100.544,10.0778,0.223603,3.45684,15.8948,489.829,20.6321,0.0,0.0
380,94.75,186.785,238.864,85.2744,100.574,13.4051,0.21381,3.38816,15.9992,488.838,18.0759,0.0,0.0
390,97.25,188.53,240.919,85.5988,100.638,13.0717,0.201689,3.28758,16.1764,487.807,18.3074,0.0,0.0
400,99.75,190.268,243.258,85.8431,100.661,13.0528,0.185713,3.16812,16.3426,486.906,18.3225,0.0,0.0
410,102.25,190.157,243.609,89.2259,100.704,15.2687,0.164494,2.99524,16.6863,486.116,16.9199,0.0,0.0
420,104.75,189.47,240.947,95.4138,100.722,18.3351,0.136875,2.74388,17.2513,485.485,15.28,0.0,0.0
430,107.25,187.999,238.403,105.08,100.765,23.0197,0.110566,2.42161,17.7315,484.865,13.2429,0.0,0.0
440,109.75,184.816,232.592,115.019,100.785,27.0373,0.0848199,2.09009,18.3355,484.454,11.8018,0.0,0.0
450,112.25,181.249,226.636,119.154,100.815,35.0232,0.0644342,1.72429,18.9589,484.154,9.4832,0.0,0.0
460,114.75,175.406,219.35,128.013,100.827,49.3392,0.047362,1.36959,19.4123,483.894,6.41042,0.0,0.0
470,117.25,169.591,209.775,135.435,100.845,75.2063,0.0317821,1.06651,19.8839,483.794,2.63116,0.0,0.0
480,119.75,162.731,200.271,140.813,100.852,90.0886,0.0219451,0.805894,20.2907,483.774,1.01226,0.0,0.0
490,122.25,155.849,190.244,143.348,100.847,90.1619,0.0165774,0.590815,20.5563,483.754,1.0046,0.0,0.0
500,124.75,150.007,181.908,144.389,100.854,90.6665,0.0135909,0.451816,20.7132,483.764,0.955085,0.0,0.0
510,127.25,144.16,174.049,141.775,100.851,90.5219,0.0117947,0.351106,20.8096,483.774,0.969144,0.0,0.0
520,129.75,138.783,165.898,141.99,100.844,90.5526,0.0108437,0.285526,20.864,483.734,0.965494,0.0,0.0
530,132.25,134.389,159.612,141.313,100.835,90.8363,0.0103076,0.240826,20.9002,483.724,0.936669,0.0,0.0
540,134.75,130.462,153.279,143.474,100.828,90.0971,0.00976457,0.205863,20.9223,483.703,1.0093,0.0,0.0
550,137.25,126.1,147.343,144.526,100.824,91.0654,0.00906342,0.179354,20.9404,483.703,0.913097,0.0,0.0
560,139.75,122.417,141.73,146.134,100.809,90.8638,0.00826655,0.158964,20.9542,483.673,0.931591,0.0,0.0
570,142.25,118.699,136.665,146.655,100.777,90.1343,0.0072317,0.142431,20.9636,483.653,1.00106,0.0,0.0
580,144.75,115.521,132.226,146.847,100.768,90.7723,0.00620408,0.128755,20.9712,483.643,0.93699,0.0,0.0
590,147.25,112.322,127.315,145.546,100.727,90.6875,0.00528808,0.117956,20.9793,483.643,0.941783,0.0,0.0
600,149.75,109.192,122.936,143.287,100.702,91.17,0.00437167,0.108239,20.9844,483.623,0.891888,0.0,0.0
610,152.25,106.445,119.446,142.517,100.632,90.6549,0.00332803,0.099439,20.9895,483.653,0.936487,0.0,0.0
620,154.75,103.711,115.909,141.176,100.57,90.9786,0.0025367,0.0925817,20.9947,483.633,0.898986,0.0,0.0
630,157.25,101.524,112.257,149.188,100.5,91.803,0.00192521,0.086626,20.9991,483.653,0.81184,0.0,0.0
640,159.75,99.35,109.049,144.175,100.401,91.529,0.00161146,0.0812205,21.0017,483.653,0.829791,0.0,0.0
650,162.25,96.5052,106.338,145.525,100.322,90.4192,0.00141404,0.0768021,21.0028,483.633,0.932196,0.0,0.0
660,164.75,95.1782,103.24,145.082,100.194,91.2464,0.0011918,0.0731855,21.0044,483.643,0.839079,0.0,0.0
670,167.25,92.5535,100.553,146.859,100.06,91.084,0.000959684,0.0698167,21.007,483.673,0.84302,0.0,0.0
680,169.75,91.0681,97.9962,146.276,100.041,90.5406,0.00072331,0.0668938,21.0078,483.653,0.894972,0.0,0.0
690,172.25,88.9139,95.0767,147.622,100.069,90.7727,0.000447519,0.0645538,21.0078,483.643,0.874564,0.0,0.0
700,174.75,87.5993,93.2265,146.29,100.095,91.2305,0.000176759,0.062411,21.0086,483.673,0.831751,0.0,0.0
710,177.25,86.425,91.065,146.691,100.123,90.8603,-7.52928e-05,0.060314,21.0096,483.663,0.870744,0.0,0.0
720,179.75,84.2143,89.4732,144.186,100.133,90.2716,1.20538e-05,0.0587634,21.0109,483.673,0.92997,0.0,0.0
730,182.25,83.6313,87.337,146.033,100.199,90.3068,0.000171399,0.0573977,21.0119,483.653,0.932319,0.0,0.0
740,184.75,82.12,85.6863,141.709,100.223,91.3821,0.000155667,0.056069,21.0123,483.693,0.828348,0.0,0.0
750,187.25,80.5305,84.0427,145.986,100.253,90.7836,0.000154775,0.0550343,21.0132,483.653,0.889952,0.0,0.0
760,189.75,79.4543,82.5812,147.236,100.28,90.9964,0.00015864,0.0540803,21.0143,483.663,0.871363,0.0,0.0
770,192.25,78.464,80.7878,148.748,100.316,91.791,0.000117771,0.0532201,21.014,483.653,0.796557,0.0,0.0
780,194.75,77.3941,79.6192,146.282,100.326,90.9724,0.000119528,0.0524118,21.0131,483.633,0.877824,0.0,0.0
790,197.25,75.8997,78.1817,142.333,100.346,91.4255,9.45278e-05,0.0518163,21.0128,483.653,0.835085,0.0,0.0
800,199.75,75.5001,77.1704,148.523,100.332,91.3336,6.11843e-05,0.0512442,21.0127,483.653,0.84286,0.0,0.0
810,202.25,73.8912,75.5086,148.465,100.316,91.3049,1.83857e-05,0.0505723,21.0126,483.613,0.844181,0.0,0.0
820,204.75,73.6251,74.8539,149.838,100.301,91.9735,3.42435e-05,0.0500033,21.0137,483.563,0.777384,0.0,0.0
830,207.25,72.7309,73.9773,146.561,100.269,91.4778,2.22896e-05,0.0496326,21.0145,483.613,0.823013,0.0,0.0
840,209.75,72.0115,72.994,147.17,100.234,92.0201,4.45538e-05,0.0492121,21.0148,483.603,0.766858,0.0,0.0
850,212.25,70.8806,71.5479,147.233,100.154,91.7712,5.33775e-05,0.0488259,21.0149,483.643,0.784015,0.0,0.0
860,214.75,70.8032,70.9234,147.941,100.087,91.1968,-8.62236e-07,0.0485378,21.0149,483.623,0.834334,0.0,0.0
870,217.25,69.4147,70.0028,152.141,99.9599,92.2414,-3.78402e-05,0.0483259,21.0156,483.603,0.720787,0.0,0.0
880,219.75,69.2731,69.2012,147.339,99.839,91.4747,-4.36572e-05,0.0479493,21.0158,483.643,0.784796,0.0,0.0
890,222.25,67.8023,68.3158,146.972,99.6793,90.7336,-6.64388e-05,0.0476696,21.0159,483.623,0.843401,0.0,0.0
900,224.75,67.8871,67.8372,146.863,99.54,91.3545,-0.000136298,0.0474818,21.0155,483.633,0.769685,0.0,0.0
910,227.25,67.2281,66.6002,143.577,99.3643,91.2948,-0.000171275,0.0473884,21.0152,483.613,0.759706,0.0,0.0
920,229.75,66.6396,66.509,150.01,99.2152,90.8638,,0.0471732,,483.623,0.788685,0.0,0.0
930,232.25,66.3056,65.8242,149.402,99.0711,91.1654,,,,483.603,0.745922,0.0,0.0
940,234.75,65.1876,64.5932,149.104,98.9542,90.0533,,,,483.663,0.845424,0.0,0.0
950,237.25,65.105,64.4973,149.455,98.8832,90.8475,,,,483.593,0.760221,0.0,0.0
957,239,64.8359,64.8828,150.082,98.8223,91.4487,,,,483.593,0.695539,0.0,0.0

File: HIPS_HRRPUA_25.csv
Time after Ignition,HIPS_R1,HIPS_R2,HIPS_R3,Mean,Std. Dev.
0.0,20.9,13.2,113.0,49.0,55.5
0.75,34.1,23.6,152.0,69.9,71.3
1.5,49.7,34.8,177.7,87.4,78.6
2.25,66.6,47.3,212.4,108.8,90.3
3.0,86.2,64.4,245.7,132.1,99.0
3.75,106.5,84.6,289.0,160.0,112.2
4.5,130.2,108.4,321.7,186.8,117.4
5.25,169.7,143.1,355.3,222.7,115.6
6.0,211.0,190.8,394.6,265.5,112.3
6.75,256.2,235.6,404.0,298.6,91.9
7.5,291.5,290.2,432.5,338.1,81.8
8.25,327.4,329.7,440.0,365.7,64.3
9.0,343.8,364.4,449.3,385.8,55.9
9.75,380.0,399.6,463.0,414.2,43.3
10.5,397.0,417.0,471.1,428.4,38.3
11.25,426.6,446.7,474.3,449.2,24.0
12.0,436.1,453.6,488.3,459.3,26.6
12.75,470.7,479.4,493.1,481.1,11.3
13.5,457.0,493.6,508.1,486.2,26.3
14.25,493.2,503.0,499.7,498.6,5.0
15.0,496.2,514.1,505.9,505.4,9.0
15.75,504.6,535.3,533.1,524.3,17.1
16.5,507.2,528.8,533.1,523.1,13.9
17.25,498.6,552.4,537.2,529.4,27.7
18.0,527.9,552.6,526.3,535.6,14.8
18.75,540.6,545.7,545.2,543.8,2.8
19.5,545.0,565.3,510.5,540.3,27.7
20.25,530.9,569.3,544.9,548.4,19.4
21.0,553.4,573.9,538.1,555.1,18.0
21.75,552.1,560.1,532.4,548.2,14.3
22.5,583.9,589.7,554.7,576.1,18.8
23.25,551.1,590.0,556.9,566.0,21.0
24.0,557.0,628.2,528.5,571.2,51.4
24.75,581.9,598.0,572.4,584.1,12.9
25.5,596.6,596.8,550.5,581.3,26.7
26.25,592.9,625.1,551.3,589.8,37.0
27.0,578.3,646.4,574.8,599.9,40.4
27.75,597.9,628.7,580.9,602.5,24.2
28.5,575.3,632.4,575.6,594.5,32.9
29.25,603.5,624.2,579.4,602.4,22.4
30.0,604.6,658.6,595.3,619.5,34.2
30.75,614.7,625.3,633.1,624.3,9.2
31.5,628.6,679.2,617.7,641.9,32.8
32.25,599.9,664.7,633.4,632.7,32.4
33.0,622.2,665.1,617.2,634.9,26.3
33.75,653.8,664.7,612.3,643.6,27.6
34.5,608.8,707.5,659.9,658.8,49.4
35.25,624.4,666.9,637.7,643.0,21.8
36.0,622.6,707.9,621.1,650.5,49.7
36.75,640.0,701.0,680.2,673.7,31.0
37.5,653.6,706.1,679.6,679.8,26.3
38.25,655.3,725.2,675.1,685.2,36.0
39.0,631.1,684.1,688.8,668.0,32.0
39.75,647.4,712.4,721.5,693.8,40.4
40.5,649.0,783.3,687.2,706.5,69.2
41.25,657.1,737.2,712.8,702.4,41.1
42.0,674.2,756.5,707.5,712.8,41.4
42.75,653.6,740.8,740.4,711.6,50.2
43.5,674.2,773.9,723.4,723.9,49.9
44.25,674.5,791.4,710.5,725.5,59.9
45.0,699.3,794.6,749.8,747.9,47.7
45.75,673.6,783.6,749.1,735.4,56.3
46.5,688.8,817.6,760.3,755.6,64.5
47.25,712.0,846.5,769.5,776.0,67.5
48.0,690.9,831.1,778.3,766.8,70.8
48.75,694.2,867.6,768.0,776.6,87.0
49.5,704.8,867.8,801.2,791.3,81.9
50.25,722.1,849.3,757.6,776.3,65.6
51.0,725.3,827.3,751.7,768.1,52.9
51.75,705.8,821.4,798.3,775.1,61.2
52.5,732.8,833.9,777.3,781.3,50.6
53.25,733.1,875.0,794.2,800.8,71.1
54.0,766.8,860.2,797.6,808.2,47.6
54.75,714.6,876.3,796.3,795.7,80.9
55.5,751.1,896.1,812.0,819.7,72.8
56.25,776.8,901.5,773.8,817.4,72.9
57.0,734.9,887.0,805.6,809.1,76.1
57.75,762.2,914.8,806.0,827.7,78.6
58.5,787.5,859.4,811.7,819.5,36.6
59.25,766.0,909.7,841.3,839.0,71.9
60.0,789.3,908.0,840.8,846.0,59.5
60.75,766.5,922.8,830.0,839.8,78.6
61.5,801.0,934.0,834.5,856.5,69.2
62.25,744.8,957.8,873.6,858.7,107.3
63.0,767.7,914.3,847.0,843.0,73.3
63.75,825.4,926.3,821.1,857.6,59.5
64.5,789.2,946.6,854.7,863.5,79.0
65.25,800.2,940.0,880.8,873.7,70.2
66.0,790.5,916.6,863.4,856.8,63.3
66.75,840.3,931.0,901.3,890.8,46.2
67.5,794.0,934.5,861.3,863.3,70.2
68.25,807.7,979.0,899.2,895.3,85.7
69.0,847.2,1005.6,878.8,910.5,83.8
69.75,843.8,970.4,888.6,900.9,64.2
70.5,843.2,973.0,884.5,900.2,66.3
71.25,851.9,952.6,883.5,896.0,51.5
72.0,839.8,986.6,879.8,902.1,75.9
72.75,821.5,967.7,870.2,886.5,74.5
73.5,867.8,983.7,934.2,928.5,58.2
74.25,892.0,968.2,894.6,918.3,43.3
75.0,843.9,980.7,882.2,902.3,70.6
75.75,844.0,953.9,933.8,910.6,58.5
76.5,884.7,927.9,908.9,907.2,21.7
77.25,900.5,985.9,904.9,930.4,48.1
78.0,875.6,1008.8,908.7,931.1,69.4
78.75,858.3,993.3,900.0,917.2,69.1
79.5,878.3,1004.9,933.9,939.0,63.5
80.25,902.1,1020.0,916.2,946.1,64.4
81.0,838.4,968.6,856.8,887.9,70.5
81.75,891.9,973.9,941.9,935.9,41.3
82.5,872.3,988.4,906.8,922.5,59.6
83.25,874.2,945.8,868.6,896.2,43.0
84.0,896.9,1030.8,894.5,940.7,78.0
84.75,872.2,997.2,875.0,914.8,71.4
85.5,893.5,968.3,902.4,921.4,40.8
86.25,853.4,1000.7,971.2,941.8,77.9
87.0,908.5,973.8,944.0,942.1,32.7
87.75,907.9,1000.2,900.9,936.3,55.4
88.5,874.5,1024.0,924.6,941.0,76.1
89.25,885.1,1007.8,900.4,931.1,66.8
90.0,872.9,997.4,925.9,932.1,62.5
90.75,851.5,1057.6,919.5,942.9,105.0
91.5,845.6,1023.7,938.9,936.1,89.1
92.25,875.0,993.5,872.7,913.7,69.1
93.0,885.6,1025.5,933.9,948.3,71.0
93.75,930.3,1041.1,937.5,969.6,62.0
94.5,873.8,984.9,927.8,928.8,55.5
95.25,902.9,970.8,909.1,927.6,37.5
96.0,876.1,1009.3,934.3,939.9,66.8
96.75,890.7,1066.1,881.3,946.1,104.1
97.5,890.3,958.0,873.1,907.2,44.9
98.25,917.8,1002.1,903.2,941.0,53.4
99.0,907.5,978.0,935.6,940.3,35.5
99.75,930.6,1019.1,906.9,952.2,59.1
100.5,926.3,1005.7,922.3,951.4,47.0
101.25,887.1,1005.5,919.3,937.3,61.2
102.0,883.5,987.5,926.9,932.7,52.2
102.75,911.9,949.8,926.1,929.3,19.1
103.5,912.1,1012.1,967.7,964.0,50.1
104.25,887.5,972.2,921.8,927.2,42.6
105.0,879.6,1013.5,903.7,932.3,71.4
105.75,913.5,1008.9,917.2,946.5,54.1
106.5,910.4,919.3,915.9,915.2,4.5
107.25,889.2,950.1,941.6,927.0,33.0
108.0,909.1,996.5,946.8,950.8,43.8
108.75,887.9,922.3,892.5,900.9,18.7
109.5,916.5,979.4,894.3,930.1,44.1
110.25,917.2,951.3,875.9,914.8,37.8
111.0,903.5,923.0,961.5,929.3,29.5
111.75,891.5,959.0,910.9,920.5,34.8
112.5,871.8,990.5,941.1,934.4,59.6
113.25,867.0,950.3,968.3,928.5,54.0
114.0,899.2,923.7,921.6,914.8,13.5
114.75,859.6,905.9,912.3,892.6,28.8
115.5,875.1,933.6,971.8,926.9,48.7
116.25,898.7,972.7,944.3,938.6,37.3
117.0,886.3,936.8,926.8,916.6,26.7
117.75,882.9,921.2,945.3,916.5,31.5
118.5,881.3,896.0,930.6,902.6,25.4
119.25,841.1,910.2,944.3,898.5,52.6
120.0,861.2,925.8,903.8,896.9,32.8
120.75,884.9,879.0,852.0,872.0,17.6
121.5,860.2,866.7,926.9,884.6,36.8
122.25,817.1,866.8,876.1,853.3,31.7
123.0,857.5,884.5,983.6,908.5,66.4
123.75,874.7,851.4,844.8,857.0,15.7
124.5,846.6,862.2,878.8,862.6,16.1
125.25,845.1,852.3,944.4,880.6,55.4
126.0,855.3,804.2,896.2,851.9,46.1
126.75,855.9,781.3,893.5,843.6,57.1
127.5,794.1,815.0,874.1,827.7,41.5
128.25,862.5,759.8,848.0,823.4,55.6
129.0,872.4,746.4,865.0,827.9,70.7
129.75,818.2,750.4,866.6,811.7,58.4
130.5,838.6,721.9,836.9,799.1,66.9
131.25,839.8,705.6,822.8,789.4,73.1
132.0,789.7,672.1,833.2,765.0,83.4
132.75,824.7,654.3,798.8,759.3,91.9
133.5,806.1,628.1,821.7,752.0,107.6
134.25,748.9,597.7,756.5,701.0,89.6
135.0,790.7,562.6,790.7,714.7,131.7
135.75,772.5,531.1,769.1,690.9,138.4
136.5,775.6,521.7,761.7,686.3,142.8
137.25,755.3,491.0,738.9,661.7,148.0
138.0,717.7,472.9,699.5,630.0,136.4
138.75,738.9,442.6,674.6,618.7,155.9
139.5,693.6,410.3,652.7,585.5,153.1
140.25,705.0,385.4,643.2,577.9,169.5
141.0,682.0,370.9,609.9,554.3,162.9
141.75,677.3,340.8,593.3,537.1,175.2
142.5,649.1,316.2,563.1,509.5,172.8
143.25,644.3,285.5,534.8,488.2,183.9
144.0,620.9,247.6,517.6,462.0,192.8
144.75,581.9,214.6,482.9,426.5,190.0
145.5,589.7,188.0,457.7,411.8,204.7
146.25,566.5,160.4,431.4,386.1,206.8
147.0,534.5,137.7,407.9,360.0,202.7
147.75,507.0,118.5,380.2,335.2,198.1
148.5,507.6,,349.9,428.8,111.5
149.25,483.0,,322.9,402.9,113.2
150.0,467.0,,286.1,376.5,127.9
150.75,446.0,,260.7,353.4,131.0
151.5,434.6,,225.7,330.1,147.7
152.25,392.5,,195.9,294.2,139.0
153.0,367.6,,165.7,266.6,142.8
153.75,333.2,,140.8,237.0,136.0
154.5,289.6,,124.4,207.0,116.8
155.25,250.8,,108.5,179.7,100.6
156.0,212.9,,94.1,153.5,84.0
156.75,185.4,,83.7,134.5,71.9
157.5,161.1,,75.2,118.1,60.7
158.25,143.1,,66.5,104.8,54.2
159.0,124.0,,58.1,91.0,46.6
159.75,109.8,,52.3,81.1,40.6
160.5,96.6,,45.7,71.1,36.0
161.25,87.2,,40.8,64.0,32.8
162.0,79.8,,36.4,58.1,30.7
162.75,71.4,,,71.4,
163.5,65.6,,,65.6,
164.25,60.0,,,60.0,
165.0,55.2,,,55.2,
165.75,49.6,,,49.6,
166.5,45.7,,,45.7,
167.25,42.2,,,42.2,
168.0,39.3,,,39.3,
168.75,36.4,,,36.4,
169.5,34.7,,,34.7,
170.25,32.6,,,32.6,
171.0,30.8,,,30.8,
171.75,29.0,,,29.0,
172.5,27.4,,,27.4,
173.25,26.6,,,26.6,
174.0,25.9,,,25.9,
174.75,25.2,,,25.2,
175.5,24.0,,,24.0,
176.25,23.5,,,23.5,
177.0,22.7,,,22.7,
177.75,20.7,,,20.7,
178.5,19.7,,,19.7,
179.25,18.5,,,18.5,
180.0,17.4,,,17.4,
180.75,16.2,,,16.2,
181.5,15.1,,,15.1,
182.25,13.9,,,13.9,
183.0,12.9,,,12.9,
183.75,11.8,,,11.8,
184.5,10.8,,,10.8,
185.25,9.9,,,9.9,
186.0,9.1,,,9.1,
186.75,8.2,,,8.2,
187.5,7.4,,,7.4,
188.25,6.7,,,6.7,
189.0,5.9,,,5.9,
189.75,5.3,,,5.3,
190.5,4.7,,,4.7,
191.25,4.1,,,4.1,
192.0,3.7,,,3.7,
192.75,3.2,,,3.2,
193.5,2.9,,,2.9,
194.25,2.4,,,2.4,
195.0,1.9,,,1.9,
195.75,1.4,,,1.4,
196.5,0.9,,,0.9,
197.25,0.6,,,0.6,
197.75,0.4,,,0.4,