Folder: fsri_materials_database/01_Data/HIPS/Cone (part 2)

File: HIPS_Cone_HF25Scan_220218_R3.csv
Names,Time,Stack TC,Smoke TC,Exh Press,Smoke Comp,Smoke Meas,CO Meter,CO2 Meter,O2 Meter,Sample Mass,Ext Coeff,Start Test,Flame Verif
Chan Gain,,500,500,1,1,1,1,1,1,1,1,1.0,1.0
Offset,,0,0,0.134285,0,0,0,0,0,0,0,0.0,0.0
Gain,,1,1,25.011,13.3843,12.7012,1,1,1,1.00088,1.02252,1.0,1.0
Units,sec,C,C,Pa,%,%,%,%,%,g,/m,,
Baseline,,21.4363,20.8581,155.368,100.22,97.6802,0.000106534,0.0498375,21.0064,0.00717295,0.230215,,
18,4.25,19.7467,19.2078,153.981,99.4566,97.0183,0.0002562,0.0523379,21.0051,897.996,0.222644,0.0,0.0
36,8.75,19.6251,19.0027,151.402,99.7091,97.2443,0.000246659,0.0505823,21.0067,897.966,0.224513,0.0,0.0
54,13.25,19.6395,19.1644,156.164,99.9901,97.4447,0.000155063,0.0487998,21.0099,897.956,0.231292,0.0,0.0
72,17.75,20.0593,19.5631,150.399,100.239,97.6683,0.000109451,0.0474226,21.0108,897.966,0.233016,0.0,0.0
90,22.25,19.834,19.972,153.054,100.476,97.754,-1.25345e-05,0.0466997,21.0108,897.936,0.246362,0.0,0.0
108,26.75,19.8754,20.1879,156.312,100.686,98.4369,-0.000144604,0.0481673,21.0097,897.956,0.202636,0.0,0.0
126,31.25,19.9391,19.6781,156.671,100.847,98.235,-0.000196044,0.0494622,21.009,897.946,0.235381,0.0,0.0
144,35.75,19.9701,19.6939,151.379,100.955,98.3846,-0.000167195,0.0489031,21.0107,897.936,0.231317,0.0,0.0
162,40.25,19.7189,20.0603,152.488,101,98.4831,-2.90995e-05,0.0484188,21.0116,898.286,0.226372,0.0,0.0
180,44.75,20.2712,20.3046,151.718,101.014,98.2393,-1.48182e-05,0.0485712,21.0116,897.946,0.249838,0.0,0.0
198,49.25,19.879,19.7941,157.415,100.982,98.1474,-0.000175604,0.0495689,21.0088,897.946,0.2554,0.0,0.0
216,53.75,20.2139,20.311,155.026,100.895,97.9683,-0.000174365,0.0492241,21.0095,897.936,0.264013,0.0,0.0
234,58.25,19.8797,19.6202,150.263,100.78,97.514,-4.67608e-05,0.0483598,21.0119,897.956,0.295492,0.0,0.0
252,62.75,20.225,19.8048,154.095,100.693,97.6644,0.000239353,0.0478548,21.0128,897.916,0.273886,0.0,0.0
270,67.25,20.1004,19.9457,151.422,100.604,97.4485,-5.61821e-05,0.0474214,21.0126,897.926,0.285873,0.0,0.0
288,71.75,20.2486,19.7677,155.676,100.465,97.3582,3.61348e-05,0.047177,21.012,897.896,0.281728,0.0,0.0
306,76.25,19.8038,20.4152,151.587,100.392,97.2039,0.000195983,0.0469082,21.0119,897.916,0.289421,0.0,0.0
324,80.75,19.8172,20.0872,155.332,100.294,96.7148,0.000147983,0.046856,21.012,897.906,0.325947,0.0,0.0
342,85.25,20.1055,19.6943,154.922,100.334,97.114,4.85052e-05,0.0467153,21.0124,897.866,0.29254,0.0,0.0
360,89.75,20.2976,20.5706,155.684,100.597,97.2861,0.000159943,0.0475641,21.0115,897.866,0.300178,0.0,0.0
378,94.25,19.9767,20.3999,155.287,100.762,97.3877,0.000227941,0.0494148,21.0084,897.866,0.305522,0.0,0.0
396,98.75,19.8844,20.3076,154.696,100.887,97.4098,-4.50038e-06,0.0497935,21.0077,897.836,0.31457,0.0,0.0
414,103.25,20.5398,20.0181,151.404,100.925,97.1508,-7.60384e-05,0.0492278,21.006,897.826,0.341892,0.0,0.0
432,107.75,20.2177,20.2662,154.044,100.875,96.8295,-5.85466e-05,0.0487157,21.0074,897.846,0.367107,0.0,0.0
450,112.25,20.043,20.1416,155.205,100.735,97.0419,-0.000160158,0.0486097,21.0087,897.816,0.334985,0.0,0.0
468,116.75,20.0533,20.2733,152.785,100.5,96.3613,-6.07639e-06,0.0475505,21.0119,897.806,0.377182,0.0,0.0
486,121.25,20.0601,20.5046,155.713,100.167,96.4694,-8.19532e-06,0.0469347,21.014,897.826,0.337398,0.0,0.0
504,125.75,20.1156,20.5464,156.38,100.205,96.2745,-0.000322002,0.0470383,21.0129,897.786,0.358909,0.0,0.0
522,130.25,20.4577,20.4425,155.76,100.306,95.7368,0.000177115,0.0473466,21.0113,897.766,0.418162,0.0,0.0
540,134.75,20.1054,20.8485,156.624,100.375,96.0686,0.000342799,0.0491255,21.0096,897.726,0.393338,0.0,0.0
558,139.25,20.5992,20.7872,152.512,100.459,95.4454,0.000170977,0.0486752,21.009,897.726,0.459236,0.0,0.0
576,143.75,20.8945,20.5655,158.119,100.503,96.0462,0.000454691,0.0528318,21.0024,897.686,0.406818,0.0,0.0
594,148.25,20.0216,20.6873,149.282,100.514,87.1137,0.00214855,0.0815303,20.9508,897.606,1.28336,0.0,1.0
612,152.75,21.7332,23.236,135.692,100.479,58.4973,0.0102819,0.255603,20.6314,897.296,4.85218,0.0,1.0
630,157.25,26.5797,29.8567,128.923,100.415,50.5284,0.0225346,0.582816,20.1372,896.635,6.16002,0.0,0.0
648,161.75,32.0659,37.3948,122.25,100.366,48.1787,0.0286435,0.753194,19.9269,896.004,6.58275,0.0,0.0
666,166.25,37.5595,44.9081,119.506,100.25,46.0953,0.0311786,0.822371,19.821,895.374,6.96892,0.0,0.0
684,170.75,42.2923,50.8663,111.08,100.11,47.362,0.0330582,0.868219,19.7546,894.823,6.71322,0.0,0.0
702,175.25,46.9109,57.1255,107.701,99.9407,43.9379,0.0353376,0.918047,19.679,894.113,7.37113,0.0,0.0
720,179.75,52.2205,64.0916,108.78,99.7793,43.0506,0.0395498,0.993234,19.5525,893.412,7.53961,0.0,0.0
738,184.25,56.8598,70.0234,113.463,99.6098,41.0793,0.0432621,1.06653,19.4665,892.672,7.94479,0.0,0.0
756,188.75,61.9508,76.8796,115.49,99.4575,41.4382,0.0468459,1.16198,19.308,891.861,7.85303,0.0,0.0
774,193.25,68.1632,85.2059,107.536,99.2998,36.2446,0.0501275,1.26698,19.1518,890.95,9.03993,0.0,0.0
792,197.75,73.2897,91.567,111.047,99.1393,34.669,0.0533729,1.35755,19.0261,890.099,9.42407,0.0,0.0
810,202.25,78.3412,98.5072,98.0822,99.0286,35.9244,0.0569212,1.42923,18.9032,889.058,9.09498,0.0,0.0
828,206.75,83.4189,105.844,106.73,98.922,34.1496,0.0624361,1.50418,18.8089,888.188,9.53978,0.0,0.0
846,211.25,89.2342,112.664,105.396,98.873,32.0828,0.0672208,1.57811,18.6933,887.117,10.0953,0.0,0.0
864,215.75,93.3924,118.293,101.063,98.8174,31.1937,0.0711696,1.64742,18.5867,886.116,10.3423,0.0,0.0
882,220.25,98.5382,124.975,103.762,98.8109,32.0317,0.0723896,1.68425,18.5315,885.045,10.104,0.0,0.0
900,224.75,103.185,130.396,112.563,98.828,29.7424,0.0749921,1.73014,18.4615,883.934,10.7706,0.0,0.0
918,229.25,107.525,136.321,102.186,98.8799,29.5696,0.078486,1.78387,18.3899,882.843,10.8276,0.0,0.0
936,233.75,111.722,140.994,99.6889,98.9547,29.6754,0.0797188,1.81445,18.346,881.702,10.8023,0.0,0.0
954,238.25,115.789,145.76,105.749,99.0437,27.8428,0.0825591,1.84307,18.3011,880.571,11.3822,0.0,0.0
972,242.75,118.887,149.621,105.874,99.1552,28.0385,0.083083,1.83085,18.307,879.44,11.3294,0.0,0.0
990,247.25,121.676,152.92,100.935,99.2659,28.2048,0.0851957,1.86914,18.2424,878.299,11.2864,0.0,0.0
1008,251.75,125.124,157.046,96.8915,99.3868,28.2145,0.0855395,1.89918,18.2076,877.208,11.2942,0.0,0.0
1026,256.25,128.501,161.011,91.7455,99.5118,28.4451,0.0860803,1.92951,18.1745,876.057,11.2325,0.0,0.0
1044,260.75,131.31,164.034,89.6045,99.6184,28.8362,0.0869601,1.93817,18.1599,874.896,11.1196,0.0,0.0
1062,265.25,133.387,166.783,95.6054,99.7454,27.8199,0.0882606,1.94005,18.1595,873.745,11.4529,0.0,0.0
1080,269.75,135.433,168.805,100.799,99.8529,28.1478,0.086325,1.90495,18.2016,872.614,11.3574,0.0,0.0
1098,274.25,136.41,169.76,115.038,99.9746,32.2728,0.0839849,1.88121,18.2295,871.533,10.1417,0.0,0.0
1116,278.75,137.783,170.837,99.5767,100.071,30.5235,0.0782077,1.80108,18.3557,870.512,10.6502,0.0,0.0
1134,283.25,138.688,170.774,103.124,100.158,35.4527,0.0715034,1.68607,18.5284,869.551,9.31529,0.0,0.0
1152,287.75,138.176,168.938,111.863,100.223,40.2746,0.060214,1.48297,18.8452,868.741,8.17724,0.0,0.0
1170,292.25,134.039,162.964,117.618,100.307,45.9081,0.0452749,1.1595,19.3426,868.16,7.0105,0.0,0.0
1188,296.75,129.161,154.736,131.874,100.376,56.2867,0.0291395,0.803208,19.8453,867.75,5.1885,0.0,0.0
1206,301.25,121.658,143.604,140.626,100.448,87.7831,0.0155913,0.470662,20.3161,867.7,1.20886,0.0,0.0
1224,305.75,113.179,131.601,147.406,100.499,91.4421,0.00739275,0.234738,20.7185,867.65,0.847094,0.0,0.0
1242,310.25,105.627,121.105,145.061,100.53,94.0023,0.00365244,0.1362,20.8726,867.65,0.602228,0.0,0.0
1260,314.75,98.0911,110.687,143.752,100.564,93.9538,0.00178038,0.0927255,20.9407,867.64,0.609876,0.0,0.0
1278,319.25,91.61,102.345,147.294,100.558,94.1302,0.00124705,0.0744109,20.9684,867.63,0.592508,0.0,0.0
1296,323.75,86.267,94.9437,146.925,100.566,94.4581,0.000976085,0.0677233,20.9734,867.62,0.562009,0.0,0.0
1314,328.25,81.8375,88.4057,144.534,100.55,95.0112,0.000525529,0.0646665,20.9762,867.65,0.508254,0.0,0.0
1332,332.75,77.135,82.3872,145.29,100.532,94.3011,0.000203172,0.062868,20.9774,867.65,0.573904,0.0,0.0
1350,337.25,73.2477,76.99,151.563,100.493,95.1105,0.000263015,0.0614602,20.9789,867.61,0.493716,0.0,0.0
1368,341.75,69.4774,72.3282,150.721,100.463,94.1876,0.000148961,0.0604742,20.9805,867.62,0.578515,0.0,0.0
1386,346.25,66.193,67.8861,143.375,100.419,94.945,0.00029216,0.0595948,20.9808,867.62,0.502738,0.0,0.0
1404,350.75,63.204,64.7147,150.098,100.37,94.9081,0.000405317,0.058845,20.9815,867.63,0.501838,0.0,0.0
1422,355.25,60.7978,60.6744,151.504,100.335,94.8512,0.000229609,0.058375,20.981,867.61,0.504158,0.0,0.0
1440,359.75,59.0639,58.1079,154.95,100.281,95.3485,0.000242968,0.0580385,20.9809,867.61,0.45236,0.0,0.0
1458,364.25,55.641,54.8885,147.907,100.251,95.0225,4.20289e-05,0.0579312,20.9834,867.63,0.480446,0.0,0.0
1476,368.75,54.7809,53.6387,147.734,100.215,94.7577,0.000384648,0.0571672,20.9828,867.63,0.502254,0.0,0.0
1494,373.25,52.6389,51.1706,151.767,100.158,95.2485,0.000200334,0.0568699,20.9825,867.64,0.450768,0.0,0.0
1512,377.75,51.12,49.5735,147.486,100.127,95.6853,0.000138477,0.056592,20.9846,867.65,0.406945,0.0,0.0
1530,382.25,49.405,47.5802,151.689,100.07,95.1488,-5.36824e-06,0.0564507,20.9852,867.64,0.452323,0.0,0.0
1548,386.75,47.8345,45.7632,148.821,100.022,96.1051,0.000129747,0.0564511,20.9878,867.64,0.358272,0.0,0.0
1566,391.25,46.5031,43.6892,149.8,99.9619,95.6175,0.000632193,0.0560898,20.9878,867.63,0.398549,0.0,0.0
1584,395.75,45.7906,43.1877,145.253,99.9194,95.1469,0.000759411,0.0561932,20.9852,867.64,0.438986,0.0,0.0
1602,400.25,44.8378,42.1677,145.817,99.8247,95.1306,0.000647229,0.0560183,20.9863,867.66,0.43201,0.0,0.0
1620,404.75,44.0143,41.1074,146.623,99.7773,95.7113,0.000378061,0.056349,20.9869,867.65,0.373171,0.0,0.0
1638,409.25,43.0757,40.0774,149.935,99.7066,94.8988,0.000229499,0.0561504,20.987,867.67,0.443278,0.0,0.0
1656,413.75,41.6538,38.9381,150.947,99.5784,94.4969,0.000546996,0.0556291,20.9896,867.67,0.469805,0.0,0.0
1674,418.25,40.7941,37.6754,149.892,99.4044,95.2551,0.000454321,0.0544997,20.9915,867.67,0.382441,0.0,0.0
1692,422.75,40.0514,37.1096,149.907,99.2565,94.7546,,0.0537383,,867.66,0.416333,0.0,0.0
1710,427.25,39.6948,36.9821,145.317,99.1058,94.5942,,,,867.66,0.417905,0.0,0.0
1728,431.75,39.308,36.8942,148.298,98.9551,94.5721,,,,867.66,0.406349,0.0,0.0
1733,433,38.9111,36.0979,153.849,98.944,95.0205,,,,867.67,0.362917,0.0,0.0

File: HIPS_Cone_HF50Scalar_220218_R1.csv
LABORATORY,FSRI
TEST IDENT,PlasticB_HF50_1
OPERATOR,Dow
MATERIAL,Plastic B
ORIENTATION,Horizontal
HEAT FLUX,50
SURF AREA,0.01
C FACTOR,0.0385692
SPEC HOLDER DIFF,299.86
SPECIMEN MASS,31.5
SCAN TIME,0.25
O2 DELAY TIME,11
CO DELAY TIME,11
CO2 DELAY TIME,8
FLOW FACTOR,1
SCAN COUNT,1110
TIME TO IGN,36.75
END OF TEST SCAN,630
END OF TEST TIME,157.5
TEST STATUS,1
PRE TEST CMT,Dimensions: 99.80 x 100.12 x 2.93 mm

File: HIPS_Cone_HF50Scalar_220218_R2.csv
LABORATORY,FSRI
TEST IDENT,PlasticB_HF50_2
OPERATOR,Dow
MATERIAL,Plastic B
ORIENTATION,Horizontal
HEAT FLUX,50
SURF AREA,0.01
C FACTOR,0.0385692
SPEC HOLDER DIFF,299.21
SPECIMEN MASS,31.7
SCAN TIME,0.25
O2 DELAY TIME,11
CO DELAY TIME,11
CO2 DELAY TIME,8
FLOW FACTOR,1
SCAN COUNT,1138
TIME TO IGN,37.5
END OF TEST SCAN,658
END OF TEST TIME,164.5
TEST STATUS,1
PRE TEST CMT,Dimensions: 100.03 x 100.04 x 2.91 mm

File: HIPS_Cone_HF50Scalar_220218_R3.csv
LABORATORY,FSRI
TEST IDENT,PlasticB_HF50_3
OPERATOR,Dow
MATERIAL,Plastic B
ORIENTATION,Horizontal
HEAT FLUX,50
SURF AREA,0.01
C FACTOR,0.0385692
SPEC HOLDER DIFF,299.8
SPECIMEN MASS,31.4
SCAN TIME,0.25
O2 DELAY TIME,11
CO DELAY TIME,11
CO2 DELAY TIME,8
FLOW FACTOR,1
SCAN COUNT,1098
TIME TO IGN,34.5
END OF TEST SCAN,618
END OF TEST TIME,154.5
TEST STATUS,1
PRE TEST CMT,Dimensions: 99.95 x 99.82 x 2.93 mm

File: HIPS_Cone_HF50Scan_220218_R1.csv
Names,Time,Stack TC,Smoke TC,Exh Press,Smoke Comp,Smoke Meas,CO Meter,CO2 Meter,O2 Meter,Sample Mass,Ext Coeff,Start Test,Flame Verif
Chan Gain,,500,500,1,1,1,1,1,1,1,1,1.0,1.0
Offset,,0,0,0.134285,0,0,0,0,0,0,0,0.0,0.0
Gain,,1,1,25.011,13.3843,12.7012,1,1,1,1.00088,1.02252,1.0,1.0
Units,sec,C,C,Pa,%,%,%,%,%,g,/m,,
Baseline,,27.4813,28.8729,150.695,100.242,96.3853,1.18734e-05,0.0472266,21.0154,-0.0312357,0.351909,,
12,2.75,24.2392,25.2876,149.759,100.673,97.2249,-2.36868e-05,0.0478278,21.0151,898.246,0.312635,0.0,0.0
24,5.75,24.7637,25.5353,150.452,100.816,97.4055,-0.000177829,0.0476441,21.0139,898.297,0.308679,0.0,0.0
36,8.75,24.7073,25.5907,151.821,100.907,97.5997,-7.44635e-05,0.047323,21.0135,898.307,0.298879,0.0,0.0
48,11.75,24.7359,25.6902,153.275,100.954,97.0338,-4.96625e-05,0.0469665,21.0134,898.297,0.355211,0.0,0.0
60,14.75,24.9233,26.1913,153.745,100.963,97.1667,-0.000105495,0.0465781,21.0147,898.297,0.343765,0.0,0.0
72,17.75,25.2329,25.9348,152.221,100.931,96.1566,-0.000170706,0.0462503,21.0154,898.236,0.434629,0.0,0.0
84,20.75,25.2558,26.2504,151.499,100.851,96.8047,-0.000245528,0.0461769,21.0148,898.206,0.367298,0.0,0.0
96,23.75,25.4507,26.4119,151.679,100.723,95.8958,-0.000270462,0.0465693,21.0142,898.997,0.440537,0.0,0.0
108,26.75,25.5796,26.6931,148.461,100.548,95.2702,-0.000121664,0.0477891,21.0124,897.626,0.483662,0.0,0.0
120,29.75,25.4174,27.0814,149.882,100.336,95.3012,8.01383e-05,0.0484852,21.0109,898.206,0.461813,0.0,0.0
132,32.75,25.7237,26.7058,151.645,100.191,94.9337,0.000224833,0.0492535,21.0084,898.266,0.483419,0.0,0.0
144,35.75,25.5498,27.2134,150.222,100.242,94.7535,0.000887057,0.0555238,20.9979,898.156,0.505034,0.0,0.0
156,38.75,26.0976,28.1384,140.587,100.275,70.1023,0.0048234,0.121138,20.9081,898.036,3.21071,0.0,1.0
168,41.75,27.4915,29.8323,129.7,100.33,51.1156,0.013058,0.314227,20.5587,897.716,6.04875,0.0,0.0
180,44.75,30.3691,33.9811,124.303,100.378,46.7535,0.0212941,0.539563,20.2033,897.376,6.85319,0.0,0.0
192,47.75,35.1474,40.1002,117.499,100.441,44.4639,0.0282123,0.708015,19.9671,896.905,7.30915,0.0,0.0
204,50.75,39.2998,45.7807,114.717,100.472,40.3149,0.0342288,0.845013,19.7757,896.475,8.1906,0.0,0.0
216,53.75,42.9032,51.5545,112.903,100.516,37.0299,0.040059,0.964274,19.5786,895.934,8.95683,0.0,0.0
228,56.75,48.4488,58.9042,114.445,100.533,33.3588,0.0450989,1.08389,19.4069,895.384,9.89476,0.0,0.0
240,59.75,52.7141,65.037,106.842,100.525,33.812,0.0493152,1.17798,19.3037,894.783,9.7731,0.0,0.0
252,62.75,57.723,71.6095,104.337,100.481,33.048,0.0548544,1.26935,19.1442,894.153,9.97418,0.0,0.0
264,65.75,62.7173,78.51,97.6784,100.443,30.7153,0.0600849,1.375,18.9714,893.472,10.6273,0.0,0.0
276,68.75,67.7828,85.4974,104.52,100.397,31.3518,0.0655678,1.46851,18.8433,892.782,10.4393,0.0,0.0
288,71.75,72.8194,92.7685,107.894,100.331,27.4044,0.0701867,1.55015,18.7273,892.081,11.6404,0.0,0.0
300,74.75,77.748,99.4267,94.9016,100.232,24.8702,0.0753168,1.6375,18.5909,891.31,12.5018,0.0,0.0
312,77.75,82.5858,106.006,100.306,100.108,25.4904,0.0821062,1.76471,18.3745,890.6,12.2698,0.0,0.0
324,80.75,88.2387,113.999,90.525,100.029,22.5193,0.0897926,1.92214,18.1714,889.729,13.3743,0.0,0.0
336,83.75,93.168,121.022,95.0527,99.9239,21.7899,0.0982764,2.04399,18.0135,888.878,13.6602,0.0,0.0
348,86.75,99.1423,129.057,93.7353,99.8124,22.35,0.107445,2.14012,17.8576,887.907,13.4226,0.0,0.0
360,89.75,104.532,136.423,83.5761,99.7005,18.118,0.117177,2.24266,17.7016,887.047,15.2953,0.0,0.0
372,92.75,109.799,143.376,82.3381,99.569,20.3092,0.123802,2.32947,17.5622,886.016,14.2595,0.0,0.0
384,95.75,114.685,150.051,95.5313,99.4436,17.5723,0.12796,2.42089,17.4365,885.105,15.5465,0.0,0.0
396,98.75,119.567,156.732,100.738,99.3341,18.1417,0.132415,2.50812,17.2841,884.004,15.2506,0.0,0.0
408,101.75,124.776,163.849,92.0203,99.2345,18.6401,0.13797,2.61631,17.1526,883.063,14.9985,0.0,0.0
420,104.75,129.208,170.192,82.1068,99.1458,15.8381,0.143997,2.70083,17.0497,882.022,16.4516,0.0,0.0
432,107.75,134.09,176.87,82.8022,99.0666,17.0161,0.148533,2.7737,16.9467,880.901,15.801,0.0,0.0
444,110.75,138.531,182.588,75.1236,99.011,15.6792,0.153102,2.81532,16.8757,879.86,16.5298,0.0,0.0
456,113.75,142.772,188.744,87.7146,98.9685,16.9428,0.15739,2.88976,16.7702,878.819,15.8308,0.0,0.0
468,116.75,147.572,194.483,79.6857,98.9342,16.3897,0.157026,2.9313,16.7225,877.758,16.1254,0.0,0.0
480,119.75,150.804,199.463,90.1296,98.9208,14.0772,0.157513,2.95063,16.6938,876.718,17.4884,0.0,0.0
492,122.75,154.549,204.787,92.937,98.9036,16.4447,0.158856,2.97394,16.6742,875.747,16.0925,0.0,0.0
504,125.75,157.751,209.172,80.049,98.9199,17.6405,0.155458,2.95618,16.7042,874.556,15.4644,0.0,0.0
516,128.75,161.189,212.111,86.8468,98.9216,17.9374,0.150891,2.90427,16.7668,873.525,15.3149,0.0,0.0
528,131.75,162.853,215.019,79.3621,98.9322,18.2056,0.14499,2.79677,16.951,872.534,15.1827,0.0,0.0
540,134.75,165.071,216.332,80.6436,98.9681,17.7661,0.13539,2.61926,17.1997,871.673,15.4052,0.0,0.0
552,137.75,165.972,216.55,92.3454,98.9935,21.417,0.121959,2.45385,17.4513,870.862,13.7311,0.0,0.0
564,140.75,165.653,215.133,90.6441,99.0519,23.5829,0.10603,2.24063,17.8331,870.052,12.8723,0.0,0.0
576,143.75,165.328,213.036,98.0059,99.1021,28.9789,0.0868452,1.9198,18.2848,869.351,11.0287,0.0,0.0
588,146.75,162.551,207.534,104.292,99.185,31.9088,0.0695025,1.59292,18.7572,868.781,10.1723,0.0,0.0
600,149.75,158.727,200.894,119.842,99.2671,37.2276,0.0538296,1.26341,19.1803,868.39,8.79696,0.0,0.0
612,152.75,154.397,192.969,123.393,99.3476,49.5687,0.0390758,0.952723,19.6382,868.1,6.23618,0.0,0.0
624,155.75,149.004,183.571,137.105,99.4277,77.5107,0.0279201,0.607885,20.197,868.04,2.23353,0.0,0.0
636,158.75,140.829,172.009,138.465,99.5167,90.563,0.0233717,0.346916,20.6035,868.03,0.845637,0.0,0.0
648,161.75,133.913,162.431,140.438,99.598,90.5247,0.0225536,0.194324,20.8154,868,0.856761,0.0,0.0
660,164.75,128.563,153.546,137.713,99.6952,91.2092,0.0220862,0.128777,20.8969,868,0.797942,0.0,0.0
672,167.75,123.381,145.297,143.388,99.7867,91.2778,0.0212788,0.101148,20.9343,867.95,0.799426,0.0,0.0
684,170.75,118.231,137.56,139.356,99.8863,90.891,0.0200168,0.08906,20.9514,867.96,0.846473,0.0,0.0
696,173.75,113.206,131.107,140.983,99.9734,92.0852,0.0181775,0.0848496,20.9573,867.92,0.7372,0.0,0.0
708,176.75,108.692,124.389,143.49,100.084,91.2929,0.0158268,0.0819193,20.9586,867.96,0.824665,0.0,0.0
720,179.75,105.089,118.295,145.999,100.181,92.2654,0.0134003,0.0771382,20.9661,867.95,0.738257,0.0,0.0
732,182.75,100.549,113.03,140.417,100.304,91.3983,0.0109842,0.07253,20.9753,867.95,0.833986,0.0,0.0
744,185.75,97.3804,108.303,140.446,100.353,91.4902,0.00883284,0.0687703,20.9819,867.94,0.82932,0.0,0.0
756,188.75,93.7007,103.579,138.268,100.443,91.0154,0.00691991,0.0652834,20.9876,867.89,0.884021,0.0,0.0
768,191.75,90.6161,99.7084,142.512,100.505,93.586,0.00534009,0.0621749,20.9925,867.87,0.639778,0.0,0.0
780,194.75,88.2104,95.4215,143.712,100.571,92.974,0.0043326,0.0595811,20.9972,867.86,0.704496,0.0,0.0
792,197.75,85.9792,91.8215,143.984,100.64,93.1038,0.00346496,0.0578098,20.9994,867.85,0.698169,0.0,0.0
804,200.75,82.8161,88.6779,144.058,100.677,92.1348,0.00268438,0.0562214,21.0022,867.89,0.795252,0.0,0.0
816,203.75,81.1485,85.627,141.819,100.709,91.8871,0.00207088,0.0549923,21.004,867.88,0.822235,0.0,0.0
828,206.75,78.5987,82.4191,140.323,100.759,92.2332,0.00151213,0.0543906,21.0046,867.91,0.792984,0.0,0.0
840,209.75,76.5728,80.0811,140.343,100.772,93.4189,0.00114569,0.0535645,21.0064,867.89,0.679575,0.0,0.0
852,212.75,74.1061,77.3338,141.88,100.778,93.6108,0.0011003,0.0528747,21.0085,867.9,0.661681,0.0,0.0
864,215.75,72.9623,75.6502,140.974,100.808,92.9701,0.00110862,0.0520235,21.0107,867.88,0.72601,0.0,0.0
876,218.75,71.2306,73.0988,143.944,100.804,93.2461,0.00105773,0.0513122,21.0115,867.9,0.699061,0.0,0.0
888,221.75,69.6453,71.439,141.874,100.826,92.9484,0.000965052,0.0509993,21.0088,867.88,0.729704,0.0,0.0
900,224.75,67.5237,68.9569,144.422,100.849,94.243,0.00091768,0.0511183,21.0095,867.88,0.60767,0.0,0.0
912,227.75,66.521,67.6156,142.931,100.869,94.05,0.000749906,0.0508553,21.0108,867.91,0.627805,0.0,0.0
924,230.75,65.7879,66.5026,144.286,100.902,93.824,0.000413628,0.0505561,21.0118,867.88,0.652359,0.0,0.0
936,233.75,64.3928,64.7496,140.823,100.924,93.8914,0.000341505,0.050102,21.0105,867.89,0.647837,0.0,0.0
948,236.75,63.1018,63.4719,142.343,100.928,93.4755,0.000358071,0.0494916,21.0112,867.9,0.688021,0.0,0.0
960,239.75,61.8235,62.1379,139.522,100.947,93.7682,0.000422907,0.0491572,21.0119,867.9,0.661653,0.0,0.0
972,242.75,60.7384,60.393,144.128,100.961,93.6476,0.000446829,0.048857,21.0121,867.89,0.674426,0.0,0.0
984,245.75,60.2165,59.6651,142.897,100.98,93.9732,0.000273993,0.0487073,21.0121,867.88,0.645001,0.0,0.0
996,248.75,59.0883,58.9618,145.098,100.994,94.0903,0.000374306,0.0485815,21.0138,867.88,0.63514,0.0,0.0
1008,251.75,58.6746,57.8683,143.504,100.998,94.8996,0.000346115,0.0485911,21.0128,867.89,0.558608,0.0,0.0
1020,254.75,57.606,56.4165,148.243,101.023,94.4139,0.000333022,0.048518,21.0123,867.87,0.606879,0.0,0.0
1032,257.75,56.8712,55.8198,146.276,101.033,94.3608,0.000276449,0.0487175,21.013,867.87,0.612796,0.0,0.0
1044,260.75,55.5363,54.7069,143.342,101.026,94.6434,0.000231917,0.0488221,21.0141,867.86,0.585395,0.0,0.0
1056,263.75,55.1899,54.4928,142.945,101.037,95.2392,0.000124679,0.0490535,21.0124,867.88,0.530055,0.0,0.0
1068,266.75,55.1337,53.521,139.527,101.05,93.6976,,0.0490048,,867.84,0.677546,0.0,0.0
1080,269.75,54.3814,52.8787,147.092,101.042,94.9543,,,,867.86,0.557397,0.0,0.0
1092,272.75,53.6836,52.5846,142.289,101.045,93.6748,,,,867.86,0.679336,0.0,0.0
1104,275.75,52.7767,51.7672,141.224,101.031,95,,,,867.87,0.552099,0.0,0.0
1110,277.25,52.9368,51.7429,145.136,101.012,94.35,,,,867.87,0.612014,0.0,0.0