Folder: fsri_materials_database/01_Data/HIPS/MCC (part 2)

File: HIPS_MCC_30K_min_211021_R3.txt
Sample ID:	C:\MCC\MCC Cal\Test\PlasticB_MCC_30K_min_211021_R3.txt
Sample Weight (mg):	4.83
Heating Rate (C/s):	0.5
Combustor Temp (C):	900
N2 Flow Rate (cc/min):	80
O2 Flow Rate (cc/min):	20
Calibration File:	C:\MCC\MCC Cal\Coeff1 JN10440_30_210304.txt.txt
T Correction Coefficients:	0	1.024463	0
Time Shift (s):	14
*
Time (s)	Temperature (C)	N2 flow rate (cc/min)	O2 flow rate (cc/min)	Flow Rate (cc/min)	Oxygen (%)	HRR (W/g)	Heating rate (C/s)
-0.001	107.450	79.999	19.995	103.020	20.390	-0.341	-0.009
8.000	107.438	80.001	19.996	103.012	20.389	-0.249	-0.006
15.999	107.448	80.004	19.995	103.057	20.379	0.376	-0.021
23.998	107.714	80.002	19.995	103.124	20.369	1.080	0.045
31.999	108.386	79.997	19.996	103.194	20.350	2.316	0.112
39.999	109.532	80.001	19.997	103.204	20.347	2.512	0.147
47.999	111.078	80.000	19.997	103.232	20.342	2.854	0.201
55.998	112.892	80.001	19.996	103.212	20.341	2.967	0.257
63.999	114.904	80.001	19.997	103.232	20.339	3.057	0.266
71.999	117.213	80.001	19.994	103.238	20.333	3.491	0.324
79.998	119.772	80.000	19.996	103.236	20.335	3.341	0.346
87.998	122.565	80.001	19.997	103.237	20.337	3.200	0.356
95.999	125.500	80.000	19.997	103.244	20.336	3.291	0.387
103.999	128.581	80.000	19.995	103.259	20.332	3.540	0.385
111.999	131.820	80.001	19.995	103.257	20.326	3.942	0.393
120.000	135.232	80.001	19.995	103.270	20.331	3.573	0.447
127.998	138.691	80.001	19.994	103.261	20.331	3.629	0.437
136.000	142.335	79.998	19.990	103.267	20.329	3.713	0.468
143.999	146.081	79.999	19.994	103.249	20.330	3.663	0.471
151.999	149.873	80.002	19.995	103.246	20.329	3.715	0.491
159.999	153.655	79.999	19.998	103.237	20.329	3.744	0.439
167.998	157.476	80.001	19.990	103.240	20.327	3.853	0.508
176.000	161.343	80.002	19.996	103.235	20.326	3.942	0.520
183.998	165.256	80.006	19.995	103.241	20.323	4.108	0.521
191.998	169.210	80.003	19.992	103.239	20.320	4.305	0.493
199.999	173.171	80.005	19.991	103.240	20.319	4.390	0.507
208.000	177.093	80.005	19.996	103.231	20.320	4.364	0.477
216.000	181.047	80.000	19.997	103.233	20.314	4.733	0.467
224.001	185.091	79.999	19.999	103.225	20.319	4.420	0.512
232.000	189.047	80.006	19.993	103.230	20.316	4.571	0.492
240.000	193.079	80.000	19.996	103.224	20.315	4.684	0.511
247.999	197.004	80.003	19.995	103.209	20.314	4.743	0.479
255.999	200.980	79.999	19.995	103.211	20.312	4.892	0.492
264.000	204.882	80.001	19.992	103.208	20.312	4.870	0.507
271.999	208.887	79.998	19.990	103.194	20.311	4.947	0.507
280.000	212.842	80.000	19.995	103.192	20.309	5.082	0.478
288.000	216.766	80.002	19.995	103.200	20.307	5.178	0.518
296.000	220.687	80.001	19.997	103.193	20.305	5.325	0.506
304.000	224.648	80.001	19.995	103.193	20.303	5.479	0.487
312.000	228.617	80.000	19.996	103.194	20.303	5.486	0.518
319.999	232.515	80.003	19.996	103.193	20.296	5.967	0.487
327.999	236.455	79.999	19.995	103.193	20.297	5.865	0.478
336.000	240.440	80.000	19.996	103.195	20.291	6.239	0.513
343.999	244.368	80.000	19.997	103.172	20.285	6.646	0.496
351.999	248.361	79.999	19.996	103.175	20.280	7.029	0.487
359.999	252.388	80.001	19.997	103.190	20.284	6.735	0.499
368.000	256.455	80.000	19.996	103.177	20.282	6.871	0.491
375.999	260.522	80.003	19.995	103.163	20.279	7.081	0.504
383.999	264.538	80.001	19.996	103.167	20.277	7.180	0.530
392.000	268.514	80.001	19.996	103.163	20.274	7.421	0.512
400.001	272.581	80.002	19.995	103.148	20.274	7.410	0.481
407.999	276.543	80.002	19.995	103.149	20.272	7.554	0.508
416.001	280.482	80.000	19.995	103.152	20.272	7.511	0.501
423.999	284.356	80.000	19.996	103.155	20.265	7.994	0.483
431.999	288.373	80.001	19.996	103.156	20.269	7.724	0.445
440.000	292.446	79.998	19.996	103.151	20.268	7.828	0.514
448.000	296.410	79.999	19.995	103.150	20.261	8.246	0.470
456.000	300.390	80.002	19.996	103.149	20.265	8.003	0.509
463.999	304.308	80.001	19.994	103.152	20.264	8.052	0.502
472.001	308.261	80.001	19.997	103.146	20.262	8.208	0.522
480.000	312.235	80.003	19.995	103.147	20.264	8.094	0.522
488.000	316.282	80.003	19.995	103.143	20.259	8.396	0.491
495.999	320.406	80.001	19.995	103.141	20.261	8.251	0.522
504.000	324.527	80.000	19.996	103.137	20.258	8.490	0.548
512.000	328.797	80.000	19.995	103.138	20.263	8.123	0.629
519.999	332.777	80.000	19.996	103.135	20.259	8.418	0.640
528.000	337.019	79.998	19.996	103.146	20.258	8.473	0.585
535.999	341.161	80.001	19.997	103.148	20.257	8.522	0.529
543.999	345.301	80.002	19.996	103.142	20.255	8.681	0.525
551.999	349.467	80.002	19.996	103.122	20.250	8.996	0.526
559.999	353.625	80.001	19.995	103.130	20.245	9.343	0.495
567.999	357.750	80.003	19.996	103.119	20.238	9.775	0.502
575.999	361.746	80.001	19.996	103.121	20.227	10.527	0.493
583.999	365.673	79.999	19.996	103.121	20.212	11.525	0.512
591.999	369.555	80.000	19.996	103.133	20.186	13.261	0.481
599.999	373.515	80.000	19.995	103.115	20.146	15.926	0.506
607.999	377.426	80.000	19.996	103.131	20.133	16.809	0.525
616.000	381.321	80.000	19.997	103.116	20.092	19.558	0.472
624.000	385.212	80.001	19.997	103.136	20.069	21.038	0.485
632.000	389.099	80.000	19.997	103.116	20.014	24.749	0.455
639.999	393.086	80.001	19.996	103.178	19.936	29.953	0.492
647.999	397.113	80.002	19.996	103.135	19.847	35.838	0.539
655.999	401.085	80.000	19.995	103.134	19.708	45.061	0.487
663.999	405.111	79.999	19.996	103.164	19.484	60.045	0.487
672.000	409.114	80.000	19.996	103.168	19.174	80.731	0.487
680.001	413.146	80.000	19.995	103.181	18.701	112.324	0.495
687.999	417.117	79.999	19.997	103.225	18.135	150.124	0.532
695.999	421.189	80.000	19.997	103.262	17.397	199.319	0.519
704.000	425.293	80.001	19.996	103.207	16.531	257.052	0.517
711.999	429.348	80.002	19.995	103.250	15.540	323.024	0.490
720.000	433.385	80.000	19.997	103.189	14.640	383.264	0.483
728.001	437.375	80.001	19.995	103.240	13.966	428.407	0.485
735.999	441.392	80.003	19.995	103.307	13.687	447.408	0.489
744.000	445.521	80.001	19.995	103.359	13.873	435.237	0.538
752.001	449.730	80.019	20.002	103.451	14.470	395.251	0.501
760.000	454.014	80.001	19.997	103.437	15.373	334.701	0.535
767.999	458.275	80.000	19.996	103.406	16.390	266.594	0.556
775.999	462.516	80.001	19.998	103.330	17.309	205.227	0.551
784.000	466.783	80.000	19.997	103.339	18.042	156.189	0.532
792.000	471.019	80.002	19.996	103.233	18.587	119.803	0.526
800.001	475.327	80.001	19.996	103.175	18.990	92.949	0.553
808.001	479.578	80.002	19.995	103.152	19.293	72.755	0.526
815.999	483.801	80.003	19.996	103.151	19.547	55.849	0.537
824.001	487.874	80.001	19.997	103.128	19.768	41.081	0.493
831.999	491.902	80.000	19.996	103.131	19.955	28.660	0.494
840.001	495.871	80.001	19.995	103.124	20.107	18.514	0.476
848.001	499.804	80.001	19.997	103.119	20.214	11.379	0.534
855.999	503.691	80.002	19.996	103.114	20.272	7.543	0.478
864.000	507.513	80.001	19.996	103.104	20.296	5.942	0.484
871.999	511.372	80.002	19.996	103.096	20.303	5.494	0.477
880.000	515.324	80.001	19.995	103.090	20.302	5.502	0.504
887.999	519.414	80.001	19.996	103.109	20.306	5.241	0.522
895.999	523.508	80.002	19.996	103.112	20.302	5.511	0.498
904.001	527.699	80.000	19.997	103.100	20.305	5.316	0.494
912.001	531.840	80.001	19.998	103.094	20.303	5.475	0.506
920.000	536.013	80.001	19.996	103.093	20.304	5.422	0.497
927.999	540.195	80.001	19.996	103.101	20.303	5.476	0.518
935.999	544.277	79.999	19.996	103.108	20.302	5.552	0.479
943.999	548.415	79.999	19.997	103.109	20.305	5.303	0.512
952.000	552.468	80.002	19.996	103.114	20.306	5.274	0.507
959.999	556.641	80.002	19.995	103.115	20.301	5.600	0.527
968.000	560.795	80.000	19.997	103.118	20.300	5.668	0.514
975.999	564.897	80.000	19.996	103.118	20.303	5.434	0.517
984.001	569.092	80.001	19.995	103.119	20.299	5.714	0.542
991.999	573.190	80.000	19.996	103.112	20.300	5.644	0.532
1000.001	577.326	80.000	19.996	103.113	20.303	5.491	0.516
1007.999	581.388	80.000	19.996	103.112	20.301	5.628	0.504
1015.999	585.480	80.000	19.996	103.111	20.302	5.545	0.504
1023.999	589.587	80.000	19.995	103.117	20.300	5.683	0.583
1031.999	593.691	80.002	19.996	103.118	20.300	5.677	0.533
1040.000	597.919	80.002	19.995	103.116	20.300	5.672	0.544
1047.999	602.054	80.001	19.994	103.117	20.300	5.679	0.508
1056.000	606.178	80.003	19.995	103.113	20.303	5.491	0.532
1064.000	610.332	80.004	19.997	103.111	20.303	5.470	0.516
1072.000	614.473	80.000	19.997	103.108	20.303	5.485	0.513
1079.999	618.560	80.001	19.996	103.111	20.298	5.825	0.501
1088.000	622.734	80.000	19.996	103.115	20.296	5.922	0.480
1095.999	626.853	80.001	19.996	103.113	20.298	5.794	0.529
1103.999	630.906	80.000	19.996	103.097	20.297	5.847	0.529
1112.001	635.034	80.001	19.994	103.116	20.297	5.872	0.532
1120.001	639.123	80.002	19.995	103.109	20.295	5.983	0.527
1128.000	643.108	80.002	19.996	103.113	20.297	5.832	0.504
1135.999	647.066	80.004	19.996	103.101	20.296	5.908	0.500
1144.000	651.133	80.004	19.994	103.110	20.297	5.853	0.519
1152.000	655.140	80.001	19.996	103.115	20.298	5.792	0.512
1159.999	659.198	80.001	19.997	103.116	20.296	5.949	0.494
1168.000	663.209	80.001	19.996	103.116	20.299	5.709	0.500
1175.999	667.243	80.001	19.997	103.114	20.294	6.097	0.526
1184.001	671.418	80.000	19.997	103.109	20.295	6.029	0.514
1192.000	675.631	80.000	19.996	103.109	20.292	6.186	0.524
1199.999	679.888	80.002	19.996	103.110	20.295	6.024	0.565
1207.999	683.966	80.002	19.995	103.108	20.294	6.073	0.543
1216.000	688.094	80.001	19.997	103.113	20.293	6.125	0.536
1224.000	692.146	80.003	19.997	103.113	20.290	6.299	0.518
1232.000	696.155	80.001	19.995	103.111	20.291	6.293	0.514
1239.999	700.120	80.001	19.996	103.115	20.291	6.243	0.472
1248.000	703.935	80.001	19.995	103.114	20.287	6.540	0.507
1256.001	707.825	80.001	19.996	103.100	20.290	6.359	0.498
1264.000	711.696	80.000	19.996	103.107	20.285	6.667	0.472
1272.000	715.598	80.002	19.997	103.112	20.284	6.732	0.494
1279.999	719.496	80.002	19.996	103.107	20.287	6.521	0.473
1288.000	723.462	80.001	19.996	103.115	20.279	7.041	0.489
1296.000	727.439	80.003	19.994	103.114	20.279	7.050	0.469
1304.000	731.401	80.002	19.994	103.091	20.282	6.846	0.488
1312.001	735.345	80.003	19.994	103.109	20.280	7.018	0.501
1320.000	739.311	80.003	19.995	103.116	20.278	7.099	0.461
1327.999	743.391	80.002	19.995	103.110	20.278	7.150	0.521
1328.499	743.640	80.002	19.996	103.110	20.280	7.009	0.501