Folder: fsri_materials_database/01_Data/HIPS/MCC

Note: README.md
# Materials and Products Database
### Repository of materials and products properties and fire test data to improve fire modeling and fire investigation.

This project was supported in part by Award No. 2019-DU-BX-0018, awarded by the National Institute of Justice, Office of Justice Programs, U.S. Department of Justice. The opinions, findings, and conclusions or recommendations expressed in this publication / program / exhibition are those of the author(s) and do not necessarily reflect those of the Department of Justice.

***
***

__Cite this database:__ "McKinnon, M., Weinschenk, C., Dow, N., DiDomizio, M., and Madrzykowski, D. Materials and Products Database (Version 1.0.0), Fire Safety Research Institute, UL Research Institutes. Columbia, MD 21045, 2023."

__Cite the Technical Reference Guide:__ "McKinnon, M., Weinschenk, C., and Madrzykowski, D. Materials and Products Database - Technical Reference Guide, Fire Safety Research Institute, UL Research Institutes. Columbia, MD 21045, 2023."

__Cite the User Guide:__ "McKinnon, M., and Weinschenk, C. Materials and Products Database - User Guide, Fire Safety Research Institute, UL Research Institutes. Columbia, MD 21045, 2023."

***
***

## Database Structure

## 01_Data/
Raw data generated from each apparatus are included here in plain-text format. The data is organized first by material, next by the short name of test apparatus used, and where applicable additional filtering by test settings.

### Test Apparatus and Data File Structure
- __Cone Calorimeter__ (Cone)
    + Data file structure includes the material, the short name for the apparatus, heat flux setting and scan/scalar, date of test, and replicate number. Scan is for the raw output data and scalar is for the initial conditions and high-level test parameters. 
        * Example: __MDF_Cone_HF25scalar_210323_R1__ stands for the first replicate of scalar data generated from a medium density fiber board test in cone calorimeter exposed to 25 kW/m<sup>2</sup> on March 23, 2021.
    + A _Cone_Notes.csv_ is generated for each material from the __plot_Cone_data.py__ script. For materials whose experiments deviated from typical behavior relevant pictures are included in the respective material directory.
- __Fourier Transform Infrared Spectrometer__ (FTIR)
    + The FTIR directory contains subdirectories for the Attenuated Total Reflectance method (ATR) and the Integrating Sphere (IS)
    + Data file structure for the ATR experiment files includes the material, the abbreviated name for the apparatus, date of test, and replicate number. 
        * Example: __MDF_ATR_210323_R5__ stands for the fifth replicate of data collected with the ATR accessory conducted on June 8, 2021.
    + Data file structure for the IS experiment files includes the material, the abbreviated name for the apparatus, the measurand, whether the test is a sample measurement or standard reference, date of test, and replicate number.
        * Example: __OSB_IS_REFLECT_MEAS_2

File: HIPS_MCC_30K_min_211020_R1.txt
Sample ID:	C:\MCC\MCC Cal\Test\PlasticB_MCC_30K_min_211020_R1.txt
Sample Weight (mg):	4.55
Heating Rate (C/s):	0.5
Combustor Temp (C):	900
N2 Flow Rate (cc/min):	80
O2 Flow Rate (cc/min):	20
Calibration File:	C:\MCC\MCC Cal\Coeff1 JN10440_30_210304.txt.txt
T Correction Coefficients:	0	1.024463	0
Time Shift (s):	14
*
Time (s)	Temperature (C)	N2 flow rate (cc/min)	O2 flow rate (cc/min)	Flow Rate (cc/min)	Oxygen (%)	HRR (W/g)	Heating rate (C/s)
0.000	107.762	80.003	19.995	102.991	20.030	0.278	-0.017
8.000	107.744	80.000	19.995	102.995	20.033	0.046	-0.009
16.000	107.745	80.002	19.994	102.992	20.033	0.065	0.024
24.000	107.725	80.002	19.995	103.009	20.029	0.351	-0.007
32.000	107.849	80.000	19.993	103.056	20.027	0.462	0.023
40.000	108.085	80.002	19.993	103.051	20.020	0.965	0.035
48.000	108.508	80.002	19.994	103.114	20.017	1.174	0.092
56.000	109.266	80.001	19.994	103.155	20.009	1.785	0.121
64.001	110.390	80.004	19.995	103.181	20.002	2.282	0.168
72.000	111.783	80.003	19.994	103.192	20.001	2.352	0.159
80.000	113.544	80.001	19.995	103.218	19.998	2.582	0.254
88.000	115.556	80.001	19.995	103.220	19.996	2.722	0.261
96.000	117.936	80.001	19.995	103.219	19.990	3.109	0.351
104.000	120.512	80.001	19.994	103.226	19.992	3.011	0.318
112.001	123.338	80.000	19.995	103.230	19.990	3.143	0.343
120.000	126.355	80.001	19.994	103.258	19.989	3.186	0.396
128.000	129.592	80.003	19.994	103.240	19.985	3.438	0.437
136.000	132.943	80.003	19.994	103.252	19.987	3.343	0.440
144.000	136.440	80.005	19.994	103.260	19.982	3.707	0.449
152.000	140.110	80.003	19.995	103.255	19.987	3.332	0.470
160.000	143.816	80.000	19.995	103.258	19.987	3.316	0.489
168.000	147.646	80.002	19.995	103.245	19.985	3.443	0.483
176.000	151.496	80.002	19.995	103.235	19.988	3.226	0.462
184.000	155.351	80.000	19.996	103.238	19.985	3.438	0.477
192.000	159.253	79.999	19.997	103.229	19.989	3.189	0.507
200.000	163.169	80.003	19.995	103.225	19.988	3.229	0.469
208.000	167.140	80.003	19.994	103.216	19.991	3.029	0.489
216.000	171.086	80.002	19.995	103.217	19.988	3.246	0.490
224.001	174.970	80.005	19.993	103.221	19.990	3.135	0.474
232.000	178.870	80.002	19.995	103.225	19.992	2.960	0.489
240.000	182.792	80.001	19.995	103.217	19.990	3.081	0.477
248.000	186.706	80.001	19.995	103.223	19.991	3.031	0.478
256.000	190.620	80.001	19.995	103.207	19.990	3.081	0.511
264.000	194.501	80.002	19.995	103.203	19.987	3.332	0.478
272.000	198.398	80.001	19.995	103.200	19.993	2.875	0.471
280.000	202.318	80.003	19.996	103.190	19.992	3.008	0.492
288.000	206.289	80.002	19.995	103.198	19.991	3.078	0.485
296.000	210.234	80.002	19.994	103.205	19.990	3.127	0.493
304.000	214.182	80.002	19.993	103.190	19.986	3.424	0.505
312.000	218.121	80.002	19.994	103.197	19.986	3.376	0.480
320.000	222.056	80.002	19.994	103.193	19.985	3.485	0.477
328.000	226.028	80.002	19.994	103.188	19.984	3.539	0.462
336.000	230.099	80.000	19.994	103.198	19.980	3.856	0.524
344.000	234.109	80.001	19.995	103.189	19.982	3.694	0.516
352.000	238.188	80.001	19.995	103.193	19.978	3.940	0.540
360.000	242.249	80.002	19.995	103.189	19.980	3.819	0.548
368.000	246.364	80.001	19.996	103.185	19.977	4.068	0.501
376.000	250.482	80.002	19.995	103.177	19.973	4.314	0.525
384.000	254.438	80.005	19.995	103.167	19.973	4.312	0.468
392.000	258.393	80.003	19.995	103.168	19.970	4.554	0.508
400.000	262.283	80.001	19.993	103.170	19.970	4.527	0.512
408.000	266.269	80.001	19.994	103.186	19.968	4.696	0.507
416.000	270.258	80.001	19.994	103.176	19.958	5.358	0.478
424.001	274.368	80.000	19.994	103.172	19.961	5.173	0.505
432.000	278.446	80.000	19.995	103.164	19.961	5.181	0.528
440.000	282.585	80.002	19.995	103.163	19.961	5.191	0.536
448.000	286.684	80.002	19.994	103.152	19.959	5.337	0.556
456.000	290.785	80.002	19.995	103.161	19.958	5.372	0.515
464.000	294.823	80.002	19.995	103.150	19.961	5.151	0.511
472.000	298.894	80.002	19.994	103.145	19.958	5.397	0.531
480.000	302.864	80.001	19.995	103.146	19.956	5.531	0.508
488.000	306.835	80.000	19.994	103.155	19.956	5.510	0.512
496.000	310.773	80.001	19.993	103.150	19.956	5.487	0.500
504.000	314.743	80.000	19.993	103.148	19.959	5.318	0.483
512.000	318.672	80.001	19.996	103.148	19.956	5.496	0.472
520.000	322.666	80.002	19.995	103.148	19.959	5.337	0.504
528.000	326.653	80.002	19.994	103.142	19.958	5.371	0.525
536.000	330.609	80.001	19.994	103.145	19.957	5.456	0.491
544.000	334.637	80.002	19.994	103.144	19.952	5.824	0.496
552.000	338.600	80.003	19.995	103.146	19.954	5.655	0.510
560.000	342.633	80.000	19.994	103.150	19.954	5.686	0.490
568.001	346.620	80.000	19.994	103.156	19.956	5.481	0.512
576.000	350.740	80.002	19.994	103.150	19.946	6.198	0.498
584.000	354.846	80.002	19.995	103.145	19.944	6.363	0.510
592.000	358.955	80.002	19.994	103.144	19.933	7.114	0.537
600.000	363.025	80.003	19.995	103.129	19.920	8.086	0.546
608.000	367.028	80.002	19.994	103.132	19.907	8.972	0.501
616.000	371.185	80.002	19.996	103.138	19.892	10.066	0.436
624.000	375.082	80.002	19.994	103.148	19.868	11.722	0.568
632.000	378.984	80.002	19.994	103.146	19.824	14.819	0.522
640.000	383.056	80.002	19.996	103.121	19.760	19.364	0.506
648.000	387.081	80.002	19.996	103.117	19.770	18.654	0.508
656.000	391.095	80.001	19.995	103.144	19.682	24.893	0.507
664.000	395.170	80.002	19.995	103.160	19.629	28.656	0.496
672.000	399.131	80.000	19.994	103.129	19.484	38.945	0.498
680.000	403.060	80.003	19.995	103.146	19.333	49.618	0.503
688.000	406.934	80.002	19.994	103.135	19.069	68.290	0.472
696.000	410.908	80.003	19.994	103.207	18.745	91.198	0.512
704.000	414.858	80.004	19.994	103.148	18.268	125.005	0.503
712.000	418.811	80.004	19.994	103.241	17.678	166.804	0.504
720.000	422.791	80.002	19.995	103.260	16.991	215.498	0.492
728.000	426.771	80.001	19.996	103.283	16.176	273.292	0.526
736.000	430.752	80.000	19.995	103.309	15.282	336.404	0.518
744.000	434.706	80.001	19.996	103.263	14.456	395.037	0.500
752.000	438.695	80.000	19.994	103.277	13.888	435.514	0.489
760.000	442.790	80.003	19.994	103.317	13.830	439.954	0.539
768.000	446.972	80.002	19.995	103.413	14.232	411.514	0.517
776.000	451.182	80.002	19.994	103.429	14.973	358.765	0.507
784.000	455.434	80.003	19.994	103.405	15.911	292.030	0.543
792.000	459.699	80.004	19.995	103.337	16.821	227.502	0.557
800.000	463.912	79.999	19.995	103.289	17.582	173.556	0.541
808.000	468.122	80.002	19.996	103.238	18.175	131.566	0.548
816.000	472.317	80.002	19.993	103.213	18.614	100.491	0.534
824.000	476.412	79.998	19.995	103.186	18.940	77.375	0.485
832.000	480.551	79.999	19.997	103.164	19.195	59.356	0.491
840.000	484.626	80.002	19.995	103.150	19.402	44.668	0.501
848.000	488.637	80.001	19.994	103.141	19.587	31.580	0.503
856.000	492.705	80.002	19.994	103.123	19.749	20.183	0.518
864.000	496.794	80.003	19.995	103.119	19.860	12.278	0.504
872.000	500.841	80.002	19.994	103.113	19.937	6.844	0.486
880.000	504.885	80.001	19.994	103.111	19.980	3.852	0.496
888.000	508.976	80.001	19.994	103.105	19.992	2.953	0.510
896.000	512.995	80.003	19.995	103.096	19.993	2.905	0.500
904.000	517.073	80.001	19.993	103.106	19.998	2.518	0.500
912.000	521.093	79.999	19.994	103.112	19.997	2.604	0.530
920.000	525.145	80.002	19.996	103.107	19.998	2.557	0.517
928.000	529.253	80.003	19.996	103.112	19.993	2.871	0.512
936.000	533.397	80.002	19.993	103.117	20.000	2.418	0.512
944.000	537.570	80.002	19.994	103.117	20.001	2.369	0.508
952.000	541.754	80.003	19.993	103.126	20.000	2.409	0.514
960.000	545.795	80.001	19.995	103.117	19.998	2.518	0.513
968.000	549.927	80.003	19.993	103.120	20.002	2.230	0.497
976.000	553.988	80.002	19.995	103.127	20.002	2.231	0.536
984.000	558.044	80.001	19.995	103.106	20.001	2.315	0.484
992.000	562.160	80.001	19.996	103.119	20.000	2.424	0.521
1000.000	566.267	80.002	19.994	103.112	19.997	2.597	0.534
1008.000	570.385	80.002	19.997	103.111	20.002	2.238	0.547
1016.000	574.539	80.000	19.996	103.111	19.999	2.468	0.524
1024.000	578.656	80.000	19.994	103.112	20.003	2.194	0.523
1032.000	582.710	80.004	19.994	103.102	20.002	2.244	0.503
1040.000	586.834	80.002	19.993	103.107	19.998	2.539	0.504
1048.000	590.908	80.002	19.993	103.102	19.998	2.528	0.503
1056.001	595.047	80.003	19.994	103.106	20.003	2.225	0.478
1064.000	599.269	80.002	19.994	103.110	19.999	2.510	0.527
1072.001	603.350	80.002	19.994	103.109	20.005	2.063	0.511
1080.001	607.456	80.001	19.995	103.111	20.000	2.382	0.537
1088.000	611.581	80.003	19.995	103.102	20.002	2.232	0.531
1096.000	615.646	80.002	19.995	103.105	20.004	2.146	0.482
1104.000	619.733	80.002	19.995	103.099	20.003	2.221	0.519
1112.000	623.745	80.004	19.994	103.107	20.004	2.088	0.514
1120.001	627.772	80.001	19.994	103.102	19.999	2.499	0.508
1128.000	631.875	80.003	19.993	103.101	20.002	2.255	0.487
1136.000	636.001	80.002	19.992	103.106	20.001	2.361	0.534
1144.001	640.045	80.001	19.994	103.106	20.003	2.180	0.525
1152.000	644.142	80.002	19.994	103.096	20.004	2.155	0.493
1160.000	648.177	80.002	19.994	103.099	20.006	2.014	0.477
1168.000	652.329	80.005	19.996	103.094	20.006	1.973	0.531
1176.000	656.406	80.003	19.995	103.092	20.005	2.019	0.473
1184.000	660.491	80.003	19.995	103.097	20.009	1.795	0.509
1192.001	664.504	80.005	19.994	103.095	20.008	1.816	0.502
1200.000	668.559	80.001	19.996	103.092	20.005	2.038	0.482
1208.000	672.632	80.001	19.995	103.098	19.998	2.531	0.515
1216.000	676.696	80.001	19.993	103.104	20.005	2.056	0.504
1224.000	680.699	80.001	19.994	103.102	20.001	2.349	0.497
1232.000	684.771	79.999	19.994	103.093	20.000	2.385	0.502
1240.000	688.810	80.002	19.995	103.106	20.000	2.380	0.504
1248.001	692.883	80.001	19.994	103.101	20.001	2.316	0.518
1256.000	696.983	80.003	19.993	103.095	20.002	2.288	0.493
1264.001	701.072	80.002	19.995	103.104	20.006	1.962	0.525
1272.000	705.085	80.004	19.994	103.108	20.001	2.335	0.503
1280.001	709.099	80.001	19.995	103.103	19.997	2.600	0.483
1288.000	713.078	80.002	19.997	103.095	19.997	2.585	0.490
1296.001	717.125	80.002	19.997	103.101	20.001	2.357	0.495
1304.000	721.046	80.003	19.994	103.096	20.001	2.353	0.501
1312.000	725.025	80.003	19.996	103.105	19.995	2.752	0.521
1320.000	729.073	80.001	19.995	103.106	19.992	2.999	0.485
1328.001	733.112	80.002	19.995	103.110	19.992	2.976	0.501
1336.001	737.158	80.003	19.995	103.109	19.994	2.817	0.527
1344.000	741.252	80.002	19.994	103.091	19.989	3.176	0.513
1349.000	743.777	80.003	19.994	103.104	19.993	2.936	0.480

File: HIPS_MCC_30K_min_211021_R2.txt
Sample ID:	C:\MCC\MCC Cal\Test\PlasticB_MCC_30K_min_211021_R2.txt
Sample Weight (mg):	4.3
Heating Rate (C/s):	0.5
Combustor Temp (C):	900
N2 Flow Rate (cc/min):	80
O2 Flow Rate (cc/min):	20
Calibration File:	C:\MCC\MCC Cal\Coeff1 JN10440_30_210304.txt.txt
T Correction Coefficients:	0	1.024463	0
Time Shift (s):	14
*
Time (s)	Temperature (C)	N2 flow rate (cc/min)	O2 flow rate (cc/min)	Flow Rate (cc/min)	Oxygen (%)	HRR (W/g)	Heating rate (C/s)
0.001	107.657	80.001	19.997	103.057	20.170	-0.435	-0.011
8.001	107.656	80.005	19.995	103.065	20.167	-0.209	-0.016
16.001	107.681	80.001	19.996	103.092	20.165	0.008	0.002
24.000	107.859	80.003	19.996	103.154	20.148	1.273	0.005
32.000	108.382	80.004	19.996	103.254	20.138	1.979	0.054
40.002	109.256	80.001	19.996	103.233	20.134	2.278	0.146
48.000	110.591	80.001	19.996	103.276	20.124	3.024	0.193
56.001	112.347	80.001	19.996	103.281	20.121	3.245	0.226
64.001	114.409	80.002	19.996	103.292	20.119	3.395	0.299
72.000	116.740	80.001	19.996	103.296	20.119	3.420	0.293
80.001	119.392	80.001	19.996	103.303	20.119	3.420	0.311
88.000	122.299	80.002	19.995	103.310	20.113	3.858	0.346
96.000	125.444	80.002	19.995	103.311	20.113	3.837	0.405
104.001	128.761	80.003	19.995	103.311	20.113	3.849	0.449
112.001	132.229	80.004	19.995	103.315	20.117	3.604	0.450
120.001	135.831	80.004	19.996	103.309	20.117	3.563	0.471
128.001	139.568	80.001	19.997	103.316	20.115	3.756	0.510
136.000	143.377	80.001	19.995	103.310	20.116	3.640	0.501
144.001	147.259	80.001	19.997	103.309	20.117	3.554	0.475
152.002	151.233	80.002	19.997	103.300	20.118	3.475	0.501
160.002	155.192	80.001	19.995	103.292	20.118	3.487	0.473
168.001	159.212	80.003	19.997	103.276	20.119	3.394	0.507
176.001	163.164	80.005	19.995	103.292	20.119	3.441	0.495
184.001	167.259	80.002	19.995	103.278	20.116	3.613	0.507
192.002	171.178	80.003	19.995	103.273	20.122	3.217	0.514
200.001	175.161	80.005	19.995	103.274	20.119	3.451	0.500
208.000	179.088	80.001	19.996	103.260	20.124	3.065	0.493
216.000	183.027	80.002	19.997	103.248	20.121	3.285	0.487
224.000	187.007	80.003	19.996	103.252	20.124	3.017	0.480
232.000	190.885	80.002	19.997	103.255	20.123	3.138	0.483
240.000	194.813	80.000	19.997	103.240	20.116	3.665	0.505
248.001	198.671	80.000	19.998	103.240	20.119	3.397	0.446
256.000	202.565	80.003	19.996	103.255	20.114	3.760	0.471
264.000	206.534	80.003	19.997	103.237	20.117	3.544	0.483
272.002	210.478	80.002	19.996	103.234	20.114	3.821	0.502
280.002	214.422	80.003	19.995	103.232	20.116	3.664	0.478
288.000	218.373	80.002	19.995	103.230	20.111	4.039	0.540
296.001	222.230	80.002	19.996	103.235	20.111	3.996	0.472
304.000	226.143	80.000	19.997	103.234	20.109	4.129	0.513
312.000	230.124	80.002	19.996	103.235	20.107	4.282	0.503
320.001	234.009	80.001	19.996	103.233	20.110	4.085	0.488
328.000	238.060	80.001	19.997	103.237	20.104	4.522	0.536
336.001	242.019	80.002	19.997	103.234	20.102	4.657	0.505
344.001	245.974	80.000	19.996	103.222	20.105	4.441	0.549
352.000	249.935	80.002	19.997	103.221	20.100	4.841	0.497
360.001	253.943	80.003	19.996	103.215	20.101	4.781	0.517
368.000	257.945	80.004	19.995	103.218	20.098	5.018	0.568
376.001	261.881	80.001	19.995	103.227	20.097	5.088	0.495
384.000	265.865	80.001	19.995	103.223	20.100	4.858	0.488
392.000	269.890	80.002	19.997	103.232	20.098	5.004	0.507
400.001	273.936	80.002	19.997	103.212	20.092	5.454	0.497
408.002	277.975	80.000	19.996	103.206	20.093	5.328	0.514
416.000	282.045	80.002	19.996	103.206	20.088	5.715	0.472
424.001	286.080	80.006	19.996	103.210	20.090	5.584	0.518
432.000	290.111	80.002	19.997	103.208	20.087	5.846	0.498
440.001	294.203	80.002	19.997	103.195	20.084	6.040	0.496
448.002	298.233	80.006	19.995	103.193	20.075	6.720	0.522
456.000	302.237	80.003	19.995	103.193	20.072	6.958	0.470
464.002	306.313	80.000	19.996	103.197	20.072	6.958	0.513
472.000	310.362	80.003	19.995	103.192	20.079	6.436	0.501
480.000	314.487	80.004	19.995	103.194	20.082	6.164	0.510
488.001	318.504	80.002	19.996	103.198	20.085	5.965	0.482
496.001	322.518	79.999	19.997	103.194	20.089	5.686	0.491
504.000	326.515	80.003	19.997	103.196	20.087	5.794	0.463
512.001	330.485	80.003	19.996	103.166	20.089	5.690	0.491
520.001	334.442	80.003	19.996	103.192	20.085	5.986	0.480
528.002	338.410	80.002	19.995	103.195	20.087	5.782	0.479
536.001	342.383	80.003	19.996	103.186	20.089	5.640	0.494
544.001	346.227	80.001	19.995	103.185	20.085	5.984	0.502
552.000	350.204	80.002	19.996	103.188	20.084	6.032	0.492
560.000	354.207	80.001	19.996	103.191	20.076	6.652	0.503
568.001	358.249	80.002	19.995	103.194	20.070	7.097	0.522
576.001	362.315	80.001	19.997	103.189	20.057	8.038	0.528
584.001	366.395	80.002	19.995	103.197	20.046	8.910	0.510
592.000	370.548	80.003	19.995	103.185	20.022	10.667	0.525
600.000	374.749	80.002	19.998	103.187	20.016	11.099	0.538
608.001	378.850	80.001	19.997	103.192	19.973	14.325	0.505
616.001	383.086	80.005	19.996	103.191	19.925	17.972	0.525
624.000	387.199	80.001	19.996	103.155	19.921	18.237	0.511
632.001	391.276	80.000	19.997	103.197	19.866	22.375	0.481
640.002	395.351	80.001	19.996	103.154	19.748	31.213	0.499
648.001	399.340	80.002	19.995	103.238	19.625	40.445	0.523
656.002	403.225	80.000	19.996	103.186	19.474	51.769	0.489
664.000	407.096	80.001	19.996	103.143	19.252	68.363	0.467
672.001	410.991	80.003	19.997	103.216	18.871	96.914	0.529
680.002	414.914	80.003	19.995	103.230	18.397	132.507	0.498
688.001	418.908	80.002	19.996	103.282	17.781	178.671	0.534
696.001	422.908	80.003	19.997	103.274	17.039	234.335	0.517
704.001	426.909	80.005	19.997	103.281	16.211	296.427	0.485
712.001	430.919	80.001	19.996	103.318	15.340	361.596	0.500
720.001	435.059	80.001	19.996	103.263	14.609	416.413	0.520
728.001	439.158	80.002	19.997	103.284	14.185	448.529	0.517
736.001	443.240	80.000	19.995	103.368	14.247	444.175	0.524
744.000	447.355	80.002	19.996	103.405	14.762	405.578	0.525
752.000	451.599	80.001	19.995	103.474	15.583	343.716	0.538
760.001	455.815	80.004	19.996	103.442	16.509	274.118	0.509
768.001	459.918	80.003	19.994	103.370	17.350	210.906	0.530
776.000	463.981	80.002	19.995	103.315	18.041	159.139	0.451
784.000	467.960	80.005	19.995	103.272	18.564	119.872	0.489
792.001	472.075	80.003	19.997	103.249	18.935	92.068	0.543
800.001	476.360	80.002	19.995	103.208	19.210	71.503	0.534
808.001	480.686	80.003	19.997	103.192	19.433	54.770	0.562
816.000	485.104	80.002	19.998	103.178	19.623	40.573	0.564
824.001	489.581	80.002	19.997	103.161	19.786	28.320	0.592
832.001	494.001	80.002	19.996	103.161	19.927	17.762	0.531
840.000	498.467	80.004	19.995	103.155	20.033	9.886	0.572
848.000	502.837	80.004	19.996	103.146	20.103	4.616	0.543
856.002	507.126	80.002	19.995	103.142	20.127	2.828	0.542
864.000	511.325	80.006	19.995	103.142	20.137	2.037	0.495
872.000	515.554	80.006	19.996	103.148	20.138	1.987	0.519
880.001	519.780	80.004	19.996	103.151	20.140	1.873	0.553
888.000	524.015	80.002	19.997	103.146	20.145	1.463	0.523
896.001	528.191	80.002	19.997	103.157	20.135	2.180	0.533
904.001	532.346	80.000	19.995	103.157	20.144	1.545	0.519
912.000	536.508	80.000	19.996	103.146	20.147	1.334	0.501
920.000	540.700	80.004	19.997	103.153	20.143	1.653	0.530
928.002	544.818	80.005	19.995	103.153	20.148	1.247	0.506
936.002	548.937	80.002	19.996	103.148	20.146	1.365	0.502
944.001	552.982	80.002	19.995	103.144	20.146	1.376	0.487
952.000	557.095	80.005	19.996	103.129	20.146	1.367	0.465
960.001	561.147	80.001	19.996	103.152	20.148	1.237	0.481
968.000	565.174	80.002	19.996	103.132	20.143	1.647	0.485
976.001	569.233	80.001	19.997	103.133	20.149	1.181	0.486
984.000	573.330	80.002	19.997	103.129	20.148	1.216	0.545
992.001	577.408	80.000	19.995	103.144	20.148	1.245	0.506
1000.000	581.481	80.004	19.997	103.126	20.149	1.166	0.515
1008.001	585.447	80.000	19.996	103.125	20.148	1.278	0.449
1016.001	589.440	80.002	19.997	103.119	20.152	0.959	0.505
1024.000	593.374	80.006	19.996	103.124	20.149	1.199	0.477
1032.002	597.304	80.005	19.996	103.125	20.152	0.978	0.453
1040.000	601.178	80.004	19.996	103.129	20.147	1.309	0.505
1048.001	605.095	80.003	19.996	103.139	20.151	1.050	0.498
1056.001	608.989	80.002	19.996	103.145	20.154	0.781	0.494
1064.001	612.991	80.003	19.997	103.145	20.145	1.502	0.499
1072.000	616.997	80.001	19.997	103.140	20.151	1.027	0.467
1080.000	620.995	80.000	19.997	103.136	20.158	0.505	0.474
1088.001	625.079	80.003	19.996	103.121	20.156	0.655	0.543
1096.000	629.157	80.004	19.996	103.140	20.154	0.762	0.549
1104.002	633.220	80.002	19.997	103.142	20.157	0.561	0.510
1112.000	637.326	80.004	19.997	103.127	20.156	0.669	0.509
1120.002	641.395	80.006	19.995	103.145	20.154	0.798	0.464
1128.001	645.540	80.002	19.996	103.137	20.153	0.878	0.488
1136.001	649.705	80.002	19.996	103.131	20.158	0.495	0.520
1144.001	653.857	80.002	19.995	103.133	20.159	0.418	0.517
1152.002	657.966	80.004	19.996	103.143	20.155	0.684	0.511
1160.000	661.993	80.003	19.996	103.132	20.154	0.775	0.468
1168.001	666.099	80.002	19.996	103.141	20.154	0.808	0.485
1176.001	670.169	80.005	19.996	103.136	20.156	0.617	0.504
1184.001	674.176	80.002	19.995	103.134	20.159	0.421	0.508
1192.000	678.224	80.003	19.998	103.129	20.155	0.723	0.495
1200.001	682.170	80.005	19.997	103.127	20.158	0.530	0.516
1208.001	686.154	80.002	19.996	103.125	20.153	0.847	0.500
1216.000	690.088	80.002	19.996	103.140	20.151	0.990	0.473
1224.000	694.190	80.003	19.996	103.142	20.157	0.586	0.495
1232.001	698.241	80.003	19.996	103.121	20.151	1.003	0.504
1240.002	702.262	80.002	19.996	103.128	20.153	0.847	0.495
1248.001	706.242	80.002	19.995	103.124	20.152	0.914	0.500
1256.000	710.128	80.004	19.995	103.128	20.157	0.593	0.472
1264.000	714.101	80.004	19.996	103.123	20.153	0.845	0.508
1272.001	718.095	80.004	19.997	103.124	20.152	0.926	0.473
1280.001	722.093	80.007	19.995	103.115	20.151	1.013	0.536
1288.002	726.143	80.003	19.996	103.123	20.153	0.847	0.516
1296.001	730.419	80.001	19.996	103.123	20.153	0.856	0.534
1304.000	734.803	80.001	19.996	103.133	20.151	0.990	0.554
1312.001	739.251	80.004	19.995	103.132	20.153	0.862	0.591
1319.000	743.098	80.002	19.996	103.126	20.155	0.708	0.561