Folder: fsri_materials_database/01_Data/Overstuffed_Sofa/Furniture_Calorimeter

Note: README.md
# Materials and Products Database
### Repository of materials and products properties and fire test data to improve fire modeling and fire investigation.

This project was supported in part by Award No. 2019-DU-BX-0018, awarded by the National Institute of Justice, Office of Justice Programs, U.S. Department of Justice. The opinions, findings, and conclusions or recommendations expressed in this publication / program / exhibition are those of the author(s) and do not necessarily reflect those of the Department of Justice.

***
***

__Cite this database:__ "McKinnon, M., Weinschenk, C., Dow, N., DiDomizio, M., and Madrzykowski, D. Materials and Products Database (Version 1.0.0), Fire Safety Research Institute, UL Research Institutes. Columbia, MD 21045, 2023."

__Cite the Technical Reference Guide:__ "McKinnon, M., Weinschenk, C., and Madrzykowski, D. Materials and Products Database - Technical Reference Guide, Fire Safety Research Institute, UL Research Institutes. Columbia, MD 21045, 2023."

__Cite the User Guide:__ "McKinnon, M., and Weinschenk, C. Materials and Products Database - User Guide, Fire Safety Research Institute, UL Research Institutes. Columbia, MD 21045, 2023."

***
***

## Database Structure

## 01_Data/
Raw data generated from each apparatus are included here in plain-text format. The data is organized first by material, next by the short name of test apparatus used, and where applicable additional filtering by test settings.

### Test Apparatus and Data File Structure
- __Cone Calorimeter__ (Cone)
    + Data file structure includes the material, the short name for the apparatus, heat flux setting and scan/scalar, date of test, and replicate number. Scan is for the raw output data and scalar is for the initial conditions and high-level test parameters. 
        * Example: __MDF_Cone_HF25scalar_210323_R1__ stands for the first replicate of scalar data generated from a medium density fiber board test in cone calorimeter exposed to 25 kW/m<sup>2</sup> on March 23, 2021.
    + A _Cone_Notes.csv_ is generated for each material from the __plot_Cone_data.py__ script. For materials whose experiments deviated from typical behavior relevant pictures are included in the respective material directory.
- __Fourier Transform Infrared Spectrometer__ (FTIR)
    + The FTIR directory contains subdirectories for the Attenuated Total Reflectance method (ATR) and the Integrating Sphere (IS)
    + Data file structure for the ATR experiment files includes the material, the abbreviated name for the apparatus, date of test, and replicate number. 
        * Example: __MDF_ATR_210323_R5__ stands for the fifth replicate of data collected with the ATR accessory conducted on June 8, 2021.
    + Data file structure for the IS experiment files includes the material, the abbreviated name for the apparatus, the measurand, whether the test is a sample measurement or standard reference, date of test, and replicate number.
        * Example: __OSB_IS_REFLECT_MEAS_2

File: Overstuffed_Sofa_R1.csv
Time (s),Convective HRR,TCPlume1,TCPlume2,TCPlume3,DPPlume1,DPPlume2,DPPlume3,HF1,HF2,HF3,HF4,HF5,HF6,RAD2,RAD1,Load Cell,Heat Release Rate,Total Heat Released
-119,0.0,6.57708,7.19988,20.5193,0.0298679,-0.0214982,0.012037,0.360384,0.50266,0.448558,0.745329,-0.301868,-0.292431,0.281084,0.964651,48.976,0.0,0.0
-95,0.0,4.77814,6.09012,20.2916,-0.0308979,0.0544536,-0.00315408,-1.24434,-0.396035,0.448558,-1.8414,-0.301868,-0.00958792,0.447131,0.964651,48.7891,0.0,0.0
-71,0.0,3.8976,4.82693,19.76,-0.0460893,-0.0139031,0.0348236,-1.24434,-0.396035,0.448558,-0.979157,0.0730839,-0.00958792,0.115037,0.964651,48.9552,0.0,0.0
-47,0.0,2.48098,4.32923,19.798,0.00708076,-0.0822598,0.0424192,0.360384,0.50266,0.448558,0.745329,-0.301868,0.131834,0.115037,0.964651,48.9552,0.0,0.0
-23,0.0,2.43158,4.01184,18.267,-0.0916636,0.0468585,-0.0107496,0.360384,-0.396035,1.26286,-0.116914,-0.301868,-0.00958792,0.447131,1.92317,48.976,0.0,0.0
1,0.0,2.62857,3.94082,18.1584,0.00708076,0.0240729,-0.0335363,0.360384,-0.396035,-0.365747,1.60757,0.448036,-0.00958792,0.115037,1.92317,48.976,0.0,0.0
25,0.0,1.98324,3.64007,17.7075,-0.053685,-0.120236,0.0272281,0.360384,0.50266,-0.365747,0.745329,-0.301868,-0.00958792,0.281084,0.964651,48.976,0.0,0.0
49,0.0,2.23459,3.54683,17.5007,-0.000514964,-0.00630787,-0.0335363,0.360384,-0.396035,-1.18005,-0.116914,0.822989,-0.15101,0.447131,1.92317,49.1629,0.0,0.0
73,0.0,0.889063,3.08181,17.6854,-0.0764722,-0.0290934,0.0348236,-1.24434,0.50266,-0.365747,-0.116914,0.822989,-0.00958792,0.115037,3.8402,49.1213,0.0,0.0
97,0.0,1.94436,3.29488,17.0601,0.234952,0.335476,-0.0563229,1.16275,-0.396035,-1.18005,1.60757,0.448036,0.273256,0.447131,0.00613451,49.1421,0.0,0.0
121,0.0,5.90922,3.27822,17.4241,0.781845,0.0316681,-0.0791095,1.16275,2.30005,1.26286,-0.116914,0.0730839,0.697521,0.779224,3.8402,48.976,56.7728,0.338445
145,0.0,4.51452,3.18498,18.4344,0.0222722,0.0392633,0.0196326,1.96511,2.30005,1.26286,1.60757,0.448036,0.414677,0.613177,1.92317,48.976,84.8851,1.77269
169,0.0,8.43379,3.54565,20.4257,1.78448,0.715235,0.0728014,6.77929,3.19875,3.70578,2.46981,1.19794,0.980364,1.27736,4.79872,48.4776,186.524,5.64867
193,86.3527,17.7307,9.65684,24.5445,2.04273,0.229143,0.179139,6.77929,5.89483,5.33438,2.46981,1.94785,1.40463,1.60946,6.71575,47.9377,947.357,17.2276
217,464.323,50.9435,33.7306,45.1991,3.25045,4.73309,0.817165,29.2455,19.3753,17.549,11.9545,7.19718,4.65733,5.09644,18.218,46.3179,1318.15,46.5268
241,703.911,62.0423,49.6712,76.8311,1.84525,1.21652,1.45519,38.8738,28.3622,25.692,17.1279,10.5718,6.49581,6.42481,20.135,44.0129,1752.36,81.974
265,1002.02,136.538,141.756,186.363,3.57707,4.46726,1.91852,52.514,28.3622,30.5778,25.7504,12.4465,8.19287,7.91923,34.5127,41.3548,1992.86,129.007
289,1135.19,163.811,196.374,272.707,5.66589,13.3688,6.75688,87.818,38.2479,41.1638,36.0973,18.8207,12.2941,11.5723,66.1438,38.6552,2602.79,181.324
313,1437.36,218.201,288.426,419.167,6.79766,7.03443,6.65814,101.458,47.2348,49.3068,42.133,26.3198,17.5267,16.3876,82.4386,34.6889,2730.28,245.323
337,1549.51,201.867,260.194,407.801,10.8918,7.20153,5.39728,89.4227,34.6531,37.9066,35.235,21.4454,14.5569,13.5648,78.6045,30.9095,2157.19,303.318
361,1352.91,174.5,224.664,357.565,3.91888,2.04439,7.59239,74.9802,26.5648,31.3921,28.3371,16.9459,11.8698,10.742,65.1853,27.6907,1991.36,351.906
385,1209.31,158.995,199.366,325.836,6.42547,6.09263,5.26056,60.5376,23.8687,24.8777,22.3014,14.6962,10.1728,9.24761,52.7246,24.9081,1802.24,396.798
409,1132.54,143.328,183.056,293.482,4.43539,9.83706,5.00231,47.6998,17.5779,18.3633,17.9902,11.6966,8.3343,7.58714,42.1809,22.4161,1329.05,434.806
433,932.98,130.234,158.745,259.229,2.27061,6.97367,4.92635,34.0597,13.0844,14.2917,11.0922,9.44689,6.21297,5.76063,31.6372,20.4226,1161.37,465.973
457,822.602,104.69,137.177,231.412,1.18442,3.28241,1.55393,25.2337,10.3883,11.0345,10.23,6.44727,4.79875,4.43225,22.052,18.5744,1037.14,493.636
481,749.942,89.7368,118.749,205.595,2.22503,4.05712,4.42505,19.6171,8.59092,8.5916,5.91879,4.94746,3.8088,3.43597,18.218,17.1,803.238,515.674
505,598.635,81.7502,101.146,181.982,2.04273,4.86221,3.18698,17.21,6.79353,6.96299,5.91879,4.57251,2.536,2.60574,15.3424,15.7502,708.995,534.565
529,511.525,68.5979,87.0945,162.844,1.79967,3.83686,2.55654,14.0006,6.79353,5.33438,4.1943,3.82261,2.39458,1.94155,11.5083,14.7534,569.795,549.965
553,411.592,59.1015,76.2158,144.149,4.66326,1.50513,2.17677,11.5935,6.79353,4.52008,2.46981,3.0727,1.8289,1.7755,12.4669,13.9228,528.059,562.941
577,365.225,58.4025,74.3461,132.161,2.93903,1.04183,2.22234,10.7911,4.99614,5.33438,2.46981,2.3228,1.97032,1.60946,9.5913,13.1129,466.931,574.351
601,317.234,54.066,66.5085,120.263,2.01235,1.07221,3.46801,9.98875,4.09744,4.52008,3.33206,2.69775,1.68747,1.60946,8.63279,12.1369,481.493,584.99
625,340.175,53.85,67.3945,114.195,2.30099,2.26465,4.88838,7.58166,4.99614,3.70578,3.33206,2.3228,1.40463,1.60946,7.67427,11.4516,407.285,595.846
649,289.806,52.7692,66.0995,110.209,2.54405,5.24197,3.28572,8.38402,4.09744,4.52008,2.46981,1.57289,1.26321,1.60946,7.67427,10.9325,327.554,604.978
673,251.526,48.7461,59.7493,105.249,2.4605,0.920305,4.35669,8.38402,4.09744,2.89147,4.1943,0.822989,1.26321,1.11132,6.71575,10.1018,340.041,613.101
697,260.047,48.9944,58.819,101.135,3.06816,1.62666,1.69065,7.58166,4.09744,3.70578,3.33206,1.94785,1.12179,1.27736,5.75724,9.62421,342.829,621.528
721,232.609,46.7724,56.2418,96.9659,1.12365,2.42415,4.14401,7.58166,4.09744,3.70578,2.46981,1.57289,1.12179,0.945271,5.75724,9.08429,305.418,629.261
745,189.991,39.2368,49.3866,91.7112,1.60978,2.80391,2.07043,5.97693,3.19875,2.89147,3.33206,1.19794,1.12179,1.11132,5.75724,8.41978,319.825,636.17
769,195.896,42.6039,51.9156,90.991,1.05529,2.1887,0.429792,6.77929,3.19875,3.70578,3.33206,1.57289,1.40463,1.11132,5.75724,8.12905,254.708,643.265
793,170.913,40.8711,50.3058,86.744,2.0959,3.79888,2.40463,7.58166,2.30005,2.89147,3.33206,1.57289,1.12179,1.27736,6.71575,7.65143,277.541,649.952
817,157.752,40.6951,50.3899,86.1298,0.971738,3.41153,3.58194,6.77929,2.30005,2.07717,2.46981,1.94785,1.40463,1.11132,6.71575,7.15304,278.152,656.029
841,192.135,44.1856,53.8189,86.8222,1.88322,2.84948,3.11102,6.77929,3.19875,3.70578,3.33206,2.3228,1.12179,1.11132,6.71575,6.63389,277.952,662.563
865,177.843,40.2319,52.295,85.1959,2.4605,2.70517,3.01228,5.97693,4.09744,4.52008,2.46981,1.94785,1.54605,1.7755,6.71575,6.3224,255.122,669.475
889,149.528,37.3484,48.1062,82.139,2.43012,2.12794,2.07043,5.97693,4.09744,2.89147,4.1943,1.94785,1.40463,1.27736,5.75724,5.96938,229.066,675.804
913,143.967,40.87,49.75,82.5213,1.68574,2.47732,1.6147,7.58166,4.09744,4.52008,3.33206,2.3228,1.54605,1.27736,6.71575,5.53329,227.446,681.625
937,112.574,37.8014,48.4812,81.7035,4.30626,4.94576,4.70608,6.77929,3.19875,2.89147,2.46981,1.94785,1.40463,1.27736,5.75724,4.9726,206.726,686.866
961,111.497,36.0341,45.4688,79.5652,2.65039,2.74315,2.98949,6.77929,0.50266,2.89147,3.33206,1.57289,1.40463,1.44341,6.71575,4.68188,195.981,691.672
985,104.318,34.4404,43.5165,77.7101,0.865398,3.40393,1.36404,5.97693,0.50266,2.89147,2.46981,1.19794,1.12179,0.945271,5.75724,4.30809,141.813,695.947
1009,81.229,29.5812,39.5177,74.3571,3.85811,2.78113,2.01726,5.97693,3.19875,2.89147,2.46981,1.19794,1.26321,1.27736,5.75724,4.12119,133.192,699.198
1033,58.7772,27.9887,36.5575,70.9725,1.63257,2.0292,1.88814,5.17456,1.40136,2.07717,3.33206,1.19794,1.12179,1.11132,4.79872,3.83047,112.438,702.119
1057,53.3871,25.9999,32.8604,68.8182,0.713483,4.0875,1.50836,5.97693,2.30005,2.89147,2.46981,1.94785,0.838943,0.945271,5.75724,3.64357,98.1298,704.611
1081,35.5995,24.202,31.7502,65.7506,0.78944,0.775997,1.88054,5.97693,2.30005,2.07717,1.60757,1.57289,1.12179,1.11132,3.8402,3.33208,109.762,707.19
1105,37.9134,21.5027,29.559,64.5282,2.27061,2.0368,5.0175,5.17456,2.30005,2.89147,1.60757,1.57289,1.12179,0.945271,3.8402,2.95829,77.074,709.577
1129,16.3152,18.965,26.6247,60.9684,1.08567,1.82413,1.69825,4.3722,2.30005,2.07717,2.46981,1.19794,1.12179,1.11132,3.8402,2.62603,75.7379,711.716
1153,12.5685,18.4055,25.2002,57.7404,1.88322,1.00385,0.733614,4.3722,3.19875,2.07717,1.60757,1.57289,0.980364,1.27736,4.79872,2.6468,94.1437,713.46
1177,10.5152,16.2207,24.1631,55.9193,1.33633,1.5659,0.703232,3.56984,2.30005,0.448558,0.745329,0.822989,0.838943,1.11132,3.8402,2.31454,60.4021,715.283
1201,2.33194,16.2311,21.8641,53.2,1.28316,1.14816,0.726018,4.3722,1.40136,2.89147,1.60757,1.19794,1.12179,0.779224,3.8402,2.27301,60.6214,716.789
1225,0.0,15.4855,20.2873,51.6644,0.918568,0.563331,0.665254,5.17456,1.40136,2.89147,1.60757,1.94785,0.838943,1.11132,2.88169,2.16918,38.0599,718.141
1249,0.0,13.1269,17.0242,47.9328,0.189378,0.32788,0.095588,2.76747,1.40136,2.07717,1.60757,1.19794,0.697521,0.945271,2.88169,1.98228,34.0155,719.226
1273,0.0,11.3106,16.0124,46.4288,0.136208,0.0164777,0.0728014,3.56984,0.50266,0.448558,1.60757,1.19794,0.838943,0.779224,3.8402,1.83692,47.4515,720.064
1297,0.0,10.7045,15.5985,45.3207,0.500803,0.578522,0.19433,4.3722,2.30005,2.07717,1.60757,0.822989,0.556099,0.945271,3.8402,1.65003,22.0172,720.901
1321,0.0,9.74858,15.7122,44.3177,0.57676,0.274714,0.293072,4.3722,1.40136,2.89147,2.46981,1.19794,0.838943,0.779224,3.8402,1.65003,19.3318,721.599
1345,0.0,10.5616,14.2365,42.8784,0.402058,0.426618,0.285477,2.76747,1.40136,2.07717,2.46981,0.822989,0.697521,0.613177,2.88169,1.25547,21.4853,722.247
1369,0.0,9.15802,12.9884,40.8416,0.333697,0.601307,2.59452,3.56984,2.30005,2.07717,2.46981,1.19794,0.838943,0.613177,4.79872,1.33853,24.2484,722.522
1393,0.0,8.70419,12.1156,40.0266,0.212165,1.74059,0.619681,1.96511,3.19875,1.26286,0.745329,1.19794,0.131834,0.779224,2.88169,0.964743,21.7636,722.916
1417,0.0,8.54517,12.1477,39.1257,0.462824,0.2975,0.505747,2.76747,-0.396035,1.26286,2.46981,0.822989,0.838943,0.945271,3.8402,0.798615,9.34597,723.312
1441,0.0,8.92703,11.6126,38.1548,0.272931,0.593712,0.391814,1.96511,1.40136,2.07717,2.46981,0.822989,0.697521,0.779224,4.79872,0.819381,0.0,723.377
1465,0.0,7.33672,10.8648,36.7881,1.27557,0.958281,-0.0411318,1.96511,1.40136,1.26286,1.60757,1.19794,0.697521,0.613177,4.79872,0.840147,6.73213,723.465
1483,0.0,7.53303,10.4113,36.1946,1.17682,0.760806,1.50076,4.3722,2.30005,1.26286,2.46981,1.19794,0.697521,1.11132,3.8402,0.840147,0.0,723.495

File: Overstuffed_Sofa_R2.csv
Time (s),Convective HRR,TCPlume1,TCPlume2,TCPlume3,DPPlume1,DPPlume2,DPPlume3,HF1,HF2,HF3,HF4,HF5,HF6,RAD2,RAD1,Load Cell,Heat Release Rate,Total Heat Released
-330,0.0,-6.04687,-5.68513,12.9137,0.0790141,0.013361,-0.0246855,-0.42809,-0.323311,0.697621,-0.0630909,0.0800203,-0.0918379,0.281084,2.88169,48,0.0,0.0
-302,0.0,-6.8457,-5.62443,12.7823,-0.0197304,-0.0322101,-0.0474722,0.374273,0.575384,0.697621,-0.0630909,-0.669884,0.0495839,0.613177,4.79872,47.9792,0.0,0.0
-274,0.0,-5.87509,-5.78656,12.7382,-0.0273261,0.0741226,-0.00949443,-1.23045,0.575384,1.51192,0.799152,0.454973,-0.0918379,0.281084,2.88169,48,0.0,0.0
-246,0.0,-5.86466,-5.62006,12.9393,-0.0121346,0.0285514,0.0284833,0.374273,-0.323311,0.697621,-0.0630909,0.0800203,0.0495839,0.613177,2.88169,47.9584,0.0,0.0
-218,0.0,-6.24989,-5.84897,12.6772,-0.0197304,-0.0625908,-0.0398766,-0.42809,-0.323311,-0.116684,-0.925334,0.0800203,-0.0918379,0.447131,1.92317,48.1453,0.0,0.0
-190,0.0,-6.59675,-6.27368,12.2619,-0.0121346,-0.0625908,-0.0474722,0.374273,1.47408,-0.116684,0.799152,0.0800203,0.0495839,0.447131,1.92317,47.9584,0.0,0.0
-162,0.0,-6.59717,-5.96171,12.6815,0.00305682,0.00576586,-0.0854499,0.374273,-0.323311,-0.116684,-0.0630909,-0.669884,-0.0918379,0.447131,1.92317,48.1661,0.0,0.0
-134,0.0,-7.38553,-5.81164,12.7901,0.0182483,-0.0170197,-0.01709,-0.42809,0.575384,-0.930988,-0.0630909,0.0800203,-0.23326,0.281084,2.88169,47.9792,0.0,0.0
-106,0.0,-6.54808,-5.87364,12.424,-0.0121346,-0.0625908,0.0132922,0.374273,0.575384,-1.74529,-0.0630909,-0.294932,-0.0918379,0.447131,0.964651,47.9792,0.0,0.0
-78,0.0,-6.3475,-5.9465,12.4292,-0.0501132,-0.0398053,-0.01709,1.17664,-0.323311,-0.116684,0.799152,0.0800203,-0.0918379,0.281084,2.88169,48,0.0,0.0
-50,0.0,-6.95119,-6.667,12.4122,0.0106525,0.0437418,0.0436744,-0.42809,0.575384,-0.116684,-0.925334,-0.294932,0.191006,0.447131,2.88169,47.9584,0.0,0.0
-22,0.0,-7.58907,-5.78038,12.5153,0.0866098,0.165265,-0.00949443,0.374273,0.575384,0.697621,0.799152,0.0800203,-0.0918379,0.447131,2.88169,47.8338,0.0,0.0
6,0.0,-7.49466,-6.31094,12.531,-0.0121346,-0.0777812,0.0208878,-0.42809,-1.22201,-0.930988,0.799152,0.829925,0.0495839,0.447131,1.92317,48,0.0,0.0
34,0.0,-6.40564,-6.43422,12.4488,0.0486312,-0.00182933,-0.0474722,0.374273,-1.22201,-0.930988,-0.0630909,0.454973,-0.0918379,0.613177,2.88169,48.0207,0.0,0.0
62,0.0,-6.64619,-6.51845,12.3665,0.291694,-0.070186,0.0588655,1.17664,-0.323311,-0.116684,0.799152,-0.294932,0.0495839,0.447131,1.92317,48.083,0.0,0.0
90,2.98696,-3.14154,-5.73787,12.7478,-0.0501132,-0.0398053,-0.01709,0.374273,1.47408,1.51192,0.799152,0.454973,0.191006,0.613177,1.92317,47.9377,73.3779,0.845873
118,47.7863,-1.1307,-3.98569,15.341,0.29929,0.279193,-0.01709,2.78136,2.37278,2.32623,1.66139,0.829925,0.615271,0.945271,4.79872,47.647,69.048,4.01398
146,54.9521,0.925481,-4.15848,16.1241,0.109397,0.0969081,-0.00949443,3.58373,2.37278,2.32623,0.799152,0.829925,0.756693,1.11132,4.79872,47.4808,194.336,7.78564
174,111.204,8.07187,1.19249,19.65,2.47167,1.88178,0.180394,8.39791,4.17017,6.39775,4.24812,1.95478,1.18096,1.7755,6.71575,46.9824,705.433,16.875
202,393.074,27.5695,14.5745,31.625,0.960118,3.16536,0.286732,18.8286,11.3597,12.9122,6.83485,4.57945,2.87802,3.26993,14.3839,45.5911,1204.87,40.6957
230,614.25,62.4505,47.8249,66.7124,0.56514,1.47164,-0.00949443,32.4688,19.448,20.2409,14.595,8.32897,4.99935,4.93039,18.218,43.6183,1382.59,73.5809
258,798.797,90.1553,84.1824,111.105,1.27914,0.795666,1.22098,48.5161,24.8402,26.7554,22.3552,9.45383,6.55499,6.42481,29.7202,41.3548,1748.71,118.541
286,1150.27,153.453,172.575,235.601,8.2824,6.18825,8.10255,73.3894,32.9284,34.0841,28.3909,16.5779,11.0805,10.9081,58.4757,38.053,1954.03,173.367
314,1233.56,180.343,226.6,324.159,9.04956,3.48436,3.03632,80.6106,34.7258,37.3413,31.8399,20.7024,12.919,12.4025,68.0608,34.3982,2458.02,232.709
342,1627.13,206.716,263.301,365.938,5.69225,10.2289,5.86186,81.413,36.5232,36.527,31.8399,21.4523,15.0403,13.7309,70.9364,30.2034,2323.18,302.891
370,1409.25,171.155,212.432,337.904,3.07204,7.60199,4.38835,68.4782,26.5215,30.2556,25.5496,15.9893,12.4585,11.2646,60.7062,26.8213,2065.52,361.788
398,1361.38,141.119,173.38,292.838,12.8778,11.9682,7.47971,44.5043,18.5493,20.2409,16.3195,11.3286,8.67631,7.75319,40.2638,23.4129,1579.05,415.129
426,1102.54,121.83,152.612,257.866,4.87192,2.91472,9.92548,32.4688,14.0558,15.3551,11.1461,8.70393,6.27214,5.92667,30.6787,20.6095,1377.91,456.405
454,923.713,104.519,127.123,221.652,2.20582,1.89697,0.666509,24.4452,10.461,8.84066,8.55934,6.82916,5.42361,4.76435,23.9691,18.429,1015.83,489.964
482,699.071,77.6722,97.0437,185.337,2.85145,3.53753,3.10468,18.8286,8.66364,8.02636,5.11037,5.32935,4.00939,3.60202,17.2594,16.6432,970.994,515.246
510,685.503,70.7171,86.3891,163.713,2.12226,3.71981,1.79065,16.4215,5.96756,7.21206,5.11037,4.2045,3.30228,3.26993,16.3009,14.9611,790.146,539.976
538,618.043,68.936,81.3046,147.85,4.24907,4.91226,3.83385,14.0145,6.86625,7.21206,5.11037,3.45459,2.87802,2.60574,14.3839,13.6113,638.138,560.863
566,511.526,56.3854,68.3771,130.405,2.38052,1.78304,2.77807,11.6074,4.17017,4.76914,3.38588,3.45459,2.45375,1.94155,10.5498,12.3446,597.058,578.709
594,475.403,57.4219,66.5479,118.588,5.06181,1.82102,1.31973,10.0026,5.06886,4.76914,3.38588,2.70469,1.88807,1.94155,8.63279,11.4932,471.445,593.216
622,418.139,49.8585,61.3331,110.219,2.54003,3.02106,2.79326,9.20027,3.27147,3.95484,3.38588,2.32973,1.88807,1.60946,7.67427,10.6625,432.426,605.819
650,373.133,48.2835,57.6338,102.459,2.21341,4.38059,2.48944,8.39791,3.27147,3.14053,3.38588,1.95478,1.60522,1.94155,7.67427,9.64498,415.937,617.348
678,354.582,45.8326,55.1604,95.8854,4.41617,3.1046,1.32732,7.59555,4.17017,3.14053,4.24812,2.32973,1.32238,1.44341,7.67427,8.66897,378.932,628.608
706,336.419,44.6134,53.7275,92.2459,4.006,3.00587,2.5578,7.59555,2.37278,3.14053,3.38588,1.95478,1.18096,1.44341,4.79872,7.96292,415.179,639.625
734,328.718,43.6214,53.1478,92.6613,3.98322,2.17799,2.85403,6.79318,2.37278,3.95484,2.52364,1.57983,1.4638,1.44341,5.75724,7.6722,406.116,651.404
762,365.664,42.9896,54.5864,92.3301,4.49213,5.91482,2.70971,5.99082,3.27147,4.76914,3.38588,1.57983,1.03954,1.11132,7.67427,7.00768,404.815,662.212
790,283.514,39.0161,50.9797,90.943,3.49709,3.37043,3.37052,6.79318,2.37278,3.14053,1.66139,1.57983,1.03954,0.945271,5.75724,6.34317,291.195,671.18
818,281.109,35.2798,46.0193,86.6801,4.38579,1.41847,3.47686,5.99082,4.17017,3.14053,2.52364,0.829925,1.03954,1.44341,6.71575,4.99337,260.236,679.156
846,250.12,34.2742,44.6889,84.6292,4.363,4.33502,3.68194,4.38609,3.27147,2.32623,3.38588,1.20488,1.03954,1.27736,6.71575,5.30486,261.858,686.469
874,250.394,30.3334,40.7102,79.0155,0.914544,1.44885,1.78305,5.18845,2.37278,2.32623,2.52364,1.57983,1.32238,1.44341,5.75724,4.82724,278.778,693.826
902,277.932,32.4316,41.04,78.6435,1.71209,3.09701,0.658914,5.18845,2.37278,3.14053,1.66139,1.57983,1.18096,1.11132,5.75724,4.51575,262.497,701.425
930,237.301,32.4854,42.7677,76.9357,1.84882,4.6844,4.47947,5.99082,2.37278,3.95484,2.52364,1.20488,1.32238,1.27736,7.67427,3.9966,198.221,708.014
958,212.387,28.8982,39.5869,76.5164,0.998097,2.92232,1.04629,5.99082,2.37278,3.14053,4.24812,1.57983,1.03954,1.27736,5.75724,3.45668,238.471,714.225
986,226.91,25.6874,35.7348,73.1741,1.44624,2.78561,2.23879,5.18845,2.37278,3.14053,2.52364,0.829925,1.03954,1.27736,5.75724,2.99982,173.652,720.332
1014,173.509,19.178,27.4776,68.8511,1.41586,1.07669,0.95514,5.99082,3.27147,3.14053,-0.0630909,1.57983,1.03954,0.945271,3.8402,3.02059,140.919,724.938
1042,152.153,19.216,27.4399,64.8502,0.830991,0.765285,1.1906,5.18845,2.37278,1.51192,2.52364,0.454973,0.898114,1.11132,5.75724,2.54297,175.47,729.07
1070,152.063,18.2986,25.4719,61.2807,2.70713,1.11466,1.11465,4.38609,2.37278,3.14053,3.38588,0.829925,0.756693,1.44341,4.79872,2.33531,96.5826,732.895
1098,134.716,14.9112,22.1048,56.8277,0.35246,1.03871,0.332305,4.38609,1.47408,3.14053,2.52364,1.20488,0.898114,0.945271,3.8402,2.00305,101.43,735.982
1126,124.437,14.9383,22.1317,55.4903,1.43105,1.03871,1.37289,2.78136,0.575384,1.51192,0.799152,0.454973,0.615271,1.11132,3.8402,2.02381,107.327,738.868
1154,110.105,12.1319,18.4667,52.5542,0.808204,1.01593,1.37289,1.979,1.47408,2.32623,1.66139,0.829925,0.615271,0.779224,4.79872,1.67079,102.751,741.607
1182,112.949,11.2592,17.0271,50.3793,1.3551,0.795666,1.09946,2.78136,1.47408,1.51192,1.66139,1.20488,0.898114,0.945271,3.8402,1.4839,83.4464,744.012
1210,97.9188,10.8662,15.2265,48.1111,0.208141,1.88178,0.962735,3.58373,2.37278,1.51192,-0.0630909,1.20488,0.615271,1.11132,4.79872,1.52543,83.9611,746.38
1238,101.722,8.72583,14.35,46.74,1.40827,1.22859,2.14004,2.78136,-0.323311,2.32623,-0.0630909,1.20488,0.756693,0.945271,3.8402,1.15164,49.3794,748.44
1266,80.5631,8.58901,13.0312,44.7521,0.527162,0.484263,1.12224,3.58373,1.47408,0.697621,-0.0630909,1.57983,0.615271,0.945271,2.88169,1.02704,62.6638,750.051
1294,86.0101,8.09182,13.3745,44.0093,0.443609,1.57037,2.16283,3.58373,1.47408,0.697621,0.799152,0.0800203,0.615271,0.779224,3.8402,1.00628,58.6914,751.652
1322,83.8165,5.93257,10.5709,41.948,0.261311,0.841237,1.69191,3.58373,-0.323311,1.51192,1.66139,0.454973,0.756693,0.945271,3.8402,0.819381,63.8872,753.145
1350,71.3075,5.69739,10.489,40.2666,0.0410354,0.826046,1.16782,2.78136,2.37278,0.697621,1.66139,0.454973,0.756693,1.11132,5.75724,0.674018,54.0121,754.625
1378,74.1874,5.29803,8.90524,39.5794,0.268907,0.841237,0.286732,3.58373,1.47408,2.32623,0.799152,0.829925,0.756693,0.779224,4.79872,0.653252,42.0156,755.925
1406,78.1122,6.36418,9.16737,38.4173,1.58297,1.28935,1.00071,1.17664,1.47408,1.51192,1.66139,0.829925,0.473849,1.11132,3.8402,0.487123,41.7031,757.085
1434,66.7178,4.29164,8.66475,37.3288,0.268907,1.57797,0.826016,1.979,-0.323311,1.51192,0.799152,0.454973,0.756693,0.779224,3.8402,0.549421,40.5003,758.214
1462,72.3734,4.62513,7.92701,36.5329,1.39307,0.301978,0.575363,2.78136,2.37278,1.51192,1.66139,0.454973,0.473849,0.779224,2.88169,0.34176,37.4213,759.526
1483,67.6904,3.91941,7.64265,35.806,0.185354,0.332359,0.127225,2.78136,0.575384,3.14053,1.66139,0.829925,0.615271,1.11132,3.8402,0.0302687,0.0,759.753