Folder: fsri_materials_database/01_Data/Overstuffed_Sofa/Furniture_Calorimeter (part 2)

File: Overstuffed_Sofa_R3.csv
Time (s),Convective HRR,TCPlume1,TCPlume2,TCPlume3,DPPlume1,DPPlume2,DPPlume3,HF1,HF2,HF3,HF4,HF5,HF6,RAD2,RAD1,Load Cell,Heat Release Rate,Total Heat Released
-120,0.0,-6.17801,-6.12842,12.5572,-0.000957444,-0.050358,-0.119933,0.235989,0.460676,0.499531,0.557922,-0.0598663,0.00118842,0.447131,2.88169,48.1453,0.0,0.0
-95,0.0,-6.44066,-6.58644,12.5677,0.0218297,0.0407843,-0.00599984,0.235989,1.35937,-0.314773,-0.304321,-0.434819,0.00118842,0.447131,3.8402,48.3322,0.0,0.0
-70,0.0,-7.08885,-6.64816,12.4693,-0.0617232,-0.0199773,0.0015957,0.235989,-1.33672,-0.314773,0.557922,0.315086,0.00118842,0.779224,0.964651,48.1869,0.0,0.0
-45,0.0,-6.52498,-6.55353,12.5999,-0.069319,0.00280831,-0.0515731,0.235989,-1.33672,-1.12908,-1.16656,-0.0598663,0.00118842,0.613177,2.88169,48.1453,0.0,0.0
-20,0.0,-7.25721,-6.73818,12.6104,-0.000957444,0.124331,0.0395734,-0.566374,0.460676,0.499531,-2.02881,0.315086,0.00118842,0.281084,3.8402,48.1453,0.0,0.0
5,0.0,-7.51472,-6.40905,12.8937,0.0294254,0.0255939,0.0243823,0.235989,-0.43802,-0.314773,-1.16656,-0.434819,-0.140233,0.281084,2.88169,48.1453,0.0,0.0
30,0.0,-6.68802,-6.59931,12.6697,0.014234,-0.0351676,-0.0287865,0.235989,0.460676,0.499531,0.557922,0.315086,0.00118842,0.613177,1.92317,48.0207,0.0,0.0
55,0.0,-7.1352,-6.38181,12.2332,0.0674041,0.0255939,0.0319779,1.03835,-0.43802,-0.314773,2.28241,0.315086,0.00118842,0.447131,1.92317,47.9792,0.0,0.0
80,0.0,-5.87392,-6.41009,12.3583,-0.0313403,0.0179987,-0.0591687,-0.566374,0.460676,0.499531,0.557922,-0.0598663,-0.140233,0.447131,1.92317,48.1869,0.0,0.0
105,4.91115,-5.62903,-6.24304,12.6361,0.196531,-0.050358,-0.0667642,0.235989,0.460676,0.499531,0.557922,-0.434819,0.14261,0.945271,2.88169,48,17.6317,0.1824314
130,23.8544,-3.62185,-6.18189,13.8788,0.120574,-0.0275725,0.00919125,3.44544,0.460676,1.31384,0.557922,-0.0598663,0.425454,0.779224,2.88169,47.9792,120.439,1.37465
155,74.347,0.632861,-4.14459,16.4429,0.280084,0.0939506,-0.0667642,5.05017,3.15676,3.75675,2.28241,1.43994,0.991141,1.44341,6.71575,47.6885,257.455,5.25675
180,183.584,12.5454,2.42066,21.0958,0.751019,0.405353,0.0623601,10.6667,4.95415,6.19966,4.00689,2.18985,1.41541,2.1076,8.63279,47.1693,420.695,14.434
205,307.277,31.8025,12.8014,29.0117,0.431999,-0.0351676,0.0319779,9.86435,5.85285,8.64258,4.00689,2.5648,1.98109,2.27365,8.63279,46.3387,788.99,28.6609
230,582.34,58.5195,42.4842,49.1839,2.49804,3.10165,2.53851,28.3187,17.5359,17.5999,12.6293,6.68928,5.23379,5.09644,20.135,44.6982,1220.28,55.7285
255,738.006,77.0741,68.3966,95.2632,3.37154,5.62325,5.34126,41.9589,21.1307,23.3001,17.8028,8.93899,5.65806,5.42853,25.8861,42.5385,1623.52,91.2517
280,1031.47,118.748,126.458,177.321,6.17437,6.3372,8.61494,55.5991,28.3202,29.0002,25.563,10.8138,6.93086,6.75691,36.4298,40.0466,1641.63,133.269
305,1052.15,184.225,236.87,383.088,7.32892,8.27397,12.238,78.0653,34.6111,35.5146,30.7364,16.0631,11.1735,10.742,60.3927,37.0355,1968.23,181.747
330,1310.31,199.069,250.972,376.737,5.31605,2.63834,11.2734,90.1007,39.1046,41.2148,34.1854,22.8122,14.5676,13.8969,80.5216,33.7337,2870.84,237.849
355,1595.95,204.984,278.272,426.106,6.26551,10.1044,6.91354,76.4605,31.915,32.2574,28.1497,18.6878,12.8706,11.9044,67.1023,30.0581,2428.79,300.718
380,1529.43,198.48,255.64,413.223,3.39433,7.08912,9.82264,73.2511,26.5228,30.6288,25.563,17.5629,12.022,11.2402,63.2682,26.9431,1910.73,354.353
405,1212.3,158.107,205.758,360.464,4.49571,9.45122,10.9316,58.8085,20.232,24.1144,21.2517,13.8134,9.61787,9.24761,51.766,23.9321,1640.2,399.729
430,1324.59,127.874,166.74,307.078,4.73118,3.45102,6.16158,40.3542,15.7385,15.9713,13.4916,10.4388,7.63796,6.92295,38.3468,21.4609,1302.47,439.339
455,951.013,107.675,137.955,257.246,2.75629,6.77772,4.46778,24.3069,10.3463,11.8998,9.18035,7.06423,5.37522,4.93039,27.8031,19.2597,1068.93,470.186
480,838.724,87.6457,111.09,217.703,3.18165,4.71942,1.73338,17.888,9.44763,7.82827,8.31811,5.56442,3.67815,3.93411,19.1765,17.6192,867.9,495.665
505,625.449,69.6643,89.0075,185.703,2.80946,1.40032,3.59429,15.4809,6.75154,7.82827,4.86914,4.06461,3.11247,2.93783,15.3424,16.1655,812.392,516.82
530,593.76,62.534,78.8324,163.752,1.82961,1.11171,3.00943,13.0738,5.85285,5.38536,4.00689,2.93975,2.54678,2.60574,14.3839,14.8157,838.97,535.808
555,547.277,57.1435,71.0026,144.294,3.47788,4.68904,1.50551,12.2714,4.95415,4.57105,1.42016,3.68966,1.83967,2.1076,11.5083,13.6736,652.947,552.309
580,492.019,48.1308,61.4914,128.322,3.01454,1.41551,3.27528,9.86435,2.25807,4.57105,2.28241,2.5648,1.55683,1.94155,11.5083,12.5107,585.391,567.446
605,438.907,46.289,58.4496,116.822,2.27776,2.59277,2.96386,8.25962,4.05546,3.75675,2.28241,1.8149,1.27398,1.60946,7.67427,11.9915,459.281,579.988
630,469.012,45.537,55.7513,108.228,2.99935,3.6409,3.72341,7.45726,4.05546,2.94244,2.28241,2.18985,1.27398,1.44341,7.67427,11.327,476.398,590.931
655,395.562,50.3988,61.9436,106.498,1.77644,3.26114,3.37402,9.86435,3.15676,3.75675,3.14465,1.8149,1.55683,1.44341,7.67427,10.1434,536.301,603.775
680,446.033,54.5497,64.494,107.292,3.66778,3.10924,2.52332,10.6667,4.05546,5.38536,3.14465,2.18985,1.69825,1.7755,8.63279,9.52038,496.45,616.436
705,390.079,49.0255,61.0199,103.791,3.7969,5.88908,2.61446,9.06199,4.05546,4.57105,2.28241,1.8149,1.27398,1.60946,8.63279,8.66897,416.732,627.598
730,368.916,43.2089,54.7303,98.368,2.24738,1.09652,2.95626,6.6549,3.15676,2.12814,2.28241,1.43994,1.27398,1.27736,7.67427,8.00445,444.586,638.152
755,348.76,39.508,51.0976,93.9675,3.89565,2.75986,3.82216,7.45726,2.25807,5.38536,3.14465,1.43994,1.13256,1.27736,5.75724,7.4853,342.984,647.906
780,298.002,38.0638,50.1473,91.1082,2.63476,6.61062,2.69042,6.6549,3.15676,3.75675,2.28241,1.43994,1.13256,1.44341,7.67427,6.98691,325.063,656.543
805,283.567,36.5002,46.821,88.1361,2.62716,0.633209,0.791532,5.05017,2.25807,3.75675,2.28241,1.43994,1.13256,1.27736,6.71575,6.34317,306.385,664.279
830,319.092,36.7353,47.758,85.7225,3.9868,2.95734,3.71582,6.6549,2.25807,2.12814,4.00689,1.43994,0.991141,1.11132,5.75724,5.82401,298.768,672.573
855,273.702,35.5548,46.6255,85.665,3.22723,5.73718,5.25012,5.85253,1.35937,2.12814,1.42016,1.43994,1.41541,0.945271,5.75724,5.53329,277.927,680.316
880,228.169,35.0737,45.0731,83.2843,2.08027,3.35229,2.00682,3.44544,3.15676,2.94244,2.28241,1.43994,1.13256,1.27736,5.75724,4.99337,309.542,687.913
905,241.138,34.0734,43.7471,80.9834,3.38674,2.34213,2.18152,5.85253,3.15676,2.94244,3.14465,1.06499,1.13256,1.27736,5.75724,4.64034,295.555,695.629
930,239.768,31.646,41.1544,79.3067,1.29032,3.69407,2.2119,5.85253,1.35937,1.31384,4.00689,1.43994,1.27398,1.27736,5.75724,4.34962,265.608,702.218
955,209.55,27.6631,37.057,76.7081,1.41944,1.18006,2.63725,5.05017,0.460676,2.94244,1.42016,1.43994,0.991141,1.11132,6.71575,4.16272,266.137,708.729
980,216.245,24.951,33.7691,73.6331,1.07764,2.15225,1.81693,5.05017,2.25807,2.94244,1.42016,0.690038,0.849719,1.27736,5.75724,3.6851,253.627,715.418
1005,208.996,26.2351,35.8286,72.5329,0.295276,0.580043,1.72578,5.85253,1.35937,2.12814,1.42016,1.06499,1.13256,1.11132,7.67427,3.47744,248.712,721.291
1030,212.825,25.2264,34.4919,71.6999,1.16878,2.74467,3.2373,5.85253,2.25807,2.94244,1.42016,0.690038,0.849719,1.27736,5.75724,3.16595,247.398,727.135
1055,175.726,22.9681,32.5533,69.2529,1.89797,0.86866,1.65742,5.05017,2.25807,2.12814,1.42016,1.06499,1.13256,1.11132,5.75724,2.81293,245.31,733.297
1080,190.926,23.3466,31.8776,67.2347,0.910529,0.777518,1.27005,4.24781,2.25807,2.12814,0.557922,0.690038,0.991141,1.11132,5.75724,2.6468,227.695,739.145
1105,185.722,25.6206,33.9462,66.9096,3.2652,3.19279,2.7208,4.24781,2.25807,2.12814,2.28241,1.06499,0.849719,1.27736,6.71575,2.16918,217.124,744.589
1130,171.315,22.5894,31.9527,65.3257,1.99672,1.36235,2.67523,5.05017,1.35937,3.75675,4.00689,1.43994,0.849719,1.11132,5.75724,2.02381,216.492,749.676
1155,154.939,19.3062,26.0581,61.1898,1.16119,0.838279,0.82951,4.24781,1.35937,1.31384,1.42016,1.06499,0.991141,1.11132,4.79872,1.87845,164.418,754.272
1180,127.76,17.3732,25.3459,59.2456,0.492765,2.72948,1.54349,2.64308,3.15676,2.12814,1.42016,1.43994,0.708297,1.11132,4.79872,1.69156,163.315,758.323
1205,138.942,14.4411,21.1824,56.8156,0.675062,0.724351,2.2119,3.44544,2.25807,2.12814,1.42016,1.43994,0.991141,1.11132,3.8402,1.50466,150.103,762.263
1230,130.482,11.3614,18.4979,54.3933,0.097787,1.55223,1.49792,4.24781,2.25807,1.31384,1.42016,0.690038,0.566876,0.945271,4.79872,1.33853,135.984,765.856
1255,109.495,11.1323,17.5094,52.2894,1.35868,0.906636,0.890275,2.64308,1.35937,2.12814,2.28241,1.43994,0.849719,0.945271,5.75724,1.3593,137.043,769.185
1280,111.82,9.25979,15.1109,49.5909,0.637083,3.73205,0.19908,3.44544,-0.43802,2.12814,2.28241,0.690038,0.708297,1.11132,4.79872,1.19317,141.791,772.578
1305,107.165,9.22709,15.726,48.0414,1.37387,0.0787602,1.0194,3.44544,0.460676,1.31384,1.42016,0.690038,0.708297,0.779224,4.79872,1.04781,123.035,775.951
1330,99.3402,8.77381,13.4445,46.4532,0.629488,1.07373,1.0118,2.64308,2.25807,1.31384,1.42016,0.690038,0.708297,0.945271,4.79872,0.819381,115.682,778.958
1355,90.1908,7.39686,12.5287,44.8576,0.530743,0.329401,1.04978,1.84072,2.25807,1.31384,0.557922,0.315086,0.708297,1.27736,3.8402,0.674018,114.489,781.552
1380,93.5343,7.15623,10.7611,43.2865,0.333254,1.09652,1.49032,2.64308,1.35937,1.31384,2.28241,0.690038,0.708297,1.11132,4.79872,0.507889,93.9837,784.388
1405,89.7719,5.69649,9.34152,40.266,0.826976,0.192688,1.12574,2.64308,0.460676,0.499531,1.42016,1.43994,0.708297,1.11132,5.75724,0.466357,90.9059,786.597
1430,90.8721,4.69569,8.95365,39.2166,0.523147,0.344592,0.320609,3.44544,1.35937,1.31384,1.42016,0.690038,0.849719,1.11132,3.8402,0.507889,93.9327,789.076
1455,84.8776,5.47237,8.3146,37.0616,0.112978,-0.0275725,0.305418,3.44544,2.25807,2.12814,2.28241,0.315086,0.708297,1.11132,3.8402,0.175631,103.454,791.532
1480,85.2886,3.61817,7.1121,35.6989,0.143361,0.0559746,0.0319779,2.64308,-0.43802,1.31384,2.28241,0.315086,0.566876,0.945271,2.88169,0.196398,0.0,793.012
1484,87.0489,3.47056,6.62018,35.2926,0.0294254,0.245854,0.138316,1.84072,3.15676,0.499531,2.28241,0.315086,0.566876,0.945271,3.8402,0.196398,0.0,793.012