Folder: fsri_materials_database/01_Data/PUF_Mattress_Pad/FTIR/IS

Note: README.md
# Materials and Products Database
### Repository of materials and products properties and fire test data to improve fire modeling and fire investigation.

This project was supported in part by Award No. 2019-DU-BX-0018, awarded by the National Institute of Justice, Office of Justice Programs, U.S. Department of Justice. The opinions, findings, and conclusions or recommendations expressed in this publication / program / exhibition are those of the author(s) and do not necessarily reflect those of the Department of Justice.

***
***

__Cite this database:__ "McKinnon, M., Weinschenk, C., Dow, N., DiDomizio, M., and Madrzykowski, D. Materials and Products Database (Version 1.0.0), Fire Safety Research Institute, UL Research Institutes. Columbia, MD 21045, 2023."

__Cite the Technical Reference Guide:__ "McKinnon, M., Weinschenk, C., and Madrzykowski, D. Materials and Products Database - Technical Reference Guide, Fire Safety Research Institute, UL Research Institutes. Columbia, MD 21045, 2023."

__Cite the User Guide:__ "McKinnon, M., and Weinschenk, C. Materials and Products Database - User Guide, Fire Safety Research Institute, UL Research Institutes. Columbia, MD 21045, 2023."

***
***

## Database Structure

## 01_Data/
Raw data generated from each apparatus are included here in plain-text format. The data is organized first by material, next by the short name of test apparatus used, and where applicable additional filtering by test settings.

### Test Apparatus and Data File Structure
- __Cone Calorimeter__ (Cone)
    + Data file structure includes the material, the short name for the apparatus, heat flux setting and scan/scalar, date of test, and replicate number. Scan is for the raw output data and scalar is for the initial conditions and high-level test parameters. 
        * Example: __MDF_Cone_HF25scalar_210323_R1__ stands for the first replicate of scalar data generated from a medium density fiber board test in cone calorimeter exposed to 25 kW/m<sup>2</sup> on March 23, 2021.
    + A _Cone_Notes.csv_ is generated for each material from the __plot_Cone_data.py__ script. For materials whose experiments deviated from typical behavior relevant pictures are included in the respective material directory.
- __Fourier Transform Infrared Spectrometer__ (FTIR)
    + The FTIR directory contains subdirectories for the Attenuated Total Reflectance method (ATR) and the Integrating Sphere (IS)
    + Data file structure for the ATR experiment files includes the material, the abbreviated name for the apparatus, date of test, and replicate number. 
        * Example: __MDF_ATR_210323_R5__ stands for the fifth replicate of data collected with the ATR accessory conducted on June 8, 2021.
    + Data file structure for the IS experiment files includes the material, the abbreviated name for the apparatus, the measurand, whether the test is a sample measurement or standard reference, date of test, and replicate number.
        * Example: __OSB_IS_REFLECT_MEAS_2

File: PUF_Mattress_Pad_IS_S_221003_R1.dpt
7497.03,0.66888
7473.89,0.68608
7450.74,0.66856
7427.6,0.67497
7404.45,0.66038
7381.31,0.65183
7358.16,0.65262
7335.02,0.66136
7311.87,0.65425
7288.73,0.65958
7265.58,0.64594
7242.44,0.64320
7219.29,0.63781
7196.15,0.63089
7173,0.64843
7149.86,0.64402
7126.71,0.65151
7103.57,0.65532
7080.42,0.65012
7057.28,0.64860
7034.13,0.65811
7010.99,0.64872
6987.84,0.65083
6964.7,0.65033
6941.55,0.65281
6918.41,0.65694
6895.26,0.65281
6872.12,0.65252
6848.97,0.65528
6825.83,0.65298
6802.68,0.65205
6779.54,0.65323
6756.39,0.64850
6733.25,0.64570
6710.1,0.63362
6686.96,0.62410
6663.82,0.62354
6640.67,0.62262
6617.53,0.62539
6594.38,0.62576
6571.24,0.62808
6548.09,0.63483
6524.95,0.64047
6501.8,0.64413
6478.66,0.64405
6455.51,0.64992
6432.37,0.64519
6409.22,0.64556
6386.08,0.65064
6362.93,0.65134
6339.79,0.65446
6316.64,0.64687
6293.5,0.65115
6270.35,0.64927
6247.21,0.64688
6224.06,0.65105
6200.92,0.65315
6177.77,0.64868
6154.63,0.64437
6131.48,0.64492
6108.34,0.63748
6085.19,0.63191
6062.05,0.62949
6038.9,0.62110
6015.76,0.61556
5992.61,0.60101
5969.47,0.57409
5946.32,0.53351
5923.18,0.53975
5900.03,0.51767
5876.89,0.53878
5853.74,0.54616
5830.6,0.53651
5807.45,0.52213
5784.31,0.50821
5761.16,0.51003
5738.02,0.52758
5714.87,0.54555
5691.73,0.55918
5668.58,0.55841
5645.44,0.55949
5622.29,0.57284
5599.15,0.57778
5576,0.57903
5552.86,0.58079
5529.71,0.57924
5506.57,0.58224
5483.42,0.58715
5460.28,0.58642
5437.13,0.58957
5413.99,0.60006
5390.84,0.61052
5367.7,0.61327
5344.55,0.61516
5321.41,0.61556
5298.26,0.61422
5275.12,0.60725
5251.97,0.59941
5228.83,0.59384
5205.68,0.59371
5182.54,0.59661
5159.39,0.59732
5136.25,0.59716
5113.1,0.59649
5089.96,0.59090
5066.81,0.58573
5043.67,0.57632
5020.52,0.56756
4997.38,0.55653
4974.23,0.53965
4951.09,0.51779
4927.94,0.49831
4904.8,0.48188
4881.65,0.47202
4858.51,0.45981
4835.36,0.45776
4812.22,0.46897
4789.07,0.48340
4765.93,0.49759
4742.78,0.50283
4719.64,0.50177
4696.49,0.49423
4673.35,0.48098
4650.2,0.47106
4627.06,0.46608
4603.92,0.46444
4580.77,0.46517
4557.63,0.46259
4534.48,0.45932
4511.34,0.45695
4488.19,0.44738
4465.05,0.42610
4441.9,0.36587
4418.76,0.29491
4395.61,0.30102
4372.47,0.28141
4349.32,0.24145
4326.18,0.23115
4303.03,0.26527
4279.89,0.28620
4256.74,0.29704
4233.6,0.30684
4210.45,0.32482
4187.31,0.33392
4164.16,0.32254
4141.02,0.31658
4117.87,0.31042
4094.73,0.29565
4071.58,0.27473
4048.44,0.26268
4025.29,0.25944
4002.15,0.26301
3979,0.27510
3955.86,0.29530
3932.71,0.32364
3909.57,0.34452
3886.42,0.35322
3863.28,0.35650
3840.13,0.36264
3816.99,0.37282
3793.84,0.37442
3770.7,0.38894
3747.55,0.41271
3724.41,0.42576
3701.26,0.42599
3678.12,0.39565
3654.97,0.35333
3631.83,0.31523
3608.68,0.28174
3585.54,0.26099
3562.39,0.24599
3539.25,0.22736
3516.1,0.20788
3492.96,0.19594
3469.81,0.17254
3446.67,0.14686
3423.52,0.10360
3400.38,0.08032
3377.23,0.06027
3354.09,0.05228
3330.94,0.04776
3307.8,0.04519
3284.65,0.04425
3261.51,0.04592
3238.36,0.05123
3215.22,0.05707
3192.07,0.06145
3168.93,0.06782
3145.78,0.07224
3122.64,0.07555
3099.49,0.07683
3076.35,0.07359
3053.2,0.07513
3030.06,0.07367
3006.91,0.06597
2983.77,0.04132
2960.62,0.04477
2937.48,0.04039
2914.33,0.04222
2891.19,0.04205
2868.04,0.04201
2844.9,0.05052
2821.75,0.07215
2798.61,0.07951
2775.46,0.08794
2752.32,0.10094
2729.17,0.11346
2706.03,0.13797
2682.88,0.15798
2659.74,0.17042
2636.59,0.18195
2613.45,0.20088
2590.3,0.19771
2567.16,0.22891
2544.02,0.25134
2520.87,0.26290
2497.73,0.26380
2474.58,0.26328
2451.44,0.27019
2428.29,0.28262
2405.15,0.27848
2382,0.26816
2358.86,0.26492
2335.71,0.25181
2312.57,0.21001
2289.42,0.13084
2266.28,0.10885
2243.13,0.18282
2219.99,0.21174
2196.84,0.22634
2173.7,0.23208
2150.55,0.23724
2127.41,0.24367
2104.26,0.24623
2081.12,0.24006
2057.97,0.23329
2034.83,0.21904
2011.68,0.20976
1988.54,0.21370
1965.39,0.21402
1942.25,0.21289
1919.1,0.20728
1895.96,0.20816
1872.81,0.21118
1849.67,0.20820
1826.52,0.19436
1803.38,0.16639
1780.23,0.13234
1757.09,0.08829
1733.94,0.03374
1710.8,0.03664
1687.65,0.03836
1664.51,0.03417
1641.36,0.03030
1618.22,0.03519
1595.07,0.03303
1571.93,0.03221
1548.78,0.03195
1525.64,0.03605
1502.49,0.03811
1479.35,0.03759
1456.2,0.03748
1433.06,0.04502
1409.91,0.04022
1386.77,0.03899
1363.62,0.04400
1340.48,0.03999
1317.33,0.03684
1294.19,0.03475
1271.04,0.03474
1247.9,0.03348
1224.75,0.03266
1201.61,0.03580
1178.46,0.03226
1155.32,0.02881
1132.17,0.02947
1109.03,0.03506
1085.88,0.04130
1062.74,0.04598
1039.59,0.05160
1016.45,0.04900
993.304,0.06053
970.159,0.06804
947.014,0.06707
923.869,0.05274
900.724,0.06350
877.579,0.06110
854.434,0.06264
831.289,0.05698
808.144,0.05351
784.999,0.06261
761.854,0.05365
738.709,0.06840
715.565,0.05460
692.42,0.05125
669.275,0.04831
646.13,0.05360
622.985,0.05893
599.84,0.05778

File: PUF_Mattress_Pad_IS_S_221003_R2.dpt
7497.03,0.68954
7473.89,0.67556
7450.74,0.67161
7427.6,0.67307
7404.45,0.67321
7381.31,0.65834
7358.16,0.65645
7335.02,0.66355
7311.87,0.65612
7288.73,0.64837
7265.58,0.64398
7242.44,0.63977
7219.29,0.64575
7196.15,0.63755
7173,0.64730
7149.86,0.64879
7126.71,0.64907
7103.57,0.65051
7080.42,0.65316
7057.28,0.65148
7034.13,0.65440
7010.99,0.65468
6987.84,0.65087
6964.7,0.65785
6941.55,0.65825
6918.41,0.65592
6895.26,0.65267
6872.12,0.65745
6848.97,0.65378
6825.83,0.65794
6802.68,0.65374
6779.54,0.64963
6756.39,0.64174
6733.25,0.64339
6710.1,0.64003
6686.96,0.62657
6663.82,0.62898
6640.67,0.62513
6617.53,0.62499
6594.38,0.62401
6571.24,0.63233
6548.09,0.63611
6524.95,0.64339
6501.8,0.64546
6478.66,0.64587
6455.51,0.65232
6432.37,0.65094
6409.22,0.65055
6386.08,0.65502
6362.93,0.65560
6339.79,0.65388
6316.64,0.65525
6293.5,0.64949
6270.35,0.65068
6247.21,0.64928
6224.06,0.65432
6200.92,0.65123
6177.77,0.65041
6154.63,0.64886
6131.48,0.64948
6108.34,0.63784
6085.19,0.63264
6062.05,0.63613
6038.9,0.62707
6015.76,0.61314
5992.61,0.59855
5969.47,0.57579
5946.32,0.53452
5923.18,0.54449
5900.03,0.52210
5876.89,0.54462
5853.74,0.54799
5830.6,0.53785
5807.45,0.52639
5784.31,0.51238
5761.16,0.51067
5738.02,0.52719
5714.87,0.54733
5691.73,0.56095
5668.58,0.55715
5645.44,0.56433
5622.29,0.57583
5599.15,0.58050
5576,0.58204
5552.86,0.58202
5529.71,0.58149
5506.57,0.58453
5483.42,0.58894
5460.28,0.58927
5437.13,0.59175
5413.99,0.60210
5390.84,0.61295
5367.7,0.61435
5344.55,0.61475
5321.41,0.61797
5298.26,0.61903
5275.12,0.61158
5251.97,0.60575
5228.83,0.60147
5205.68,0.60011
5182.54,0.60272
5159.39,0.60399
5136.25,0.60139
5113.1,0.60028
5089.96,0.59571
5066.81,0.58819
5043.67,0.58083
5020.52,0.57158
4997.38,0.56044
4974.23,0.54182
4951.09,0.52017
4927.94,0.50146
4904.8,0.48273
4881.65,0.47477
4858.51,0.46176
4835.36,0.45970
4812.22,0.47209
4789.07,0.48736
4765.93,0.49943
4742.78,0.50525
4719.64,0.50356
4696.49,0.49735
4673.35,0.48437
4650.2,0.47248
4627.06,0.46820
4603.92,0.46685
4580.77,0.46717
4557.63,0.46520
4534.48,0.46273
4511.34,0.45918
4488.19,0.45032
4465.05,0.42700
4441.9,0.36775
4418.76,0.29509
4395.61,0.30315
4372.47,0.28297
4349.32,0.24219
4326.18,0.23344
4303.03,0.26652
4279.89,0.28849
4256.74,0.29853
4233.6,0.30753
4210.45,0.32674
4187.31,0.33554
4164.16,0.32524
4141.02,0.31833
4117.87,0.31208
4094.73,0.29748
4071.58,0.27696
4048.44,0.26430
4025.29,0.26069
4002.15,0.26465
3979,0.27731
3955.86,0.29769
3932.71,0.32611
3909.57,0.34616
3886.42,0.35456
3863.28,0.35820
3840.13,0.36342
3816.99,0.37470
3793.84,0.37709
3770.7,0.39169
3747.55,0.41483
3724.41,0.42893
3701.26,0.43206
3678.12,0.41042
3654.97,0.37574
3631.83,0.34006
3608.68,0.30959
3585.54,0.28999
3562.39,0.27364
3539.25,0.25284
3516.1,0.23153
3492.96,0.21648
3469.81,0.18574
3446.67,0.15405
3423.52,0.10633
3400.38,0.08134
3377.23,0.06102
3354.09,0.05323
3330.94,0.04714
3307.8,0.04446
3284.65,0.04460
3261.51,0.04636
3238.36,0.05104
3215.22,0.05745
3192.07,0.06176
3168.93,0.06816
3145.78,0.07318
3122.64,0.07657
3099.49,0.07785
3076.35,0.07443
3053.2,0.07576
3030.06,0.07415
3006.91,0.06643
2983.77,0.04152
2960.62,0.04470
2937.48,0.04105
2914.33,0.04135
2891.19,0.04168
2868.04,0.04253
2844.9,0.05102
2821.75,0.07224
2798.61,0.07982
2775.46,0.08881
2752.32,0.10148
2729.17,0.11379
2706.03,0.13859
2682.88,0.15881
2659.74,0.17129
2636.59,0.18339
2613.45,0.20179
2590.3,0.19900
2567.16,0.23081
2544.02,0.25269
2520.87,0.26425
2497.73,0.26489
2474.58,0.26494
2451.44,0.27228
2428.29,0.28400
2405.15,0.28019
2382,0.26960
2358.86,0.26439
2335.71,0.25175
2312.57,0.21060
2289.42,0.13173
2266.28,0.10900
2243.13,0.18388
2219.99,0.21363
2196.84,0.22752
2173.7,0.23418
2150.55,0.23936
2127.41,0.24584
2104.26,0.24821
2081.12,0.24216
2057.97,0.23504
2034.83,0.22098
2011.68,0.21148
1988.54,0.21525
1965.39,0.21556
1942.25,0.21411
1919.1,0.20861
1895.96,0.20984
1872.81,0.21257
1849.67,0.20958
1826.52,0.19529
1803.38,0.16750
1780.23,0.13317
1757.09,0.08873
1733.94,0.03377
1710.8,0.03672
1687.65,0.03816
1664.51,0.03434
1641.36,0.03046
1618.22,0.03538
1595.07,0.03317
1571.93,0.03194
1548.78,0.03181
1525.64,0.03613
1502.49,0.03828
1479.35,0.03793
1456.2,0.03726
1433.06,0.04495
1409.91,0.04034
1386.77,0.03951
1363.62,0.04374
1340.48,0.04016
1317.33,0.03695
1294.19,0.03482
1271.04,0.03501
1247.9,0.03286
1224.75,0.03269
1201.61,0.03571
1178.46,0.03259
1155.32,0.02885
1132.17,0.02822
1109.03,0.03443
1085.88,0.04175
1062.74,0.04632
1039.59,0.05155
1016.45,0.04987
993.304,0.06117
970.159,0.06835
947.014,0.06690
923.869,0.05245
900.724,0.06415
877.579,0.06130
854.434,0.06290
831.289,0.05610
808.144,0.05426
784.999,0.06253
761.854,0.05323
738.709,0.06851
715.565,0.05613
692.42,0.05123
669.275,0.04861
646.13,0.05422
622.985,0.05851
599.84,0.05876

File: PUF_Mattress_Pad_IS_S_221003_R3.dpt
7497.03,0.67949
7473.89,0.67131
7450.74,0.67507
7427.6,0.66548
7404.45,0.66296
7381.31,0.66198
7358.16,0.66091
7335.02,0.66591
7311.87,0.66144
7288.73,0.65291
7265.58,0.64797
7242.44,0.65045
7219.29,0.65011
7196.15,0.64717
7173,0.64793
7149.86,0.64230
7126.71,0.64537
7103.57,0.64919
7080.42,0.65428
7057.28,0.65295
7034.13,0.65495
7010.99,0.65478
6987.84,0.64827
6964.7,0.65051
6941.55,0.65562
6918.41,0.65436
6895.26,0.65654
6872.12,0.65934
6848.97,0.65837
6825.83,0.65440
6802.68,0.65951
6779.54,0.65553
6756.39,0.64277
6733.25,0.64554
6710.1,0.63403
6686.96,0.62959
6663.82,0.62570
6640.67,0.62687
6617.53,0.62726
6594.38,0.62579
6571.24,0.63011
6548.09,0.63134
6524.95,0.63869
6501.8,0.64515
6478.66,0.64847
6455.51,0.64701
6432.37,0.64875
6409.22,0.65013
6386.08,0.65037
6362.93,0.65252
6339.79,0.65429
6316.64,0.65541
6293.5,0.65233
6270.35,0.65281
6247.21,0.65055
6224.06,0.64848
6200.92,0.64972
6177.77,0.64869
6154.63,0.65104
6131.48,0.64179
6108.34,0.63679
6085.19,0.63185
6062.05,0.63111
6038.9,0.62635
6015.76,0.61889
5992.61,0.59997
5969.47,0.57469
5946.32,0.53512
5923.18,0.53922
5900.03,0.52213
5876.89,0.54300
5853.74,0.54572
5830.6,0.53756
5807.45,0.52573
5784.31,0.51072
5761.16,0.50969
5738.02,0.52845
5714.87,0.54950
5691.73,0.55907
5668.58,0.55968
5645.44,0.56345
5622.29,0.57402
5599.15,0.58155
5576,0.58162
5552.86,0.58042
5529.71,0.58066
5506.57,0.58508
5483.42,0.58849
5460.28,0.58825
5437.13,0.59146
5413.99,0.60088
5390.84,0.61170
5367.7,0.61740
5344.55,0.61746
5321.41,0.61925
5298.26,0.61849
5275.12,0.61390
5251.97,0.60832
5228.83,0.60367
5205.68,0.60147
5182.54,0.60526
5159.39,0.60584
5136.25,0.60518
5113.1,0.60333
5089.96,0.59696
5066.81,0.58899
5043.67,0.57980
5020.52,0.57112
4997.38,0.55943
4974.23,0.54216
4951.09,0.51841
4927.94,0.50139
4904.8,0.48515
4881.65,0.47461
4858.51,0.46138
4835.36,0.46014
4812.22,0.47035
4789.07,0.48650
4765.93,0.49991
4742.78,0.50566
4719.64,0.50353
4696.49,0.49668
4673.35,0.48267
4650.2,0.47304
4627.06,0.46806
4603.92,0.46712
4580.77,0.46843
4557.63,0.46504
4534.48,0.46197
4511.34,0.45857
4488.19,0.45065
4465.05,0.42808
4441.9,0.36801
4418.76,0.29599
4395.61,0.30311
4372.47,0.28294
4349.32,0.24188
4326.18,0.23327
4303.03,0.26679
4279.89,0.28735
4256.74,0.29762
4233.6,0.30809
4210.45,0.32672
4187.31,0.33604
4164.16,0.32506
4141.02,0.31738
4117.87,0.31211
4094.73,0.29731
4071.58,0.27731
4048.44,0.26405
4025.29,0.26198
4002.15,0.26466
3979,0.27704
3955.86,0.29744
3932.71,0.32638
3909.57,0.34707
3886.42,0.35422
3863.28,0.35821
3840.13,0.36360
3816.99,0.37464
3793.84,0.37784
3770.7,0.39204
3747.55,0.41600
3724.41,0.43044
3701.26,0.43701
3678.12,0.42263
3654.97,0.39315
3631.83,0.36263
3608.68,0.33475
3585.54,0.31610
3562.39,0.29755
3539.25,0.27699
3516.1,0.25299
3492.96,0.23359
3469.81,0.19623
3446.67,0.16053
3423.52,0.10777
3400.38,0.08151
3377.23,0.06074
3354.09,0.05219
3330.94,0.04779
3307.8,0.04470
3284.65,0.04414
3261.51,0.04718
3238.36,0.05166
3215.22,0.05672
3192.07,0.06276
3168.93,0.06805
3145.78,0.07381
3122.64,0.07657
3099.49,0.07765
3076.35,0.07446
3053.2,0.07615
3030.06,0.07387
3006.91,0.06677
2983.77,0.04142
2960.62,0.04451
2937.48,0.04106
2914.33,0.04178
2891.19,0.04199
2868.04,0.04262
2844.9,0.05107
2821.75,0.07240
2798.61,0.07963
2775.46,0.08838
2752.32,0.10171
2729.17,0.11341
2706.03,0.13864
2682.88,0.15899
2659.74,0.17109
2636.59,0.18329
2613.45,0.20149
2590.3,0.19917
2567.16,0.23026
2544.02,0.25268
2520.87,0.26416
2497.73,0.26493
2474.58,0.26485
2451.44,0.27230
2428.29,0.28456
2405.15,0.28015
2382,0.26960
2358.86,0.26427
2335.71,0.25194
2312.57,0.21075
2289.42,0.13199
2266.28,0.10923
2243.13,0.18342
2219.99,0.21333
2196.84,0.22775
2173.7,0.23434
2150.55,0.23993
2127.41,0.24621
2104.26,0.24856
2081.12,0.24273
2057.97,0.23566
2034.83,0.22173
2011.68,0.21218
1988.54,0.21582
1965.39,0.21614
1942.25,0.21435
1919.1,0.20904
1895.96,0.21009
1872.81,0.21241
1849.67,0.20984
1826.52,0.19546
1803.38,0.16728
1780.23,0.13273
1757.09,0.08861
1733.94,0.03337
1710.8,0.03658
1687.65,0.03835
1664.51,0.03435
1641.36,0.03065
1618.22,0.03581
1595.07,0.03335
1571.93,0.03214
1548.78,0.03171
1525.64,0.03620
1502.49,0.03815
1479.35,0.03794
1456.2,0.03765
1433.06,0.04499
1409.91,0.04030
1386.77,0.03913
1363.62,0.04370
1340.48,0.04014
1317.33,0.03748
1294.19,0.03513
1271.04,0.03505
1247.9,0.03311
1224.75,0.03337
1201.61,0.03617
1178.46,0.03247
1155.32,0.02933
1132.17,0.02900
1109.03,0.03489
1085.88,0.04220
1062.74,0.04583
1039.59,0.05170
1016.45,0.04923
993.304,0.06102
970.159,0.06826
947.014,0.06706
923.869,0.05245
900.724,0.06394
877.579,0.06095
854.434,0.06305
831.289,0.05708
808.144,0.05423
784.999,0.06337
761.854,0.05409
738.709,0.06850
715.565,0.05585
692.42,0.05255
669.275,0.04823
646.13,0.05533
622.985,0.05876
599.84,0.05898

File: PUF_Mattress_Pad_IS_S_221003_R4.dpt
7497.03,0.67034
7473.89,0.68712
7450.74,0.66745
7427.6,0.67047
7404.45,0.67241
7381.31,0.66274
7358.16,0.66486
7335.02,0.65696
7311.87,0.66408
7288.73,0.65408
7265.58,0.63957
7242.44,0.64616
7219.29,0.65152
7196.15,0.64440
7173,0.64629
7149.86,0.65956
7126.71,0.64220
7103.57,0.65195
7080.42,0.65466
7057.28,0.65341
7034.13,0.66308
7010.99,0.65535
6987.84,0.65394
6964.7,0.65341
6941.55,0.64855
6918.41,0.66012
6895.26,0.65455
6872.12,0.65799
6848.97,0.66128
6825.83,0.65660
6802.68,0.65630
6779.54,0.65391
6756.39,0.64971
6733.25,0.65532
6710.1,0.63580
6686.96,0.62832
6663.82,0.62644
6640.67,0.62962
6617.53,0.62860
6594.38,0.63163
6571.24,0.63305
6548.09,0.63822
6524.95,0.64024
6501.8,0.64628
6478.66,0.65111
6455.51,0.64666
6432.37,0.65345
6409.22,0.64924
6386.08,0.64957
6362.93,0.65223
6339.79,0.65676
6316.64,0.65363
6293.5,0.65380
6270.35,0.65407
6247.21,0.65036
6224.06,0.65467
6200.92,0.65106
6177.77,0.65087
6154.63,0.64750
6131.48,0.64719
6108.34,0.64024
6085.19,0.63322
6062.05,0.63322
6038.9,0.62940
6015.76,0.61674
5992.61,0.60626
5969.47,0.57399
5946.32,0.53458
5923.18,0.53980
5900.03,0.52210
5876.89,0.54193
5853.74,0.54923
5830.6,0.53929
5807.45,0.52669
5784.31,0.51220
5761.16,0.51109
5738.02,0.53022
5714.87,0.54802
5691.73,0.55957
5668.58,0.55960
5645.44,0.56484
5622.29,0.57890
5599.15,0.58341
5576,0.58241
5552.86,0.58364
5529.71,0.58244
5506.57,0.58687
5483.42,0.58726
5460.28,0.59057
5437.13,0.59315
5413.99,0.60342
5390.84,0.61290
5367.7,0.61568
5344.55,0.61628
5321.41,0.61898
5298.26,0.61940
5275.12,0.61512
5251.97,0.60920
5228.83,0.60641
5205.68,0.60506
5182.54,0.60582
5159.39,0.60709
5136.25,0.60610
5113.1,0.60442
5089.96,0.59909
5066.81,0.58970
5043.67,0.58203
5020.52,0.57236
4997.38,0.55942
4974.23,0.54276
4951.09,0.52001
4927.94,0.50054
4904.8,0.48503
4881.65,0.47475
4858.51,0.46276
4835.36,0.46048
4812.22,0.47199
4789.07,0.48737
4765.93,0.50081
4742.78,0.50714
4719.64,0.50494
4696.49,0.49727
4673.35,0.48528
4650.2,0.47272
4627.06,0.46951
4603.92,0.46729
4580.77,0.46920
4557.63,0.46580
4534.48,0.46217
4511.34,0.45975
4488.19,0.45128
4465.05,0.42791
4441.9,0.36852
4418.76,0.29620
4395.61,0.30337
4372.47,0.28318
4349.32,0.24392
4326.18,0.23301
4303.03,0.26705
4279.89,0.28835
4256.74,0.29856
4233.6,0.30845
4210.45,0.32673
4187.31,0.33572
4164.16,0.32476
4141.02,0.31811
4117.87,0.31252
4094.73,0.29787
4071.58,0.27732
4048.44,0.26527
4025.29,0.26111
4002.15,0.26511
3979,0.27801
3955.86,0.29750
3932.71,0.32656
3909.57,0.34765
3886.42,0.35546
3863.28,0.35845
3840.13,0.36436
3816.99,0.37515
3793.84,0.37815
3770.7,0.39254
3747.55,0.41653
3724.41,0.43229
3701.26,0.43883
3678.12,0.42615
3654.97,0.40026
3631.83,0.37073
3608.68,0.34414
3585.54,0.32596
3562.39,0.30783
3539.25,0.28619
3516.1,0.26180
3492.96,0.23996
3469.81,0.20005
3446.67,0.16246
3423.52,0.10856
3400.38,0.08177
3377.23,0.06073
3354.09,0.05262
3330.94,0.04761
3307.8,0.04487
3284.65,0.04463
3261.51,0.04674
3238.36,0.05117
3215.22,0.05811
3192.07,0.06203
3168.93,0.06804
3145.78,0.07351
3122.64,0.07727
3099.49,0.07829
3076.35,0.07424
3053.2,0.07596
3030.06,0.07432
3006.91,0.06679
2983.77,0.04221
2960.62,0.04476
2937.48,0.04167
2914.33,0.04162
2891.19,0.04188
2868.04,0.04218
2844.9,0.05114
2821.75,0.07262
2798.61,0.08008
2775.46,0.08874
2752.32,0.10186
2729.17,0.11447
2706.03,0.13901
2682.88,0.15891
2659.74,0.17133
2636.59,0.18349
2613.45,0.20226
2590.3,0.19932
2567.16,0.23095
2544.02,0.25280
2520.87,0.26505
2497.73,0.26555
2474.58,0.26526
2451.44,0.27210
2428.29,0.28483
2405.15,0.28060
2382,0.26986
2358.86,0.26479
2335.71,0.25202
2312.57,0.21120
2289.42,0.13162
2266.28,0.10964
2243.13,0.18386
2219.99,0.21375
2196.84,0.22833
2173.7,0.23498
2150.55,0.24042
2127.41,0.24671
2104.26,0.24949
2081.12,0.24370
2057.97,0.23615
2034.83,0.22199
2011.68,0.21238
1988.54,0.21583
1965.39,0.21630
1942.25,0.21491
1919.1,0.20910
1895.96,0.21036
1872.81,0.21308
1849.67,0.21001
1826.52,0.19561
1803.38,0.16747
1780.23,0.13285
1757.09,0.08864
1733.94,0.03334
1710.8,0.03666
1687.65,0.03836
1664.51,0.03419
1641.36,0.03088
1618.22,0.03573
1595.07,0.03325
1571.93,0.03214
1548.78,0.03165
1525.64,0.03574
1502.49,0.03809
1479.35,0.03776
1456.2,0.03758
1433.06,0.04483
1409.91,0.04044
1386.77,0.03922
1363.62,0.04378
1340.48,0.04030
1317.33,0.03713
1294.19,0.03490
1271.04,0.03541
1247.9,0.03316
1224.75,0.03271
1201.61,0.03607
1178.46,0.03278
1155.32,0.02943
1132.17,0.02846
1109.03,0.03476
1085.88,0.04168
1062.74,0.04587
1039.59,0.05225
1016.45,0.04953
993.304,0.06104
970.159,0.06852
947.014,0.06765
923.869,0.05267
900.724,0.06450
877.579,0.06083
854.434,0.06366
831.289,0.05734
808.144,0.05362
784.999,0.06316
761.854,0.05469
738.709,0.06898
715.565,0.05620
692.42,0.05149
669.275,0.04945
646.13,0.05614
622.985,0.05795
599.84,0.05883