Folder: fsri_materials_database/01_Data/PUF_Mattress_Pad/FTIR/IS (part 2)

File: PUF_Mattress_Pad_IS_S_221003_R5.dpt
7497.03,0.67420
7473.89,0.66840
7450.74,0.67096
7427.6,0.66728
7404.45,0.66326
7381.31,0.66335
7358.16,0.66748
7335.02,0.65745
7311.87,0.66537
7288.73,0.65961
7265.58,0.64956
7242.44,0.64958
7219.29,0.64821
7196.15,0.64599
7173,0.64159
7149.86,0.64610
7126.71,0.64680
7103.57,0.64991
7080.42,0.65394
7057.28,0.65282
7034.13,0.65731
7010.99,0.65729
6987.84,0.65771
6964.7,0.65195
6941.55,0.65655
6918.41,0.65848
6895.26,0.65873
6872.12,0.65251
6848.97,0.65381
6825.83,0.65530
6802.68,0.66245
6779.54,0.65412
6756.39,0.65048
6733.25,0.64465
6710.1,0.64131
6686.96,0.62892
6663.82,0.62693
6640.67,0.62558
6617.53,0.62851
6594.38,0.62641
6571.24,0.63105
6548.09,0.63843
6524.95,0.64065
6501.8,0.64467
6478.66,0.64755
6455.51,0.64959
6432.37,0.65211
6409.22,0.65375
6386.08,0.65445
6362.93,0.65546
6339.79,0.65354
6316.64,0.65076
6293.5,0.65433
6270.35,0.65557
6247.21,0.64859
6224.06,0.65404
6200.92,0.65285
6177.77,0.64886
6154.63,0.64534
6131.48,0.64560
6108.34,0.63783
6085.19,0.63607
6062.05,0.63381
6038.9,0.62660
6015.76,0.61687
5992.61,0.60106
5969.47,0.57395
5946.32,0.53427
5923.18,0.54013
5900.03,0.52339
5876.89,0.54411
5853.74,0.54636
5830.6,0.53664
5807.45,0.52445
5784.31,0.50986
5761.16,0.51232
5738.02,0.52849
5714.87,0.54997
5691.73,0.55999
5668.58,0.55953
5645.44,0.56511
5622.29,0.57637
5599.15,0.58235
5576,0.58107
5552.86,0.58220
5529.71,0.58231
5506.57,0.58546
5483.42,0.58689
5460.28,0.59044
5437.13,0.59358
5413.99,0.60244
5390.84,0.61182
5367.7,0.61648
5344.55,0.61652
5321.41,0.62025
5298.26,0.61844
5275.12,0.61490
5251.97,0.61112
5228.83,0.60848
5205.68,0.60593
5182.54,0.60629
5159.39,0.60812
5136.25,0.60651
5113.1,0.60461
5089.96,0.59849
5066.81,0.59031
5043.67,0.58183
5020.52,0.57095
4997.38,0.56085
4974.23,0.54380
4951.09,0.52159
4927.94,0.50179
4904.8,0.48549
4881.65,0.47493
4858.51,0.46337
4835.36,0.46162
4812.22,0.47313
4789.07,0.48851
4765.93,0.50052
4742.78,0.50581
4719.64,0.50459
4696.49,0.49729
4673.35,0.48436
4650.2,0.47277
4627.06,0.46911
4603.92,0.46826
4580.77,0.46959
4557.63,0.46549
4534.48,0.46194
4511.34,0.45921
4488.19,0.45111
4465.05,0.42922
4441.9,0.36903
4418.76,0.29660
4395.61,0.30335
4372.47,0.28417
4349.32,0.24240
4326.18,0.23282
4303.03,0.26784
4279.89,0.28856
4256.74,0.29859
4233.6,0.30889
4210.45,0.32781
4187.31,0.33695
4164.16,0.32569
4141.02,0.31841
4117.87,0.31265
4094.73,0.29751
4071.58,0.27790
4048.44,0.26552
4025.29,0.26196
4002.15,0.26509
3979,0.27841
3955.86,0.29847
3932.71,0.32699
3909.57,0.34800
3886.42,0.35590
3863.28,0.36008
3840.13,0.36532
3816.99,0.37623
3793.84,0.37883
3770.7,0.39397
3747.55,0.41843
3724.41,0.43310
3701.26,0.44058
3678.12,0.43029
3654.97,0.40646
3631.83,0.37896
3608.68,0.35393
3585.54,0.33562
3562.39,0.31695
3539.25,0.29437
3516.1,0.26951
3492.96,0.24629
3469.81,0.20495
3446.67,0.16451
3423.52,0.10905
3400.38,0.08251
3377.23,0.06118
3354.09,0.05333
3330.94,0.04782
3307.8,0.04497
3284.65,0.04489
3261.51,0.04682
3238.36,0.05129
3215.22,0.05748
3192.07,0.06208
3168.93,0.06846
3145.78,0.07395
3122.64,0.07753
3099.49,0.07848
3076.35,0.07466
3053.2,0.07597
3030.06,0.07488
3006.91,0.06635
2983.77,0.04140
2960.62,0.04498
2937.48,0.04155
2914.33,0.04245
2891.19,0.04202
2868.04,0.04257
2844.9,0.05125
2821.75,0.07263
2798.61,0.08018
2775.46,0.08864
2752.32,0.10154
2729.17,0.11468
2706.03,0.13896
2682.88,0.15916
2659.74,0.17171
2636.59,0.18363
2613.45,0.20208
2590.3,0.19974
2567.16,0.23108
2544.02,0.25353
2520.87,0.26497
2497.73,0.26630
2474.58,0.26548
2451.44,0.27318
2428.29,0.28532
2405.15,0.28065
2382,0.27062
2358.86,0.26564
2335.71,0.25241
2312.57,0.21127
2289.42,0.13202
2266.28,0.10934
2243.13,0.18393
2219.99,0.21398
2196.84,0.22821
2173.7,0.23499
2150.55,0.24102
2127.41,0.24718
2104.26,0.24970
2081.12,0.24352
2057.97,0.23678
2034.83,0.22236
2011.68,0.21252
1988.54,0.21621
1965.39,0.21668
1942.25,0.21502
1919.1,0.20919
1895.96,0.21094
1872.81,0.21357
1849.67,0.21034
1826.52,0.19582
1803.38,0.16801
1780.23,0.13324
1757.09,0.08868
1733.94,0.03335
1710.8,0.03676
1687.65,0.03870
1664.51,0.03458
1641.36,0.03073
1618.22,0.03531
1595.07,0.03337
1571.93,0.03215
1548.78,0.03154
1525.64,0.03582
1502.49,0.03818
1479.35,0.03773
1456.2,0.03771
1433.06,0.04503
1409.91,0.04073
1386.77,0.03940
1363.62,0.04347
1340.48,0.04060
1317.33,0.03707
1294.19,0.03461
1271.04,0.03482
1247.9,0.03325
1224.75,0.03292
1201.61,0.03623
1178.46,0.03250
1155.32,0.02842
1132.17,0.02809
1109.03,0.03523
1085.88,0.04185
1062.74,0.04561
1039.59,0.05216
1016.45,0.04953
993.304,0.06169
970.159,0.06868
947.014,0.06726
923.869,0.05236
900.724,0.06427
877.579,0.06086
854.434,0.06369
831.289,0.05700
808.144,0.05355
784.999,0.06363
761.854,0.05456
738.709,0.06981
715.565,0.05563
692.42,0.05148
669.275,0.04934
646.13,0.05557
622.985,0.05886
599.84,0.05744

File: PUF_Mattress_Pad_IS_S_221003_R6.dpt
7497.03,0.67945
7473.89,0.67521
7450.74,0.66864
7427.6,0.67048
7404.45,0.66830
7381.31,0.67004
7358.16,0.66357
7335.02,0.66384
7311.87,0.65892
7288.73,0.64914
7265.58,0.64757
7242.44,0.64927
7219.29,0.64165
7196.15,0.64590
7173,0.64325
7149.86,0.65031
7126.71,0.65438
7103.57,0.65121
7080.42,0.65200
7057.28,0.65296
7034.13,0.65650
7010.99,0.64881
6987.84,0.65000
6964.7,0.65353
6941.55,0.65756
6918.41,0.65702
6895.26,0.65461
6872.12,0.65593
6848.97,0.65660
6825.83,0.66062
6802.68,0.65677
6779.54,0.65138
6756.39,0.64963
6733.25,0.64318
6710.1,0.63317
6686.96,0.62547
6663.82,0.62219
6640.67,0.62599
6617.53,0.62867
6594.38,0.62770
6571.24,0.62857
6548.09,0.63468
6524.95,0.64219
6501.8,0.64818
6478.66,0.65061
6455.51,0.65070
6432.37,0.65355
6409.22,0.65098
6386.08,0.65284
6362.93,0.65592
6339.79,0.65382
6316.64,0.65368
6293.5,0.65551
6270.35,0.65239
6247.21,0.65567
6224.06,0.65009
6200.92,0.64759
6177.77,0.64742
6154.63,0.64750
6131.48,0.64510
6108.34,0.63932
6085.19,0.63366
6062.05,0.63446
6038.9,0.62593
6015.76,0.61802
5992.61,0.60361
5969.47,0.57546
5946.32,0.53561
5923.18,0.54125
5900.03,0.51970
5876.89,0.54455
5853.74,0.54889
5830.6,0.53865
5807.45,0.52499
5784.31,0.51126
5761.16,0.51052
5738.02,0.52873
5714.87,0.54797
5691.73,0.56228
5668.58,0.55862
5645.44,0.56586
5622.29,0.57623
5599.15,0.58177
5576,0.58067
5552.86,0.58207
5529.71,0.58147
5506.57,0.58467
5483.42,0.58933
5460.28,0.58849
5437.13,0.59220
5413.99,0.60308
5390.84,0.61311
5367.7,0.61655
5344.55,0.61723
5321.41,0.61801
5298.26,0.62031
5275.12,0.61492
5251.97,0.61247
5228.83,0.60823
5205.68,0.60653
5182.54,0.60689
5159.39,0.60919
5136.25,0.60849
5113.1,0.60532
5089.96,0.59938
5066.81,0.59031
5043.67,0.58114
5020.52,0.57165
4997.38,0.56262
4974.23,0.54337
4951.09,0.52013
4927.94,0.50137
4904.8,0.48508
4881.65,0.47667
4858.51,0.46224
4835.36,0.46189
4812.22,0.47148
4789.07,0.48724
4765.93,0.50018
4742.78,0.50781
4719.64,0.50455
4696.49,0.49793
4673.35,0.48355
4650.2,0.47366
4627.06,0.46974
4603.92,0.46669
4580.77,0.46904
4557.63,0.46532
4534.48,0.46313
4511.34,0.46021
4488.19,0.45112
4465.05,0.42828
4441.9,0.36814
4418.76,0.29663
4395.61,0.30333
4372.47,0.28362
4349.32,0.24338
4326.18,0.23239
4303.03,0.26734
4279.89,0.28866
4256.74,0.29858
4233.6,0.30893
4210.45,0.32773
4187.31,0.33642
4164.16,0.32611
4141.02,0.31849
4117.87,0.31268
4094.73,0.29768
4071.58,0.27687
4048.44,0.26538
4025.29,0.26195
4002.15,0.26606
3979,0.27748
3955.86,0.29831
3932.71,0.32718
3909.57,0.34784
3886.42,0.35552
3863.28,0.35911
3840.13,0.36520
3816.99,0.37601
3793.84,0.37899
3770.7,0.39363
3747.55,0.41773
3724.41,0.43384
3701.26,0.44070
3678.12,0.43203
3654.97,0.41006
3631.83,0.38324
3608.68,0.35816
3585.54,0.34151
3562.39,0.32202
3539.25,0.29959
3516.1,0.27493
3492.96,0.24979
3469.81,0.20661
3446.67,0.16613
3423.52,0.11006
3400.38,0.08256
3377.23,0.06159
3354.09,0.05338
3330.94,0.04756
3307.8,0.04513
3284.65,0.04444
3261.51,0.04668
3238.36,0.05232
3215.22,0.05776
3192.07,0.06234
3168.93,0.06804
3145.78,0.07370
3122.64,0.07746
3099.49,0.07842
3076.35,0.07466
3053.2,0.07557
3030.06,0.07441
3006.91,0.06723
2983.77,0.04129
2960.62,0.04481
2937.48,0.04133
2914.33,0.04155
2891.19,0.04261
2868.04,0.04230
2844.9,0.05126
2821.75,0.07233
2798.61,0.07985
2775.46,0.08929
2752.32,0.10178
2729.17,0.11435
2706.03,0.13858
2682.88,0.15944
2659.74,0.17139
2636.59,0.18369
2613.45,0.20267
2590.3,0.19972
2567.16,0.23137
2544.02,0.25341
2520.87,0.26489
2497.73,0.26583
2474.58,0.26553
2451.44,0.27298
2428.29,0.28541
2405.15,0.28074
2382,0.27026
2358.86,0.26543
2335.71,0.25283
2312.57,0.21136
2289.42,0.13162
2266.28,0.10955
2243.13,0.18379
2219.99,0.21404
2196.84,0.22859
2173.7,0.23559
2150.55,0.24057
2127.41,0.24723
2104.26,0.24979
2081.12,0.24384
2057.97,0.23690
2034.83,0.22214
2011.68,0.21287
1988.54,0.21622
1965.39,0.21686
1942.25,0.21502
1919.1,0.20934
1895.96,0.21107
1872.81,0.21367
1849.67,0.21044
1826.52,0.19563
1803.38,0.16796
1780.23,0.13347
1757.09,0.08876
1733.94,0.03330
1710.8,0.03692
1687.65,0.03862
1664.51,0.03412
1641.36,0.03065
1618.22,0.03538
1595.07,0.03324
1571.93,0.03223
1548.78,0.03197
1525.64,0.03625
1502.49,0.03842
1479.35,0.03781
1456.2,0.03728
1433.06,0.04505
1409.91,0.04057
1386.77,0.03925
1363.62,0.04393
1340.48,0.04033
1317.33,0.03715
1294.19,0.03482
1271.04,0.03540
1247.9,0.03323
1224.75,0.03306
1201.61,0.03629
1178.46,0.03240
1155.32,0.02924
1132.17,0.02838
1109.03,0.03542
1085.88,0.04240
1062.74,0.04608
1039.59,0.05212
1016.45,0.04993
993.304,0.06141
970.159,0.06867
947.014,0.06766
923.869,0.05341
900.724,0.06477
877.579,0.06067
854.434,0.06348
831.289,0.05717
808.144,0.05388
784.999,0.06388
761.854,0.05366
738.709,0.06846
715.565,0.05616
692.42,0.05200
669.275,0.04974
646.13,0.05455
622.985,0.05851
599.84,0.05912

File: PUF_Mattress_Pad_IS_S_221003_R7.dpt
7497.03,0.67996
7473.89,0.68133
7450.74,0.67293
7427.6,0.66380
7404.45,0.66375
7381.31,0.66560
7358.16,0.65680
7335.02,0.66570
7311.87,0.66338
7288.73,0.65161
7265.58,0.65473
7242.44,0.64905
7219.29,0.65332
7196.15,0.64377
7173,0.64598
7149.86,0.64750
7126.71,0.65926
7103.57,0.65288
7080.42,0.65166
7057.28,0.65389
7034.13,0.65081
7010.99,0.65321
6987.84,0.65098
6964.7,0.65190
6941.55,0.65590
6918.41,0.65862
6895.26,0.65343
6872.12,0.65829
6848.97,0.65697
6825.83,0.65697
6802.68,0.65429
6779.54,0.64938
6756.39,0.65129
6733.25,0.64312
6710.1,0.63938
6686.96,0.62920
6663.82,0.62660
6640.67,0.62445
6617.53,0.62775
6594.38,0.63038
6571.24,0.63151
6548.09,0.63442
6524.95,0.64453
6501.8,0.64701
6478.66,0.64793
6455.51,0.64942
6432.37,0.65254
6409.22,0.65170
6386.08,0.65165
6362.93,0.65555
6339.79,0.65217
6316.64,0.65382
6293.5,0.65479
6270.35,0.65242
6247.21,0.65049
6224.06,0.64972
6200.92,0.65171
6177.77,0.65033
6154.63,0.64622
6131.48,0.64694
6108.34,0.63846
6085.19,0.63325
6062.05,0.63312
6038.9,0.62655
6015.76,0.61398
5992.61,0.60187
5969.47,0.57602
5946.32,0.53562
5923.18,0.53945
5900.03,0.52147
5876.89,0.54488
5853.74,0.54826
5830.6,0.53836
5807.45,0.52438
5784.31,0.51084
5761.16,0.51020
5738.02,0.52834
5714.87,0.54861
5691.73,0.56215
5668.58,0.55995
5645.44,0.56392
5622.29,0.57521
5599.15,0.58066
5576,0.58047
5552.86,0.58148
5529.71,0.58282
5506.57,0.58553
5483.42,0.58937
5460.28,0.58907
5437.13,0.59170
5413.99,0.60251
5390.84,0.61042
5367.7,0.61695
5344.55,0.61640
5321.41,0.61858
5298.26,0.61847
5275.12,0.61399
5251.97,0.61262
5228.83,0.60756
5205.68,0.60588
5182.54,0.60806
5159.39,0.60747
5136.25,0.60657
5113.1,0.60304
5089.96,0.59850
5066.81,0.59080
5043.67,0.58098
5020.52,0.57163
4997.38,0.56030
4974.23,0.54247
4951.09,0.52023
4927.94,0.50087
4904.8,0.48517
4881.65,0.47497
4858.51,0.46246
4835.36,0.45965
4812.22,0.47099
4789.07,0.48675
4765.93,0.50105
4742.78,0.50672
4719.64,0.50422
4696.49,0.49812
4673.35,0.48332
4650.2,0.47193
4627.06,0.46940
4603.92,0.46746
4580.77,0.46894
4557.63,0.46484
4534.48,0.46158
4511.34,0.45926
4488.19,0.45213
4465.05,0.42819
4441.9,0.36802
4418.76,0.29582
4395.61,0.30355
4372.47,0.28377
4349.32,0.24222
4326.18,0.23345
4303.03,0.26623
4279.89,0.28800
4256.74,0.29842
4233.6,0.30844
4210.45,0.32760
4187.31,0.33654
4164.16,0.32504
4141.02,0.31736
4117.87,0.31272
4094.73,0.29734
4071.58,0.27707
4048.44,0.26513
4025.29,0.26193
4002.15,0.26492
3979,0.27749
3955.86,0.29812
3932.71,0.32697
3909.57,0.34766
3886.42,0.35526
3863.28,0.35871
3840.13,0.36473
3816.99,0.37583
3793.84,0.37887
3770.7,0.39311
3747.55,0.41868
3724.41,0.43228
3701.26,0.44143
3678.12,0.43260
3654.97,0.41155
3631.83,0.38553
3608.68,0.36169
3585.54,0.34467
3562.39,0.32587
3539.25,0.30273
3516.1,0.27787
3492.96,0.25258
3469.81,0.20793
3446.67,0.16626
3423.52,0.10932
3400.38,0.08164
3377.23,0.06190
3354.09,0.05241
3330.94,0.04771
3307.8,0.04466
3284.65,0.04451
3261.51,0.04717
3238.36,0.05156
3215.22,0.05768
3192.07,0.06156
3168.93,0.06812
3145.78,0.07337
3122.64,0.07722
3099.49,0.07825
3076.35,0.07483
3053.2,0.07532
3030.06,0.07439
3006.91,0.06649
2983.77,0.04184
2960.62,0.04466
2937.48,0.04124
2914.33,0.04143
2891.19,0.04179
2868.04,0.04252
2844.9,0.05103
2821.75,0.07244
2798.61,0.07950
2775.46,0.08890
2752.32,0.10161
2729.17,0.11455
2706.03,0.13842
2682.88,0.15909
2659.74,0.17182
2636.59,0.18366
2613.45,0.20205
2590.3,0.19968
2567.16,0.23093
2544.02,0.25330
2520.87,0.26473
2497.73,0.26553
2474.58,0.26539
2451.44,0.27258
2428.29,0.28472
2405.15,0.28058
2382,0.27023
2358.86,0.26460
2335.71,0.25279
2312.57,0.21108
2289.42,0.13199
2266.28,0.10947
2243.13,0.18400
2219.99,0.21377
2196.84,0.22826
2173.7,0.23516
2150.55,0.24062
2127.41,0.24729
2104.26,0.25002
2081.12,0.24366
2057.97,0.23673
2034.83,0.22208
2011.68,0.21271
1988.54,0.21617
1965.39,0.21664
1942.25,0.21488
1919.1,0.20922
1895.96,0.21048
1872.81,0.21309
1849.67,0.21018
1826.52,0.19579
1803.38,0.16762
1780.23,0.13295
1757.09,0.08884
1733.94,0.03374
1710.8,0.03688
1687.65,0.03842
1664.51,0.03453
1641.36,0.03068
1618.22,0.03531
1595.07,0.03352
1571.93,0.03196
1548.78,0.03152
1525.64,0.03604
1502.49,0.03854
1479.35,0.03798
1456.2,0.03776
1433.06,0.04453
1409.91,0.03996
1386.77,0.03970
1363.62,0.04429
1340.48,0.04032
1317.33,0.03696
1294.19,0.03525
1271.04,0.03496
1247.9,0.03337
1224.75,0.03289
1201.61,0.03585
1178.46,0.03185
1155.32,0.02921
1132.17,0.02844
1109.03,0.03443
1085.88,0.04172
1062.74,0.04603
1039.59,0.05183
1016.45,0.04998
993.304,0.06150
970.159,0.06833
947.014,0.06746
923.869,0.05311
900.724,0.06453
877.579,0.06103
854.434,0.06332
831.289,0.05725
808.144,0.05381
784.999,0.06228
761.854,0.05392
738.709,0.06848
715.565,0.05619
692.42,0.05145
669.275,0.04751
646.13,0.05567
622.985,0.06060
599.84,0.05825

File: PUF_Mattress_Pad_IS_S_221003_R8.dpt
7497.03,0.67172
7473.89,0.67355
7450.74,0.67270
7427.6,0.66618
7404.45,0.66954
7381.31,0.66125
7358.16,0.66096
7335.02,0.65777
7311.87,0.65920
7288.73,0.65069
7265.58,0.65321
7242.44,0.65095
7219.29,0.64250
7196.15,0.64226
7173,0.64655
7149.86,0.64791
7126.71,0.65153
7103.57,0.65440
7080.42,0.64995
7057.28,0.65025
7034.13,0.65272
7010.99,0.65405
6987.84,0.65370
6964.7,0.64799
6941.55,0.64997
6918.41,0.65316
6895.26,0.65511
6872.12,0.66051
6848.97,0.66043
6825.83,0.65855
6802.68,0.65486
6779.54,0.65108
6756.39,0.64905
6733.25,0.63847
6710.1,0.63658
6686.96,0.62619
6663.82,0.63195
6640.67,0.62674
6617.53,0.62369
6594.38,0.62382
6571.24,0.62868
6548.09,0.63648
6524.95,0.63917
6501.8,0.64379
6478.66,0.64851
6455.51,0.64636
6432.37,0.65181
6409.22,0.65185
6386.08,0.65333
6362.93,0.65159
6339.79,0.64997
6316.64,0.65256
6293.5,0.65315
6270.35,0.65396
6247.21,0.64874
6224.06,0.65382
6200.92,0.64652
6177.77,0.64848
6154.63,0.64635
6131.48,0.64282
6108.34,0.63704
6085.19,0.63219
6062.05,0.63082
6038.9,0.62480
6015.76,0.61860
5992.61,0.60169
5969.47,0.57518
5946.32,0.53210
5923.18,0.54222
5900.03,0.52228
5876.89,0.54198
5853.74,0.54718
5830.6,0.53720
5807.45,0.52361
5784.31,0.50982
5761.16,0.50976
5738.02,0.52636
5714.87,0.54618
5691.73,0.56002
5668.58,0.55856
5645.44,0.56233
5622.29,0.57357
5599.15,0.58131
5576,0.58004
5552.86,0.58054
5529.71,0.58161
5506.57,0.58287
5483.42,0.58674
5460.28,0.58805
5437.13,0.59126
5413.99,0.60098
5390.84,0.61005
5367.7,0.61525
5344.55,0.61468
5321.41,0.61615
5298.26,0.61721
5275.12,0.61506
5251.97,0.61093
5228.83,0.60687
5205.68,0.60484
5182.54,0.60578
5159.39,0.60863
5136.25,0.60515
5113.1,0.60390
5089.96,0.59801
5066.81,0.58822
5043.67,0.57937
5020.52,0.57120
4997.38,0.55990
4974.23,0.54129
4951.09,0.51758
4927.94,0.50105
4904.8,0.48408
4881.65,0.47266
4858.51,0.46171
4835.36,0.46036
4812.22,0.47138
4789.07,0.48720
4765.93,0.49948
4742.78,0.50514
4719.64,0.50375
4696.49,0.49681
4673.35,0.48268
4650.2,0.47132
4627.06,0.46918
4603.92,0.46625
4580.77,0.46790
4557.63,0.46458
4534.48,0.46253
4511.34,0.45897
4488.19,0.45022
4465.05,0.42714
4441.9,0.36754
4418.76,0.29584
4395.61,0.30309
4372.47,0.28227
4349.32,0.24310
4326.18,0.23284
4303.03,0.26652
4279.89,0.28760
4256.74,0.29779
4233.6,0.30829
4210.45,0.32754
4187.31,0.33624
4164.16,0.32483
4141.02,0.31771
4117.87,0.31233
4094.73,0.29789
4071.58,0.27710
4048.44,0.26469
4025.29,0.26142
4002.15,0.26564
3979,0.27728
3955.86,0.29811
3932.71,0.32725
3909.57,0.34708
3886.42,0.35530
3863.28,0.35846
3840.13,0.36447
3816.99,0.37584
3793.84,0.37867
3770.7,0.39276
3747.55,0.41726
3724.41,0.43268
3701.26,0.44032
3678.12,0.43325
3654.97,0.41295
3631.83,0.38719
3608.68,0.36365
3585.54,0.34639
3562.39,0.32696
3539.25,0.30501
3516.1,0.27963
3492.96,0.25360
3469.81,0.20879
3446.67,0.16627
3423.52,0.10944
3400.38,0.08205
3377.23,0.06171
3354.09,0.05323
3330.94,0.04828
3307.8,0.04469
3284.65,0.04558
3261.51,0.04659
3238.36,0.05152
3215.22,0.05836
3192.07,0.06238
3168.93,0.06835
3145.78,0.07444
3122.64,0.07759
3099.49,0.07857
3076.35,0.07455
3053.2,0.07632
3030.06,0.07424
3006.91,0.06670
2983.77,0.04162
2960.62,0.04523
2937.48,0.04149
2914.33,0.04190
2891.19,0.04174
2868.04,0.04220
2844.9,0.05103
2821.75,0.07239
2798.61,0.07992
2775.46,0.08830
2752.32,0.10178
2729.17,0.11409
2706.03,0.13880
2682.88,0.15944
2659.74,0.17160
2636.59,0.18351
2613.45,0.20221
2590.3,0.19911
2567.16,0.23083
2544.02,0.25284
2520.87,0.26446
2497.73,0.26576
2474.58,0.26507
2451.44,0.27283
2428.29,0.28453
2405.15,0.27999
2382,0.27006
2358.86,0.26475
2335.71,0.25222
2312.57,0.21127
2289.42,0.13193
2266.28,0.10935
2243.13,0.18384
2219.99,0.21349
2196.84,0.22816
2173.7,0.23528
2150.55,0.24032
2127.41,0.24675
2104.26,0.24951
2081.12,0.24333
2057.97,0.23640
2034.83,0.22200
2011.68,0.21231
1988.54,0.21592
1965.39,0.21632
1942.25,0.21476
1919.1,0.20923
1895.96,0.21060
1872.81,0.21295
1849.67,0.21013
1826.52,0.19575
1803.38,0.16739
1780.23,0.13313
1757.09,0.08857
1733.94,0.03388
1710.8,0.03679
1687.65,0.03859
1664.51,0.03466
1641.36,0.03069
1618.22,0.03540
1595.07,0.03345
1571.93,0.03232
1548.78,0.03165
1525.64,0.03616
1502.49,0.03854
1479.35,0.03817
1456.2,0.03785
1433.06,0.04486
1409.91,0.04043
1386.77,0.03918
1363.62,0.04413
1340.48,0.04047
1317.33,0.03704
1294.19,0.03493
1271.04,0.03518
1247.9,0.03328
1224.75,0.03286
1201.61,0.03578
1178.46,0.03286
1155.32,0.02908
1132.17,0.02895
1109.03,0.03473
1085.88,0.04176
1062.74,0.04661
1039.59,0.05248
1016.45,0.05034
993.304,0.06129
970.159,0.06897
947.014,0.06775
923.869,0.05352
900.724,0.06465
877.579,0.06090
854.434,0.06330
831.289,0.05752
808.144,0.05469
784.999,0.06396
761.854,0.05499
738.709,0.06936
715.565,0.05655
692.42,0.05195
669.275,0.04992
646.13,0.05587
622.985,0.06072
599.84,0.06017

File: PUF_Mattress_Pad_IS_T_221003_R5.dpt
7497.03,0.03643
7473.89,0.02988
7450.74,0.02386
7427.6,0.02254
7404.45,0.02278
7381.31,0.02090
7358.16,0.02504
7335.02,0.01850
7311.87,0.02333
7288.73,0.02138
7265.58,0.02577
7242.44,0.02475
7219.29,0.03036
7196.15,0.02207
7173,0.03137
7149.86,0.02290
7126.71,0.01957
7103.57,0.02700
7080.42,0.01943
7057.28,0.02436
7034.13,0.02263
7010.99,0.02956
6987.84,0.02656
6964.7,0.02919
6941.55,0.02458
6918.41,0.02364
6895.26,0.02535
6872.12,0.02702
6848.97,0.02301
6825.83,0.02568
6802.68,0.01902
6779.54,0.02834
6756.39,0.01774
6733.25,0.02348
6710.1,0.02300
6686.96,0.02185
6663.82,0.02324
6640.67,0.02444
6617.53,0.02157
6594.38,0.02007
6571.24,0.02180
6548.09,0.02463
6524.95,0.02330
6501.8,0.02331
6478.66,0.02172
6455.51,0.02652
6432.37,0.02258
6409.22,0.01827
6386.08,0.02425
6362.93,0.02202
6339.79,0.02378
6316.64,0.02110
6293.5,0.02436
6270.35,0.02488
6247.21,0.02327
6224.06,0.02176
6200.92,0.02412
6177.77,0.02511
6154.63,0.02126
6131.48,0.02208
6108.34,0.02046
6085.19,0.02245
6062.05,0.02400
6038.9,0.02330
6015.76,0.02207
5992.61,0.02342
5969.47,0.02255
5946.32,0.01960
5923.18,0.02341
5900.03,0.01992
5876.89,0.02303
5853.74,0.02311
5830.6,0.02170
5807.45,0.02040
5784.31,0.02278
5761.16,0.02361
5738.02,0.02330
5714.87,0.01985
5691.73,0.02142
5668.58,0.02340
5645.44,0.02401
5622.29,0.02237
5599.15,0.02191
5576,0.02259
5552.86,0.02175
5529.71,0.02182
5506.57,0.02255
5483.42,0.02183
5460.28,0.02321
5437.13,0.02232
5413.99,0.02293
5390.84,0.02143
5367.7,0.02117
5344.55,0.02161
5321.41,0.02172
5298.26,0.02242
5275.12,0.02359
5251.97,0.02240
5228.83,0.02285
5205.68,0.02165
5182.54,0.02089
5159.39,0.02201
5136.25,0.02129
5113.1,0.02209
5089.96,0.02248
5066.81,0.02014
5043.67,0.02224
5020.52,0.02154
4997.38,0.02305
4974.23,0.02091
4951.09,0.02241
4927.94,0.02258
4904.8,0.02164
4881.65,0.02133
4858.51,0.02309
4835.36,0.02155
4812.22,0.02202
4789.07,0.02253
4765.93,0.02264
4742.78,0.02218
4719.64,0.02213
4696.49,0.02128
4673.35,0.02294
4650.2,0.02233
4627.06,0.02292
4603.92,0.02234
4580.77,0.02226
4557.63,0.02192
4534.48,0.02257
4511.34,0.02227
4488.19,0.02225
4465.05,0.02243
4441.9,0.02173
4418.76,0.02261
4395.61,0.02205
4372.47,0.02175
4349.32,0.02129
4326.18,0.02203
4303.03,0.02186
4279.89,0.02274
4256.74,0.02266
4233.6,0.02251
4210.45,0.02189
4187.31,0.02210
4164.16,0.02231
4141.02,0.02291
4117.87,0.02213
4094.73,0.02231
4071.58,0.02279
4048.44,0.02239
4025.29,0.02308
4002.15,0.02237
3979,0.02255
3955.86,0.02250
3932.71,0.02214
3909.57,0.02245
3886.42,0.02234
3863.28,0.02239
3840.13,0.02288
3816.99,0.02214
3793.84,0.02225
3770.7,0.02296
3747.55,0.02292
3724.41,0.02211
3701.26,0.02165
3678.12,0.02234
3654.97,0.02246
3631.83,0.02147
3608.68,0.02224
3585.54,0.02062
3562.39,0.02064
3539.25,0.02124
3516.1,0.02065
3492.96,0.02029
3469.81,0.02088
3446.67,0.02012
3423.52,0.02005
3400.38,0.02044
3377.23,0.01969
3354.09,0.02031
3330.94,0.01960
3307.8,0.02011
3284.65,0.01940
3261.51,0.02038
3238.36,0.02038
3215.22,0.02020
3192.07,0.02056
3168.93,0.02035
3145.78,0.01996
3122.64,0.02038
3099.49,0.02092
3076.35,0.01999
3053.2,0.01985
3030.06,0.02040
3006.91,0.02053
2983.77,0.02017
2960.62,0.01922
2937.48,0.01921
2914.33,0.02057
2891.19,0.02027
2868.04,0.02021
2844.9,0.02121
2821.75,0.02083
2798.61,0.02058
2775.46,0.02121
2752.32,0.02150
2729.17,0.02091
2706.03,0.02095
2682.88,0.02081
2659.74,0.02084
2636.59,0.02081
2613.45,0.02074
2590.3,0.02113
2567.16,0.02102
2544.02,0.02096
2520.87,0.02100
2497.73,0.02113
2474.58,0.02134
2451.44,0.02119
2428.29,0.02080
2405.15,0.02074
2382,0.02083
2358.86,0.02077
2335.71,0.02115
2312.57,0.02076
2289.42,0.02103
2266.28,0.02088
2243.13,0.02066
2219.99,0.02060
2196.84,0.02081
2173.7,0.02038
2150.55,0.02054
2127.41,0.02033
2104.26,0.02043
2081.12,0.02070
2057.97,0.02064
2034.83,0.02065
2011.68,0.02062
1988.54,0.02022
1965.39,0.02070
1942.25,0.02049
1919.1,0.02045
1895.96,0.02041
1872.81,0.01988
1849.67,0.02002
1826.52,0.01993
1803.38,0.01980
1780.23,0.01904
1757.09,0.01740
1733.94,0.01997
1710.8,0.02043
1687.65,0.01933
1664.51,0.01886
1641.36,0.01833
1618.22,0.01876
1595.07,0.01884
1571.93,0.01845
1548.78,0.01826
1525.64,0.01874
1502.49,0.01812
1479.35,0.01802
1456.2,0.01874
1433.06,0.01867
1409.91,0.01784
1386.77,0.01822
1363.62,0.01802
1340.48,0.01778
1317.33,0.01683
1294.19,0.01761
1271.04,0.01922
1247.9,0.02004
1224.75,0.01963
1201.61,0.01827
1178.46,0.01786
1155.32,0.01717
1132.17,0.01789
1109.03,0.01868
1085.88,0.01783
1062.74,0.01960
1039.59,0.01907
1016.45,0.01950
993.304,0.02061
970.159,0.02017
947.014,0.01941
923.869,0.01930
900.724,0.01913
877.579,0.01912
854.434,0.01937
831.289,0.01865
808.144,0.01919
784.999,0.01855
761.854,0.01837
738.709,0.01797
715.565,0.01809
692.42,0.01713
669.275,0.01672
646.13,0.01648
622.985,0.01603
599.84,0.01695