Folder: fsri_materials_database/01_Data/Pine_Lap_Siding/FTIR/IS (part 3)

File: Pine_Lap_Siding_IS_T_220916_R8.dpt
7497.03,0.02406
7473.89,0.02528
7450.74,0.03002
7427.6,0.01956
7404.45,0.03098
7381.31,0.00920
7358.16,0.02171
7335.02,0.01943
7311.87,0.03275
7288.73,0.02453
7265.58,0.02666
7242.44,0.03037
7219.29,0.01949
7196.15,0.02018
7173,0.01762
7149.86,0.02298
7126.71,0.01978
7103.57,0.01930
7080.42,0.03016
7057.28,0.01473
7034.13,0.02437
7010.99,0.03206
6987.84,0.02371
6964.7,0.01714
6941.55,0.02364
6918.41,0.02352
6895.26,0.01965
6872.12,0.02482
6848.97,0.02274
6825.83,0.02257
6802.68,0.01828
6779.54,0.02352
6756.39,0.02129
6733.25,0.01934
6710.1,0.02605
6686.96,0.02582
6663.82,0.02671
6640.67,0.02192
6617.53,0.02464
6594.38,0.02404
6571.24,0.02479
6548.09,0.02655
6524.95,0.02178
6501.8,0.02347
6478.66,0.02561
6455.51,0.02334
6432.37,0.02390
6409.22,0.02239
6386.08,0.02062
6362.93,0.01935
6339.79,0.02048
6316.64,0.02061
6293.5,0.02091
6270.35,0.02449
6247.21,0.02144
6224.06,0.02008
6200.92,0.02422
6177.77,0.01915
6154.63,0.02418
6131.48,0.02220
6108.34,0.02474
6085.19,0.02148
6062.05,0.02050
6038.9,0.02122
6015.76,0.02190
5992.61,0.02133
5969.47,0.02269
5946.32,0.02227
5923.18,0.01881
5900.03,0.01962
5876.89,0.02174
5853.74,0.01997
5830.6,0.02314
5807.45,0.02020
5784.31,0.02376
5761.16,0.02206
5738.02,0.02303
5714.87,0.02007
5691.73,0.02174
5668.58,0.02309
5645.44,0.02217
5622.29,0.02055
5599.15,0.02322
5576,0.02240
5552.86,0.02081
5529.71,0.02344
5506.57,0.02328
5483.42,0.02170
5460.28,0.02343
5437.13,0.02234
5413.99,0.02188
5390.84,0.02208
5367.7,0.02169
5344.55,0.02237
5321.41,0.02266
5298.26,0.02193
5275.12,0.02107
5251.97,0.02249
5228.83,0.02081
5205.68,0.02207
5182.54,0.02120
5159.39,0.02131
5136.25,0.02164
5113.1,0.02259
5089.96,0.02209
5066.81,0.02349
5043.67,0.02188
5020.52,0.02190
4997.38,0.02225
4974.23,0.02329
4951.09,0.02248
4927.94,0.02178
4904.8,0.02222
4881.65,0.02212
4858.51,0.02341
4835.36,0.02249
4812.22,0.02264
4789.07,0.02368
4765.93,0.02293
4742.78,0.02317
4719.64,0.02233
4696.49,0.02326
4673.35,0.02365
4650.2,0.02215
4627.06,0.02250
4603.92,0.02218
4580.77,0.02187
4557.63,0.02239
4534.48,0.02264
4511.34,0.02306
4488.19,0.02146
4465.05,0.02244
4441.9,0.02247
4418.76,0.02280
4395.61,0.02228
4372.47,0.02287
4349.32,0.02228
4326.18,0.02270
4303.03,0.02237
4279.89,0.02194
4256.74,0.02322
4233.6,0.02290
4210.45,0.02294
4187.31,0.02242
4164.16,0.02235
4141.02,0.02260
4117.87,0.02356
4094.73,0.02343
4071.58,0.02259
4048.44,0.02281
4025.29,0.02275
4002.15,0.02349
3979,0.02314
3955.86,0.02348
3932.71,0.02284
3909.57,0.02272
3886.42,0.02298
3863.28,0.02264
3840.13,0.02300
3816.99,0.02312
3793.84,0.02253
3770.7,0.02299
3747.55,0.02270
3724.41,0.02332
3701.26,0.02213
3678.12,0.02223
3654.97,0.02240
3631.83,0.02244
3608.68,0.02245
3585.54,0.02186
3562.39,0.02188
3539.25,0.02155
3516.1,0.02121
3492.96,0.02136
3469.81,0.02083
3446.67,0.02020
3423.52,0.02081
3400.38,0.02083
3377.23,0.02067
3354.09,0.02037
3330.94,0.02072
3307.8,0.02044
3284.65,0.02028
3261.51,0.02120
3238.36,0.02117
3215.22,0.02088
3192.07,0.02043
3168.93,0.02145
3145.78,0.02105
3122.64,0.02085
3099.49,0.02132
3076.35,0.02075
3053.2,0.02155
3030.06,0.02085
3006.91,0.02095
2983.77,0.02024
2960.62,0.01985
2937.48,0.01994
2914.33,0.02045
2891.19,0.02076
2868.04,0.02070
2844.9,0.02187
2821.75,0.02144
2798.61,0.02168
2775.46,0.02133
2752.32,0.02165
2729.17,0.02159
2706.03,0.02208
2682.88,0.02162
2659.74,0.02121
2636.59,0.02177
2613.45,0.02157
2590.3,0.02155
2567.16,0.02126
2544.02,0.02141
2520.87,0.02130
2497.73,0.02114
2474.58,0.02144
2451.44,0.02165
2428.29,0.02163
2405.15,0.02176
2382,0.02152
2358.86,0.02158
2335.71,0.02172
2312.57,0.02153
2289.42,0.02185
2266.28,0.02147
2243.13,0.02112
2219.99,0.02151
2196.84,0.02137
2173.7,0.02160
2150.55,0.02148
2127.41,0.02134
2104.26,0.02126
2081.12,0.02096
2057.97,0.02124
2034.83,0.02084
2011.68,0.02116
1988.54,0.02113
1965.39,0.02110
1942.25,0.02114
1919.1,0.02073
1895.96,0.02053
1872.81,0.02088
1849.67,0.02064
1826.52,0.02030
1803.38,0.01994
1780.23,0.01907
1757.09,0.01789
1733.94,0.02017
1710.8,0.02093
1687.65,0.01980
1664.51,0.01885
1641.36,0.01861
1618.22,0.01942
1595.07,0.01902
1571.93,0.01858
1548.78,0.01845
1525.64,0.01878
1502.49,0.01929
1479.35,0.01890
1456.2,0.01876
1433.06,0.01898
1409.91,0.01879
1386.77,0.01862
1363.62,0.01829
1340.48,0.01799
1317.33,0.01724
1294.19,0.01800
1271.04,0.01925
1247.9,0.02035
1224.75,0.01984
1201.61,0.01863
1178.46,0.01832
1155.32,0.01765
1132.17,0.01879
1109.03,0.01839
1085.88,0.01828
1062.74,0.01970
1039.59,0.02002
1016.45,0.01961
993.304,0.02100
970.159,0.02000
947.014,0.02018
923.869,0.01973
900.724,0.01912
877.579,0.01945
854.434,0.01940
831.289,0.01893
808.144,0.01979
784.999,0.01885
761.854,0.01818
738.709,0.01910
715.565,0.01728
692.42,0.01718
669.275,0.01768
646.13,0.01630
622.985,0.01767
599.84,0.01460