Folder: fsri_materials_database/01_Data/Pine_Lap_Siding/FTIR/IS (part 2)

File: Pine_Lap_Siding_IS_S_220916_R5.dpt
7497.03,0.83336
7473.89,0.83013
7450.74,0.83008
7427.6,0.80853
7404.45,0.82312
7381.31,0.80815
7358.16,0.81069
7335.02,0.79707
7311.87,0.80972
7288.73,0.78893
7265.58,0.79589
7242.44,0.79266
7219.29,0.78501
7196.15,0.77354
7173,0.76454
7149.86,0.75426
7126.71,0.76065
7103.57,0.75338
7080.42,0.73576
7057.28,0.73392
7034.13,0.73771
7010.99,0.73845
6987.84,0.73401
6964.7,0.73210
6941.55,0.73604
6918.41,0.73176
6895.26,0.73026
6872.12,0.73179
6848.97,0.73133
6825.83,0.72510
6802.68,0.72982
6779.54,0.72474
6756.39,0.72220
6733.25,0.72681
6710.1,0.73158
6686.96,0.72979
6663.82,0.73593
6640.67,0.73100
6617.53,0.73435
6594.38,0.73467
6571.24,0.73508
6548.09,0.73933
6524.95,0.73595
6501.8,0.73983
6478.66,0.73846
6455.51,0.73935
6432.37,0.74402
6409.22,0.74164
6386.08,0.73844
6362.93,0.73852
6339.79,0.74273
6316.64,0.73980
6293.5,0.74187
6270.35,0.74350
6247.21,0.74367
6224.06,0.75071
6200.92,0.75460
6177.77,0.75152
6154.63,0.75510
6131.48,0.75808
6108.34,0.75676
6085.19,0.75863
6062.05,0.76054
6038.9,0.75239
6015.76,0.74694
5992.61,0.74431
5969.47,0.73960
5946.32,0.73479
5923.18,0.73730
5900.03,0.73260
5876.89,0.73217
5853.74,0.73519
5830.6,0.73171
5807.45,0.72981
5784.31,0.73580
5761.16,0.73342
5738.02,0.73199
5714.87,0.73330
5691.73,0.73199
5668.58,0.73184
5645.44,0.73309
5622.29,0.73336
5599.15,0.73287
5576,0.73240
5552.86,0.73376
5529.71,0.73567
5506.57,0.73604
5483.42,0.73523
5460.28,0.73469
5437.13,0.73843
5413.99,0.74009
5390.84,0.74207
5367.7,0.74008
5344.55,0.73911
5321.41,0.73126
5298.26,0.71934
5275.12,0.69910
5251.97,0.67650
5228.83,0.65954
5205.68,0.65132
5182.54,0.65166
5159.39,0.65334
5136.25,0.65877
5113.1,0.66532
5089.96,0.66898
5066.81,0.67461
5043.67,0.67801
5020.52,0.68200
4997.38,0.68310
4974.23,0.68277
4951.09,0.67627
4927.94,0.66635
4904.8,0.65664
4881.65,0.64689
4858.51,0.63686
4835.36,0.62843
4812.22,0.62245
4789.07,0.61752
4765.93,0.61480
4742.78,0.61402
4719.64,0.61259
4696.49,0.61029
4673.35,0.60475
4650.2,0.60546
4627.06,0.59921
4603.92,0.60392
4580.77,0.61046
4557.63,0.61012
4534.48,0.60137
4511.34,0.61719
4488.19,0.61967
4465.05,0.60462
4441.9,0.58237
4418.76,0.56058
4395.61,0.54698
4372.47,0.54120
4349.32,0.53332
4326.18,0.52980
4303.03,0.52510
4279.89,0.51729
4256.74,0.51490
4233.6,0.52232
4210.45,0.52384
4187.31,0.52412
4164.16,0.52938
4141.02,0.52580
4117.87,0.51293
4094.73,0.49493
4071.58,0.47610
4048.44,0.46074
4025.29,0.45366
4002.15,0.45504
3979,0.45605
3955.86,0.45624
3932.71,0.45969
3909.57,0.47212
3886.42,0.47664
3863.28,0.47932
3840.13,0.48104
3816.99,0.47901
3793.84,0.47140
3770.7,0.45504
3747.55,0.42172
3724.41,0.33331
3701.26,0.12886
3678.12,0.11725
3654.97,0.10262
3631.83,0.11316
3608.68,0.12032
3585.54,0.12394
3562.39,0.12103
3539.25,0.11941
3516.1,0.11535
3492.96,0.11195
3469.81,0.10700
3446.67,0.10331
3423.52,0.10152
3400.38,0.10247
3377.23,0.10430
3354.09,0.10730
3330.94,0.11025
3307.8,0.11390
3284.65,0.11819
3261.51,0.12337
3238.36,0.12874
3215.22,0.13450
3192.07,0.14156
3168.93,0.14734
3145.78,0.15541
3122.64,0.16206
3099.49,0.16443
3076.35,0.16381
3053.2,0.16334
3030.06,0.14186
3006.91,0.15784
2983.77,0.11375
2960.62,0.07932
2937.48,0.08120
2914.33,0.08938
2891.19,0.10344
2868.04,0.09258
2844.9,0.12526
2821.75,0.18563
2798.61,0.20935
2775.46,0.22498
2752.32,0.23174
2729.17,0.23425
2706.03,0.24166
2682.88,0.24989
2659.74,0.25244
2636.59,0.24323
2613.45,0.20980
2590.3,0.18611
2567.16,0.17994
2544.02,0.16203
2520.87,0.10100
2497.73,0.13860
2474.58,0.23735
2451.44,0.27720
2428.29,0.29237
2405.15,0.30276
2382,0.30865
2358.86,0.31226
2335.71,0.31118
2312.57,0.31123
2289.42,0.31034
2266.28,0.30529
2243.13,0.29710
2219.99,0.28828
2196.84,0.28500
2173.7,0.27180
2150.55,0.25182
2127.41,0.25005
2104.26,0.26178
2081.12,0.26093
2057.97,0.25300
2034.83,0.24597
2011.68,0.24315
1988.54,0.23757
1965.39,0.23147
1942.25,0.22883
1919.1,0.23459
1895.96,0.21444
1872.81,0.19780
1849.67,0.20320
1826.52,0.17368
1803.38,0.08989
1780.23,0.11847
1757.09,0.08033
1733.94,0.03728
1710.8,0.07026
1687.65,0.07374
1664.51,0.06465
1641.36,0.06237
1618.22,0.05789
1595.07,0.05820
1571.93,0.08017
1548.78,0.10396
1525.64,0.09881
1502.49,0.09361
1479.35,0.09344
1456.2,0.09556
1433.06,0.09974
1409.91,0.10627
1386.77,0.09208
1363.62,0.10036
1340.48,0.11615
1317.33,0.11991
1294.19,0.12710
1271.04,0.11097
1247.9,0.09897
1224.75,0.10239
1201.61,0.09590
1178.46,0.07985
1155.32,0.07473
1132.17,0.08482
1109.03,0.07378
1085.88,0.08237
1062.74,0.07990
1039.59,0.07830
1016.45,0.07448
993.304,0.07199
970.159,0.06631
947.014,0.06154
923.869,0.05799
900.724,0.06242
877.579,0.06714
854.434,0.06072
831.289,0.05086
808.144,0.04418
784.999,0.04306
761.854,0.04075
738.709,0.03854
715.565,0.03817
692.42,0.04414
669.275,0.04533
646.13,0.04547
622.985,0.04468
599.84,0.04707

File: Pine_Lap_Siding_IS_S_220916_R6.dpt
7497.03,0.82413
7473.89,0.82649
7450.74,0.82395
7427.6,0.81238
7404.45,0.81956
7381.31,0.81329
7358.16,0.79988
7335.02,0.80470
7311.87,0.79413
7288.73,0.79115
7265.58,0.78657
7242.44,0.79111
7219.29,0.79924
7196.15,0.76869
7173,0.76558
7149.86,0.76386
7126.71,0.76071
7103.57,0.75557
7080.42,0.74009
7057.28,0.73245
7034.13,0.74444
7010.99,0.73435
6987.84,0.73609
6964.7,0.73118
6941.55,0.72803
6918.41,0.72960
6895.26,0.72491
6872.12,0.73251
6848.97,0.72898
6825.83,0.73052
6802.68,0.73224
6779.54,0.73069
6756.39,0.72751
6733.25,0.73295
6710.1,0.73560
6686.96,0.73136
6663.82,0.73390
6640.67,0.73143
6617.53,0.73864
6594.38,0.73489
6571.24,0.73957
6548.09,0.73770
6524.95,0.73718
6501.8,0.73951
6478.66,0.74311
6455.51,0.73957
6432.37,0.74179
6409.22,0.73954
6386.08,0.74186
6362.93,0.73646
6339.79,0.74287
6316.64,0.74237
6293.5,0.73939
6270.35,0.74458
6247.21,0.74800
6224.06,0.74653
6200.92,0.75479
6177.77,0.75277
6154.63,0.75532
6131.48,0.75244
6108.34,0.75679
6085.19,0.75899
6062.05,0.76036
6038.9,0.75283
6015.76,0.74922
5992.61,0.74070
5969.47,0.73646
5946.32,0.73533
5923.18,0.73748
5900.03,0.73241
5876.89,0.73256
5853.74,0.73314
5830.6,0.73312
5807.45,0.73018
5784.31,0.73299
5761.16,0.73299
5738.02,0.73393
5714.87,0.73427
5691.73,0.73078
5668.58,0.73355
5645.44,0.73317
5622.29,0.73235
5599.15,0.73296
5576,0.73412
5552.86,0.73478
5529.71,0.73567
5506.57,0.73416
5483.42,0.73536
5460.28,0.73684
5437.13,0.73803
5413.99,0.73952
5390.84,0.74316
5367.7,0.74146
5344.55,0.73976
5321.41,0.73262
5298.26,0.71967
5275.12,0.69935
5251.97,0.67629
5228.83,0.66106
5205.68,0.65457
5182.54,0.65270
5159.39,0.65662
5136.25,0.65895
5113.1,0.66542
5089.96,0.67078
5066.81,0.67609
5043.67,0.67916
5020.52,0.68267
4997.38,0.68395
4974.23,0.68041
4951.09,0.67556
4927.94,0.66643
4904.8,0.65592
4881.65,0.64628
4858.51,0.63648
4835.36,0.62883
4812.22,0.62240
4789.07,0.61709
4765.93,0.61536
4742.78,0.61468
4719.64,0.61152
4696.49,0.61171
4673.35,0.60487
4650.2,0.60397
4627.06,0.59895
4603.92,0.60335
4580.77,0.61057
4557.63,0.60968
4534.48,0.59987
4511.34,0.61751
4488.19,0.62063
4465.05,0.60493
4441.9,0.58214
4418.76,0.56148
4395.61,0.54702
4372.47,0.54161
4349.32,0.53328
4326.18,0.53003
4303.03,0.52532
4279.89,0.51782
4256.74,0.51434
4233.6,0.52244
4210.45,0.52365
4187.31,0.52385
4164.16,0.52873
4141.02,0.52613
4117.87,0.51356
4094.73,0.49590
4071.58,0.47683
4048.44,0.46032
4025.29,0.45369
4002.15,0.45406
3979,0.45532
3955.86,0.45639
3932.71,0.46014
3909.57,0.47262
3886.42,0.47730
3863.28,0.47944
3840.13,0.48085
3816.99,0.47940
3793.84,0.47061
3770.7,0.45596
3747.55,0.42286
3724.41,0.33411
3701.26,0.12870
3678.12,0.11720
3654.97,0.10253
3631.83,0.11278
3608.68,0.12037
3585.54,0.12448
3562.39,0.12046
3539.25,0.11907
3516.1,0.11519
3492.96,0.11123
3469.81,0.10694
3446.67,0.10288
3423.52,0.10109
3400.38,0.10285
3377.23,0.10511
3354.09,0.10746
3330.94,0.11035
3307.8,0.11462
3284.65,0.11829
3261.51,0.12428
3238.36,0.12883
3215.22,0.13469
3192.07,0.14149
3168.93,0.14844
3145.78,0.15569
3122.64,0.16230
3099.49,0.16491
3076.35,0.16381
3053.2,0.16338
3030.06,0.14225
3006.91,0.15764
2983.77,0.11353
2960.62,0.07944
2937.48,0.08137
2914.33,0.08929
2891.19,0.10366
2868.04,0.09257
2844.9,0.12478
2821.75,0.18595
2798.61,0.20992
2775.46,0.22483
2752.32,0.23163
2729.17,0.23450
2706.03,0.24219
2682.88,0.25018
2659.74,0.25215
2636.59,0.24350
2613.45,0.21001
2590.3,0.18640
2567.16,0.18047
2544.02,0.16177
2520.87,0.10067
2497.73,0.13913
2474.58,0.23776
2451.44,0.27753
2428.29,0.29254
2405.15,0.30253
2382,0.30910
2358.86,0.31201
2335.71,0.31181
2312.57,0.31164
2289.42,0.31104
2266.28,0.30595
2243.13,0.29761
2219.99,0.28863
2196.84,0.28575
2173.7,0.27240
2150.55,0.25300
2127.41,0.25065
2104.26,0.26208
2081.12,0.26154
2057.97,0.25344
2034.83,0.24623
2011.68,0.24324
1988.54,0.23832
1965.39,0.23193
1942.25,0.22938
1919.1,0.23499
1895.96,0.21513
1872.81,0.19814
1849.67,0.20360
1826.52,0.17429
1803.38,0.09028
1780.23,0.11845
1757.09,0.08050
1733.94,0.03693
1710.8,0.07015
1687.65,0.07439
1664.51,0.06525
1641.36,0.06262
1618.22,0.05790
1595.07,0.05843
1571.93,0.08055
1548.78,0.10449
1525.64,0.09895
1502.49,0.09354
1479.35,0.09352
1456.2,0.09554
1433.06,0.09980
1409.91,0.10634
1386.77,0.09141
1363.62,0.10022
1340.48,0.11603
1317.33,0.11967
1294.19,0.12776
1271.04,0.11122
1247.9,0.09916
1224.75,0.10208
1201.61,0.09505
1178.46,0.07982
1155.32,0.07504
1132.17,0.08510
1109.03,0.07424
1085.88,0.08229
1062.74,0.08017
1039.59,0.07826
1016.45,0.07471
993.304,0.07200
970.159,0.06612
947.014,0.06081
923.869,0.05839
900.724,0.06176
877.579,0.06665
854.434,0.06058
831.289,0.05153
808.144,0.04319
784.999,0.04249
761.854,0.04133
738.709,0.03913
715.565,0.03858
692.42,0.04545
669.275,0.04505
646.13,0.04656
622.985,0.04410
599.84,0.04863

File: Pine_Lap_Siding_IS_S_220916_R7.dpt
7497.03,0.82482
7473.89,0.83093
7450.74,0.82178
7427.6,0.81557
7404.45,0.80959
7381.31,0.80069
7358.16,0.80707
7335.02,0.80150
7311.87,0.80181
7288.73,0.79001
7265.58,0.79191
7242.44,0.78695
7219.29,0.78975
7196.15,0.77714
7173,0.76527
7149.86,0.76927
7126.71,0.75802
7103.57,0.75759
7080.42,0.74410
7057.28,0.73391
7034.13,0.74378
7010.99,0.73491
6987.84,0.73339
6964.7,0.73403
6941.55,0.72586
6918.41,0.73279
6895.26,0.73385
6872.12,0.73202
6848.97,0.73019
6825.83,0.73168
6802.68,0.73444
6779.54,0.73268
6756.39,0.72704
6733.25,0.73038
6710.1,0.73004
6686.96,0.73244
6663.82,0.72812
6640.67,0.73639
6617.53,0.73768
6594.38,0.74126
6571.24,0.73522
6548.09,0.73893
6524.95,0.73748
6501.8,0.73827
6478.66,0.74166
6455.51,0.73648
6432.37,0.73851
6409.22,0.73880
6386.08,0.74050
6362.93,0.74009
6339.79,0.74295
6316.64,0.74402
6293.5,0.74272
6270.35,0.74183
6247.21,0.74966
6224.06,0.74882
6200.92,0.75188
6177.77,0.75423
6154.63,0.75679
6131.48,0.75833
6108.34,0.75903
6085.19,0.75842
6062.05,0.75743
6038.9,0.75547
6015.76,0.75137
5992.61,0.74299
5969.47,0.73582
5946.32,0.73658
5923.18,0.73542
5900.03,0.73548
5876.89,0.73105
5853.74,0.73349
5830.6,0.73346
5807.45,0.73045
5784.31,0.73040
5761.16,0.73208
5738.02,0.73416
5714.87,0.73293
5691.73,0.73097
5668.58,0.73196
5645.44,0.73187
5622.29,0.73165
5599.15,0.73239
5576,0.73095
5552.86,0.73378
5529.71,0.73340
5506.57,0.73647
5483.42,0.73419
5460.28,0.73678
5437.13,0.73833
5413.99,0.73984
5390.84,0.74240
5367.7,0.74206
5344.55,0.73869
5321.41,0.73328
5298.26,0.71957
5275.12,0.70004
5251.97,0.67735
5228.83,0.66137
5205.68,0.65547
5182.54,0.65341
5159.39,0.65595
5136.25,0.65844
5113.1,0.66792
5089.96,0.67021
5066.81,0.67566
5043.67,0.68021
5020.52,0.68188
4997.38,0.68416
4974.23,0.68142
4951.09,0.67594
4927.94,0.66540
4904.8,0.65646
4881.65,0.64564
4858.51,0.63558
4835.36,0.62850
4812.22,0.62082
4789.07,0.61651
4765.93,0.61401
4742.78,0.61205
4719.64,0.61182
4696.49,0.61024
4673.35,0.60278
4650.2,0.60400
4627.06,0.59916
4603.92,0.60258
4580.77,0.60938
4557.63,0.60946
4534.48,0.60051
4511.34,0.61744
4488.19,0.61831
4465.05,0.60344
4441.9,0.58160
4418.76,0.55979
4395.61,0.54572
4372.47,0.54043
4349.32,0.53257
4326.18,0.52854
4303.03,0.52405
4279.89,0.51643
4256.74,0.51461
4233.6,0.52178
4210.45,0.52217
4187.31,0.52289
4164.16,0.52901
4141.02,0.52493
4117.87,0.51258
4094.73,0.49522
4071.58,0.47506
4048.44,0.45981
4025.29,0.45334
4002.15,0.45366
3979,0.45527
3955.86,0.45586
3932.71,0.45952
3909.57,0.47224
3886.42,0.47630
3863.28,0.47870
3840.13,0.48068
3816.99,0.47921
3793.84,0.47089
3770.7,0.45563
3747.55,0.42179
3724.41,0.33298
3701.26,0.12883
3678.12,0.11772
3654.97,0.10216
3631.83,0.11244
3608.68,0.12086
3585.54,0.12397
3562.39,0.12072
3539.25,0.11934
3516.1,0.11525
3492.96,0.11163
3469.81,0.10689
3446.67,0.10237
3423.52,0.10137
3400.38,0.10238
3377.23,0.10423
3354.09,0.10808
3330.94,0.11083
3307.8,0.11397
3284.65,0.11827
3261.51,0.12405
3238.36,0.12995
3215.22,0.13479
3192.07,0.14114
3168.93,0.14834
3145.78,0.15547
3122.64,0.16253
3099.49,0.16469
3076.35,0.16354
3053.2,0.16413
3030.06,0.14184
3006.91,0.15776
2983.77,0.11322
2960.62,0.07974
2937.48,0.08094
2914.33,0.08950
2891.19,0.10398
2868.04,0.09254
2844.9,0.12494
2821.75,0.18562
2798.61,0.20928
2775.46,0.22494
2752.32,0.23168
2729.17,0.23389
2706.03,0.24196
2682.88,0.24898
2659.74,0.25207
2636.59,0.24346
2613.45,0.20963
2590.3,0.18594
2567.16,0.17962
2544.02,0.16199
2520.87,0.10053
2497.73,0.13818
2474.58,0.23749
2451.44,0.27711
2428.29,0.29190
2405.15,0.30194
2382,0.30875
2358.86,0.31230
2335.71,0.31124
2312.57,0.31174
2289.42,0.31129
2266.28,0.30612
2243.13,0.29760
2219.99,0.28865
2196.84,0.28572
2173.7,0.27194
2150.55,0.25273
2127.41,0.25057
2104.26,0.26236
2081.12,0.26174
2057.97,0.25358
2034.83,0.24649
2011.68,0.24329
1988.54,0.23796
1965.39,0.23193
1942.25,0.22952
1919.1,0.23508
1895.96,0.21462
1872.81,0.19791
1849.67,0.20336
1826.52,0.17425
1803.38,0.08979
1780.23,0.11850
1757.09,0.08055
1733.94,0.03677
1710.8,0.07061
1687.65,0.07434
1664.51,0.06530
1641.36,0.06290
1618.22,0.05769
1595.07,0.05841
1571.93,0.08020
1548.78,0.10369
1525.64,0.09857
1502.49,0.09280
1479.35,0.09351
1456.2,0.09537
1433.06,0.10003
1409.91,0.10616
1386.77,0.09194
1363.62,0.10041
1340.48,0.11571
1317.33,0.11988
1294.19,0.12733
1271.04,0.11078
1247.9,0.09885
1224.75,0.10217
1201.61,0.09517
1178.46,0.08021
1155.32,0.07518
1132.17,0.08498
1109.03,0.07388
1085.88,0.08273
1062.74,0.08008
1039.59,0.07804
1016.45,0.07502
993.304,0.07160
970.159,0.06624
947.014,0.06158
923.869,0.05803
900.724,0.06206
877.579,0.06686
854.434,0.06052
831.289,0.05235
808.144,0.04456
784.999,0.04355
761.854,0.04130
738.709,0.03839
715.565,0.03866
692.42,0.04480
669.275,0.04509
646.13,0.04660
622.985,0.04495
599.84,0.04305

File: Pine_Lap_Siding_IS_S_220916_R8.dpt
7497.03,0.82817
7473.89,0.81916
7450.74,0.82877
7427.6,0.80723
7404.45,0.80717
7381.31,0.80202
7358.16,0.80259
7335.02,0.80207
7311.87,0.80706
7288.73,0.79059
7265.58,0.79759
7242.44,0.78994
7219.29,0.78375
7196.15,0.77503
7173,0.76341
7149.86,0.76424
7126.71,0.75433
7103.57,0.75047
7080.42,0.73923
7057.28,0.73198
7034.13,0.74899
7010.99,0.74073
6987.84,0.73269
6964.7,0.72854
6941.55,0.73170
6918.41,0.72573
6895.26,0.72820
6872.12,0.73499
6848.97,0.73220
6825.83,0.72894
6802.68,0.72833
6779.54,0.72891
6756.39,0.73044
6733.25,0.72718
6710.1,0.73202
6686.96,0.73337
6663.82,0.73064
6640.67,0.73125
6617.53,0.73882
6594.38,0.73878
6571.24,0.73792
6548.09,0.73916
6524.95,0.73719
6501.8,0.73872
6478.66,0.73860
6455.51,0.74473
6432.37,0.74073
6409.22,0.74176
6386.08,0.74290
6362.93,0.74085
6339.79,0.74248
6316.64,0.74096
6293.5,0.74527
6270.35,0.74435
6247.21,0.74619
6224.06,0.74848
6200.92,0.75375
6177.77,0.75911
6154.63,0.75935
6131.48,0.75547
6108.34,0.75674
6085.19,0.75836
6062.05,0.76070
6038.9,0.75566
6015.76,0.75113
5992.61,0.74409
5969.47,0.73852
5946.32,0.73519
5923.18,0.73755
5900.03,0.73387
5876.89,0.73524
5853.74,0.73290
5830.6,0.73229
5807.45,0.73066
5784.31,0.73460
5761.16,0.73468
5738.02,0.73386
5714.87,0.73249
5691.73,0.73296
5668.58,0.73381
5645.44,0.73089
5622.29,0.73393
5599.15,0.73430
5576,0.73258
5552.86,0.73493
5529.71,0.73482
5506.57,0.73669
5483.42,0.73692
5460.28,0.73702
5437.13,0.73829
5413.99,0.74109
5390.84,0.74229
5367.7,0.74226
5344.55,0.74121
5321.41,0.73617
5298.26,0.72209
5275.12,0.70286
5251.97,0.67922
5228.83,0.66422
5205.68,0.65674
5182.54,0.65475
5159.39,0.65797
5136.25,0.66283
5113.1,0.66805
5089.96,0.67318
5066.81,0.67786
5043.67,0.68222
5020.52,0.68594
4997.38,0.68595
4974.23,0.68311
4951.09,0.67668
4927.94,0.66848
4904.8,0.65679
4881.65,0.64593
4858.51,0.63720
4835.36,0.62953
4812.22,0.62224
4789.07,0.61731
4765.93,0.61459
4742.78,0.61327
4719.64,0.61296
4696.49,0.61145
4673.35,0.60550
4650.2,0.60497
4627.06,0.59953
4603.92,0.60404
4580.77,0.61146
4557.63,0.61050
4534.48,0.60047
4511.34,0.61787
4488.19,0.61989
4465.05,0.60514
4441.9,0.58295
4418.76,0.56123
4395.61,0.54642
4372.47,0.54284
4349.32,0.53347
4326.18,0.53042
4303.03,0.52613
4279.89,0.51732
4256.74,0.51525
4233.6,0.52241
4210.45,0.52293
4187.31,0.52467
4164.16,0.52925
4141.02,0.52619
4117.87,0.51344
4094.73,0.49639
4071.58,0.47699
4048.44,0.46083
4025.29,0.45448
4002.15,0.45531
3979,0.45677
3955.86,0.45778
3932.71,0.46081
3909.57,0.47281
3886.42,0.47795
3863.28,0.48063
3840.13,0.48186
3816.99,0.48024
3793.84,0.47187
3770.7,0.45641
3747.55,0.42329
3724.41,0.33462
3701.26,0.12869
3678.12,0.11818
3654.97,0.10234
3631.83,0.11317
3608.68,0.12011
3585.54,0.12426
3562.39,0.12102
3539.25,0.11903
3516.1,0.11529
3492.96,0.11219
3469.81,0.10752
3446.67,0.10292
3423.52,0.10180
3400.38,0.10281
3377.23,0.10494
3354.09,0.10721
3330.94,0.11075
3307.8,0.11404
3284.65,0.11815
3261.51,0.12403
3238.36,0.13040
3215.22,0.13609
3192.07,0.14201
3168.93,0.14868
3145.78,0.15663
3122.64,0.16310
3099.49,0.16582
3076.35,0.16393
3053.2,0.16468
3030.06,0.14189
3006.91,0.15835
2983.77,0.11344
2960.62,0.07939
2937.48,0.08136
2914.33,0.08933
2891.19,0.10307
2868.04,0.09295
2844.9,0.12472
2821.75,0.18592
2798.61,0.20975
2775.46,0.22510
2752.32,0.23193
2729.17,0.23453
2706.03,0.24246
2682.88,0.25017
2659.74,0.25248
2636.59,0.24364
2613.45,0.21028
2590.3,0.18640
2567.16,0.18008
2544.02,0.16219
2520.87,0.10069
2497.73,0.13820
2474.58,0.23752
2451.44,0.27798
2428.29,0.29313
2405.15,0.30327
2382,0.30947
2358.86,0.31311
2335.71,0.31253
2312.57,0.31254
2289.42,0.31249
2266.28,0.30692
2243.13,0.29886
2219.99,0.29007
2196.84,0.28649
2173.7,0.27318
2150.55,0.25385
2127.41,0.25138
2104.26,0.26363
2081.12,0.26241
2057.97,0.25457
2034.83,0.24688
2011.68,0.24434
1988.54,0.23907
1965.39,0.23285
1942.25,0.23000
1919.1,0.23552
1895.96,0.21552
1872.81,0.19862
1849.67,0.20424
1826.52,0.17455
1803.38,0.08992
1780.23,0.11849
1757.09,0.08061
1733.94,0.03709
1710.8,0.07042
1687.65,0.07448
1664.51,0.06526
1641.36,0.06310
1618.22,0.05786
1595.07,0.05835
1571.93,0.08058
1548.78,0.10452
1525.64,0.09865
1502.49,0.09320
1479.35,0.09332
1456.2,0.09544
1433.06,0.10004
1409.91,0.10629
1386.77,0.09167
1363.62,0.10049
1340.48,0.11651
1317.33,0.11974
1294.19,0.12768
1271.04,0.11078
1247.9,0.09922
1224.75,0.10240
1201.61,0.09507
1178.46,0.08006
1155.32,0.07553
1132.17,0.08488
1109.03,0.07355
1085.88,0.08300
1062.74,0.08002
1039.59,0.07820
1016.45,0.07468
993.304,0.07201
970.159,0.06669
947.014,0.06110
923.869,0.05826
900.724,0.06191
877.579,0.06653
854.434,0.06123
831.289,0.05160
808.144,0.04291
784.999,0.04297
761.854,0.04098
738.709,0.03870
715.565,0.03811
692.42,0.04502
669.275,0.04616
646.13,0.04588
622.985,0.04623
599.84,0.04491

File: Pine_Lap_Siding_IS_T_220916_R3.dpt
7497.03,0.01752
7473.89,0.02947
7450.74,0.02609
7427.6,0.03618
7404.45,0.02120
7381.31,0.02375
7358.16,0.02339
7335.02,0.02382
7311.87,0.02638
7288.73,0.01815
7265.58,0.02427
7242.44,0.02537
7219.29,0.03663
7196.15,0.01803
7173,0.02322
7149.86,0.02255
7126.71,0.02728
7103.57,0.02566
7080.42,0.02048
7057.28,0.02848
7034.13,0.02381
7010.99,0.02845
6987.84,0.03156
6964.7,0.02258
6941.55,0.02104
6918.41,0.02117
6895.26,0.02513
6872.12,0.02329
6848.97,0.02120
6825.83,0.02321
6802.68,0.02276
6779.54,0.02311
6756.39,0.02483
6733.25,0.02039
6710.1,0.02489
6686.96,0.02370
6663.82,0.02161
6640.67,0.01983
6617.53,0.02227
6594.38,0.02331
6571.24,0.01830
6548.09,0.01926
6524.95,0.02360
6501.8,0.02439
6478.66,0.02415
6455.51,0.02142
6432.37,0.02440
6409.22,0.02196
6386.08,0.02152
6362.93,0.02258
6339.79,0.02041
6316.64,0.02325
6293.5,0.02206
6270.35,0.02226
6247.21,0.02056
6224.06,0.02218
6200.92,0.02321
6177.77,0.02042
6154.63,0.02497
6131.48,0.02182
6108.34,0.01917
6085.19,0.01908
6062.05,0.02134
6038.9,0.02126
6015.76,0.02229
5992.61,0.02212
5969.47,0.01993
5946.32,0.02121
5923.18,0.02158
5900.03,0.02155
5876.89,0.01991
5853.74,0.02112
5830.6,0.02103
5807.45,0.02374
5784.31,0.02235
5761.16,0.02152
5738.02,0.02066
5714.87,0.02028
5691.73,0.02065
5668.58,0.02206
5645.44,0.02193
5622.29,0.02290
5599.15,0.02176
5576,0.02356
5552.86,0.02104
5529.71,0.02161
5506.57,0.02256
5483.42,0.02214
5460.28,0.02163
5437.13,0.02085
5413.99,0.02224
5390.84,0.02212
5367.7,0.02230
5344.55,0.02026
5321.41,0.02201
5298.26,0.02141
5275.12,0.02125
5251.97,0.02182
5228.83,0.02181
5205.68,0.02268
5182.54,0.02289
5159.39,0.02147
5136.25,0.02285
5113.1,0.02234
5089.96,0.02132
5066.81,0.02050
5043.67,0.02323
5020.52,0.02052
4997.38,0.02237
4974.23,0.02213
4951.09,0.02182
4927.94,0.02067
4904.8,0.02285
4881.65,0.02193
4858.51,0.02248
4835.36,0.02157
4812.22,0.02200
4789.07,0.02167
4765.93,0.02201
4742.78,0.02220
4719.64,0.02301
4696.49,0.02165
4673.35,0.02231
4650.2,0.02225
4627.06,0.02192
4603.92,0.02267
4580.77,0.02219
4557.63,0.02204
4534.48,0.02321
4511.34,0.02228
4488.19,0.02210
4465.05,0.02168
4441.9,0.02190
4418.76,0.02199
4395.61,0.02291
4372.47,0.02120
4349.32,0.02183
4326.18,0.02191
4303.03,0.02195
4279.89,0.02244
4256.74,0.02342
4233.6,0.02199
4210.45,0.02224
4187.31,0.02244
4164.16,0.02225
4141.02,0.02285
4117.87,0.02277
4094.73,0.02240
4071.58,0.02199
4048.44,0.02272
4025.29,0.02241
4002.15,0.02234
3979,0.02183
3955.86,0.02284
3932.71,0.02209
3909.57,0.02214
3886.42,0.02310
3863.28,0.02175
3840.13,0.02226
3816.99,0.02227
3793.84,0.02253
3770.7,0.02253
3747.55,0.02223
3724.41,0.02176
3701.26,0.02189
3678.12,0.02208
3654.97,0.02220
3631.83,0.02197
3608.68,0.02221
3585.54,0.02161
3562.39,0.02096
3539.25,0.02060
3516.1,0.02129
3492.96,0.02064
3469.81,0.01997
3446.67,0.02059
3423.52,0.02047
3400.38,0.01997
3377.23,0.01976
3354.09,0.02037
3330.94,0.01965
3307.8,0.02013
3284.65,0.02039
3261.51,0.02064
3238.36,0.02031
3215.22,0.02013
3192.07,0.02095
3168.93,0.02036
3145.78,0.02000
3122.64,0.01991
3099.49,0.02022
3076.35,0.02092
3053.2,0.02033
3030.06,0.02046
3006.91,0.02026
2983.77,0.02008
2960.62,0.01897
2937.48,0.01965
2914.33,0.01990
2891.19,0.01980
2868.04,0.02041
2844.9,0.02084
2821.75,0.02104
2798.61,0.02115
2775.46,0.02112
2752.32,0.02077
2729.17,0.02079
2706.03,0.02095
2682.88,0.02146
2659.74,0.02109
2636.59,0.02078
2613.45,0.02102
2590.3,0.02109
2567.16,0.02091
2544.02,0.02111
2520.87,0.02108
2497.73,0.02096
2474.58,0.02096
2451.44,0.02089
2428.29,0.02081
2405.15,0.02092
2382,0.02096
2358.86,0.02088
2335.71,0.02085
2312.57,0.02081
2289.42,0.02060
2266.28,0.02110
2243.13,0.02066
2219.99,0.02064
2196.84,0.02090
2173.7,0.02044
2150.55,0.02084
2127.41,0.02047
2104.26,0.02044
2081.12,0.02095
2057.97,0.02075
2034.83,0.02033
2011.68,0.02072
1988.54,0.02069
1965.39,0.02044
1942.25,0.02034
1919.1,0.02043
1895.96,0.02012
1872.81,0.02006
1849.67,0.02001
1826.52,0.01938
1803.38,0.01905
1780.23,0.01886
1757.09,0.01757
1733.94,0.01893
1710.8,0.02011
1687.65,0.01906
1664.51,0.01814
1641.36,0.01832
1618.22,0.01851
1595.07,0.01829
1571.93,0.01790
1548.78,0.01791
1525.64,0.01820
1502.49,0.01839
1479.35,0.01847
1456.2,0.01855
1433.06,0.01832
1409.91,0.01803
1386.77,0.01735
1363.62,0.01790
1340.48,0.01770
1317.33,0.01710
1294.19,0.01748
1271.04,0.01924
1247.9,0.01982
1224.75,0.01954
1201.61,0.01861
1178.46,0.01772
1155.32,0.01721
1132.17,0.01718
1109.03,0.01834
1085.88,0.01748
1062.74,0.01991
1039.59,0.01952
1016.45,0.01898
993.304,0.02081
970.159,0.02049
947.014,0.01998
923.869,0.01923
900.724,0.01815
877.579,0.01876
854.434,0.01895
831.289,0.01910
808.144,0.01904
784.999,0.01768
761.854,0.01840
738.709,0.01833
715.565,0.01764
692.42,0.01712
669.275,0.01745
646.13,0.01862
622.985,0.01754
599.84,0.01821