Folder: fsri_materials_database/01_Data/Pine_Lap_Siding/FTIR/IS

Note: README.md
# Materials and Products Database
### Repository of materials and products properties and fire test data to improve fire modeling and fire investigation.

This project was supported in part by Award No. 2019-DU-BX-0018, awarded by the National Institute of Justice, Office of Justice Programs, U.S. Department of Justice. The opinions, findings, and conclusions or recommendations expressed in this publication / program / exhibition are those of the author(s) and do not necessarily reflect those of the Department of Justice.

***
***

__Cite this database:__ "McKinnon, M., Weinschenk, C., Dow, N., DiDomizio, M., and Madrzykowski, D. Materials and Products Database (Version 1.0.0), Fire Safety Research Institute, UL Research Institutes. Columbia, MD 21045, 2023."

__Cite the Technical Reference Guide:__ "McKinnon, M., Weinschenk, C., and Madrzykowski, D. Materials and Products Database - Technical Reference Guide, Fire Safety Research Institute, UL Research Institutes. Columbia, MD 21045, 2023."

__Cite the User Guide:__ "McKinnon, M., and Weinschenk, C. Materials and Products Database - User Guide, Fire Safety Research Institute, UL Research Institutes. Columbia, MD 21045, 2023."

***
***

## Database Structure

## 01_Data/
Raw data generated from each apparatus are included here in plain-text format. The data is organized first by material, next by the short name of test apparatus used, and where applicable additional filtering by test settings.

### Test Apparatus and Data File Structure
- __Cone Calorimeter__ (Cone)
    + Data file structure includes the material, the short name for the apparatus, heat flux setting and scan/scalar, date of test, and replicate number. Scan is for the raw output data and scalar is for the initial conditions and high-level test parameters. 
        * Example: __MDF_Cone_HF25scalar_210323_R1__ stands for the first replicate of scalar data generated from a medium density fiber board test in cone calorimeter exposed to 25 kW/m<sup>2</sup> on March 23, 2021.
    + A _Cone_Notes.csv_ is generated for each material from the __plot_Cone_data.py__ script. For materials whose experiments deviated from typical behavior relevant pictures are included in the respective material directory.
- __Fourier Transform Infrared Spectrometer__ (FTIR)
    + The FTIR directory contains subdirectories for the Attenuated Total Reflectance method (ATR) and the Integrating Sphere (IS)
    + Data file structure for the ATR experiment files includes the material, the abbreviated name for the apparatus, date of test, and replicate number. 
        * Example: __MDF_ATR_210323_R5__ stands for the fifth replicate of data collected with the ATR accessory conducted on June 8, 2021.
    + Data file structure for the IS experiment files includes the material, the abbreviated name for the apparatus, the measurand, whether the test is a sample measurement or standard reference, date of test, and replicate number.
        * Example: __OSB_IS_REFLECT_MEAS_2

File: Pine_Lap_Siding_IS_S_220916_R1.dpt
7497.03,0.83156
7473.89,0.82219
7450.74,0.82761
7427.6,0.81433
7404.45,0.80620
7381.31,0.80346
7358.16,0.79044
7335.02,0.79682
7311.87,0.78950
7288.73,0.79307
7265.58,0.78569
7242.44,0.78659
7219.29,0.78740
7196.15,0.77703
7173,0.76041
7149.86,0.75902
7126.71,0.75710
7103.57,0.74670
7080.42,0.74073
7057.28,0.73243
7034.13,0.73576
7010.99,0.73205
6987.84,0.73212
6964.7,0.73267
6941.55,0.72406
6918.41,0.72219
6895.26,0.72306
6872.12,0.72537
6848.97,0.72657
6825.83,0.72824
6802.68,0.72836
6779.54,0.71999
6756.39,0.72294
6733.25,0.72269
6710.1,0.72600
6686.96,0.72543
6663.82,0.72850
6640.67,0.72957
6617.53,0.73090
6594.38,0.73060
6571.24,0.72948
6548.09,0.73472
6524.95,0.73655
6501.8,0.73462
6478.66,0.73227
6455.51,0.73239
6432.37,0.73873
6409.22,0.73811
6386.08,0.73696
6362.93,0.73687
6339.79,0.73615
6316.64,0.73254
6293.5,0.74042
6270.35,0.73775
6247.21,0.74401
6224.06,0.74721
6200.92,0.74407
6177.77,0.74946
6154.63,0.75222
6131.48,0.74847
6108.34,0.75125
6085.19,0.75134
6062.05,0.75511
6038.9,0.75103
6015.76,0.74586
5992.61,0.73728
5969.47,0.73502
5946.32,0.73473
5923.18,0.73197
5900.03,0.72850
5876.89,0.73011
5853.74,0.72960
5830.6,0.72907
5807.45,0.72729
5784.31,0.72704
5761.16,0.72948
5738.02,0.72791
5714.87,0.72539
5691.73,0.72676
5668.58,0.72746
5645.44,0.72677
5622.29,0.72543
5599.15,0.72729
5576,0.72655
5552.86,0.72866
5529.71,0.73033
5506.57,0.72900
5483.42,0.73037
5460.28,0.72981
5437.13,0.73358
5413.99,0.73477
5390.84,0.73496
5367.7,0.73541
5344.55,0.73056
5321.41,0.72426
5298.26,0.70890
5275.12,0.68765
5251.97,0.66191
5228.83,0.64478
5205.68,0.63703
5182.54,0.63362
5159.39,0.63696
5136.25,0.64137
5113.1,0.64747
5089.96,0.65488
5066.81,0.65991
5043.67,0.66254
5020.52,0.66798
4997.38,0.67090
4974.23,0.67011
4951.09,0.66689
4927.94,0.65842
4904.8,0.65201
4881.65,0.64024
4858.51,0.63166
4835.36,0.62478
4812.22,0.61667
4789.07,0.61325
4765.93,0.61128
4742.78,0.60892
4719.64,0.60716
4696.49,0.60677
4673.35,0.60025
4650.2,0.60005
4627.06,0.59550
4603.92,0.59959
4580.77,0.60498
4557.63,0.60629
4534.48,0.59627
4511.34,0.61205
4488.19,0.61517
4465.05,0.60067
4441.9,0.57863
4418.76,0.55753
4395.61,0.54330
4372.47,0.53848
4349.32,0.53010
4326.18,0.52627
4303.03,0.52128
4279.89,0.51427
4256.74,0.51183
4233.6,0.51773
4210.45,0.51922
4187.31,0.51959
4164.16,0.52403
4141.02,0.52019
4117.87,0.50759
4094.73,0.49093
4071.58,0.47184
4048.44,0.45624
4025.29,0.44976
4002.15,0.45002
3979,0.45173
3955.86,0.45225
3932.71,0.45481
3909.57,0.46657
3886.42,0.47055
3863.28,0.47314
3840.13,0.47378
3816.99,0.47199
3793.84,0.46399
3770.7,0.44800
3747.55,0.41364
3724.41,0.32818
3701.26,0.12799
3678.12,0.11680
3654.97,0.10112
3631.83,0.11092
3608.68,0.11833
3585.54,0.12244
3562.39,0.11780
3539.25,0.11618
3516.1,0.11235
3492.96,0.10964
3469.81,0.10517
3446.67,0.10056
3423.52,0.09955
3400.38,0.10069
3377.23,0.10228
3354.09,0.10522
3330.94,0.10809
3307.8,0.11221
3284.65,0.11617
3261.51,0.12057
3238.36,0.12587
3215.22,0.13062
3192.07,0.13724
3168.93,0.14323
3145.78,0.15046
3122.64,0.15720
3099.49,0.15931
3076.35,0.15845
3053.2,0.15978
3030.06,0.13866
3006.91,0.15453
2983.77,0.11207
2960.62,0.07902
2937.48,0.08082
2914.33,0.08895
2891.19,0.10296
2868.04,0.09294
2844.9,0.12421
2821.75,0.18352
2798.61,0.20659
2775.46,0.22180
2752.32,0.22850
2729.17,0.23068
2706.03,0.23906
2682.88,0.24629
2659.74,0.24893
2636.59,0.24059
2613.45,0.20754
2590.3,0.18458
2567.16,0.17859
2544.02,0.16052
2520.87,0.09996
2497.73,0.13746
2474.58,0.23453
2451.44,0.27413
2428.29,0.28837
2405.15,0.29812
2382,0.30380
2358.86,0.30638
2335.71,0.30496
2312.57,0.30462
2289.42,0.30388
2266.28,0.29777
2243.13,0.28917
2219.99,0.27968
2196.84,0.27617
2173.7,0.26351
2150.55,0.24452
2127.41,0.24237
2104.26,0.25331
2081.12,0.25257
2057.97,0.24498
2034.83,0.23835
2011.68,0.23579
1988.54,0.23109
1965.39,0.22531
1942.25,0.22302
1919.1,0.22827
1895.96,0.20883
1872.81,0.19288
1849.67,0.19804
1826.52,0.16962
1803.38,0.08841
1780.23,0.11708
1757.09,0.08084
1733.94,0.03695
1710.8,0.06888
1687.65,0.07201
1664.51,0.06319
1641.36,0.06054
1618.22,0.05742
1595.07,0.05844
1571.93,0.08001
1548.78,0.10382
1525.64,0.09844
1502.49,0.09288
1479.35,0.09315
1456.2,0.09536
1433.06,0.10015
1409.91,0.10623
1386.77,0.09191
1363.62,0.10038
1340.48,0.11599
1317.33,0.11950
1294.19,0.12727
1271.04,0.11073
1247.9,0.09924
1224.75,0.10247
1201.61,0.09533
1178.46,0.08001
1155.32,0.07493
1132.17,0.08491
1109.03,0.07442
1085.88,0.08318
1062.74,0.07946
1039.59,0.07847
1016.45,0.07441
993.304,0.07204
970.159,0.06604
947.014,0.06134
923.869,0.05862
900.724,0.06195
877.579,0.06757
854.434,0.06024
831.289,0.05158
808.144,0.04359
784.999,0.04336
761.854,0.04052
738.709,0.03807
715.565,0.03912
692.42,0.04481
669.275,0.04551
646.13,0.04516
622.985,0.04454
599.84,0.04513

File: Pine_Lap_Siding_IS_S_220916_R2.dpt
7497.03,0.83178
7473.89,0.82619
7450.74,0.82928
7427.6,0.82117
7404.45,0.81224
7381.31,0.79747
7358.16,0.79812
7335.02,0.80706
7311.87,0.80213
7288.73,0.79091
7265.58,0.78511
7242.44,0.79035
7219.29,0.78265
7196.15,0.77383
7173,0.75888
7149.86,0.76610
7126.71,0.75540
7103.57,0.74821
7080.42,0.74550
7057.28,0.72592
7034.13,0.74191
7010.99,0.72954
6987.84,0.73349
6964.7,0.73723
6941.55,0.73035
6918.41,0.72601
6895.26,0.72947
6872.12,0.72525
6848.97,0.73027
6825.83,0.72475
6802.68,0.72309
6779.54,0.72410
6756.39,0.72588
6733.25,0.72237
6710.1,0.72747
6686.96,0.72617
6663.82,0.73268
6640.67,0.73055
6617.53,0.72821
6594.38,0.73603
6571.24,0.73480
6548.09,0.73173
6524.95,0.73663
6501.8,0.73356
6478.66,0.73335
6455.51,0.73346
6432.37,0.73874
6409.22,0.73691
6386.08,0.73552
6362.93,0.73737
6339.79,0.73720
6316.64,0.73761
6293.5,0.73947
6270.35,0.74194
6247.21,0.74467
6224.06,0.74753
6200.92,0.75158
6177.77,0.75171
6154.63,0.75673
6131.48,0.75519
6108.34,0.75390
6085.19,0.75498
6062.05,0.75496
6038.9,0.75373
6015.76,0.74821
5992.61,0.74178
5969.47,0.73497
5946.32,0.73578
5923.18,0.73394
5900.03,0.73364
5876.89,0.72920
5853.74,0.73088
5830.6,0.73214
5807.45,0.72473
5784.31,0.73018
5761.16,0.73335
5738.02,0.73250
5714.87,0.73004
5691.73,0.72917
5668.58,0.72903
5645.44,0.73046
5622.29,0.73051
5599.15,0.72986
5576,0.72806
5552.86,0.73043
5529.71,0.73106
5506.57,0.73129
5483.42,0.73251
5460.28,0.73508
5437.13,0.73358
5413.99,0.73847
5390.84,0.73754
5367.7,0.73732
5344.55,0.73367
5321.41,0.72676
5298.26,0.71399
5275.12,0.69113
5251.97,0.66850
5228.83,0.65009
5205.68,0.64394
5182.54,0.64061
5159.39,0.64472
5136.25,0.64945
5113.1,0.65447
5089.96,0.66056
5066.81,0.66642
5043.67,0.67027
5020.52,0.67392
4997.38,0.67691
4974.23,0.67538
4951.09,0.67036
4927.94,0.66270
4904.8,0.65320
4881.65,0.64306
4858.51,0.63386
4835.36,0.62546
4812.22,0.61973
4789.07,0.61573
4765.93,0.61228
4742.78,0.61064
4719.64,0.60942
4696.49,0.60825
4673.35,0.60261
4650.2,0.60255
4627.06,0.59610
4603.92,0.60027
4580.77,0.60778
4557.63,0.60746
4534.48,0.59738
4511.34,0.61498
4488.19,0.61730
4465.05,0.60154
4441.9,0.57900
4418.76,0.55825
4395.61,0.54485
4372.47,0.53927
4349.32,0.53105
4326.18,0.52777
4303.03,0.52305
4279.89,0.51503
4256.74,0.51325
4233.6,0.51990
4210.45,0.52058
4187.31,0.52131
4164.16,0.52576
4141.02,0.52265
4117.87,0.50981
4094.73,0.49261
4071.58,0.47353
4048.44,0.45806
4025.29,0.45062
4002.15,0.45249
3979,0.45357
3955.86,0.45381
3932.71,0.45775
3909.57,0.46838
3886.42,0.47248
3863.28,0.47561
3840.13,0.47734
3816.99,0.47522
3793.84,0.46698
3770.7,0.45109
3747.55,0.41740
3724.41,0.33035
3701.26,0.12790
3678.12,0.11664
3654.97,0.10190
3631.83,0.11130
3608.68,0.11929
3585.54,0.12294
3562.39,0.11920
3539.25,0.11806
3516.1,0.11405
3492.96,0.11011
3469.81,0.10552
3446.67,0.10193
3423.52,0.10096
3400.38,0.10121
3377.23,0.10390
3354.09,0.10557
3330.94,0.10854
3307.8,0.11259
3284.65,0.11706
3261.51,0.12172
3238.36,0.12805
3215.22,0.13233
3192.07,0.13861
3168.93,0.14507
3145.78,0.15240
3122.64,0.15909
3099.49,0.16169
3076.35,0.16086
3053.2,0.16093
3030.06,0.13999
3006.91,0.15606
2983.77,0.11262
2960.62,0.07941
2937.48,0.08096
2914.33,0.08934
2891.19,0.10320
2868.04,0.09270
2844.9,0.12439
2821.75,0.18455
2798.61,0.20770
2775.46,0.22294
2752.32,0.22976
2729.17,0.23257
2706.03,0.24010
2682.88,0.24823
2659.74,0.25065
2636.59,0.24135
2613.45,0.20853
2590.3,0.18505
2567.16,0.17943
2544.02,0.16132
2520.87,0.10022
2497.73,0.13770
2474.58,0.23577
2451.44,0.27553
2428.29,0.28970
2405.15,0.29976
2382,0.30582
2358.86,0.30935
2335.71,0.30789
2312.57,0.30719
2289.42,0.30669
2266.28,0.30165
2243.13,0.29257
2219.99,0.28391
2196.84,0.28010
2173.7,0.26741
2150.55,0.24833
2127.41,0.24606
2104.26,0.25733
2081.12,0.25635
2057.97,0.24880
2034.83,0.24175
2011.68,0.23917
1988.54,0.23435
1965.39,0.22789
1942.25,0.22582
1919.1,0.23115
1895.96,0.21128
1872.81,0.19524
1849.67,0.20061
1826.52,0.17171
1803.38,0.08924
1780.23,0.11753
1757.09,0.08039
1733.94,0.03714
1710.8,0.06936
1687.65,0.07330
1664.51,0.06398
1641.36,0.06165
1618.22,0.05766
1595.07,0.05847
1571.93,0.08006
1548.78,0.10355
1525.64,0.09852
1502.49,0.09309
1479.35,0.09345
1456.2,0.09539
1433.06,0.09995
1409.91,0.10661
1386.77,0.09188
1363.62,0.10012
1340.48,0.11592
1317.33,0.11956
1294.19,0.12738
1271.04,0.11076
1247.9,0.09926
1224.75,0.10164
1201.61,0.09497
1178.46,0.08033
1155.32,0.07501
1132.17,0.08474
1109.03,0.07384
1085.88,0.08240
1062.74,0.07960
1039.59,0.07821
1016.45,0.07538
993.304,0.07163
970.159,0.06695
947.014,0.06115
923.869,0.05858
900.724,0.06197
877.579,0.06684
854.434,0.06082
831.289,0.05127
808.144,0.04386
784.999,0.04320
761.854,0.04085
738.709,0.03903
715.565,0.03881
692.42,0.04542
669.275,0.04625
646.13,0.04623
622.985,0.04494
599.84,0.04275

File: Pine_Lap_Siding_IS_S_220916_R3.dpt
7497.03,0.83085
7473.89,0.83094
7450.74,0.82008
7427.6,0.80741
7404.45,0.81166
7381.31,0.81047
7358.16,0.80198
7335.02,0.80415
7311.87,0.79977
7288.73,0.78961
7265.58,0.79143
7242.44,0.78999
7219.29,0.78631
7196.15,0.77762
7173,0.76317
7149.86,0.76322
7126.71,0.75967
7103.57,0.75670
7080.42,0.73779
7057.28,0.73015
7034.13,0.73981
7010.99,0.74046
6987.84,0.72941
6964.7,0.72596
6941.55,0.72491
6918.41,0.72726
6895.26,0.72099
6872.12,0.73385
6848.97,0.73001
6825.83,0.72521
6802.68,0.72756
6779.54,0.72666
6756.39,0.72934
6733.25,0.72555
6710.1,0.72930
6686.96,0.72943
6663.82,0.73559
6640.67,0.73296
6617.53,0.73505
6594.38,0.73722
6571.24,0.73614
6548.09,0.73876
6524.95,0.73921
6501.8,0.73407
6478.66,0.74111
6455.51,0.74116
6432.37,0.73818
6409.22,0.73986
6386.08,0.74292
6362.93,0.74184
6339.79,0.74351
6316.64,0.74009
6293.5,0.74275
6270.35,0.74437
6247.21,0.74526
6224.06,0.75029
6200.92,0.74814
6177.77,0.75357
6154.63,0.75720
6131.48,0.75404
6108.34,0.75591
6085.19,0.75667
6062.05,0.75682
6038.9,0.75516
6015.76,0.74913
5992.61,0.74185
5969.47,0.73925
5946.32,0.73642
5923.18,0.73514
5900.03,0.73390
5876.89,0.73107
5853.74,0.73258
5830.6,0.72846
5807.45,0.72899
5784.31,0.73376
5761.16,0.73344
5738.02,0.73238
5714.87,0.73265
5691.73,0.73202
5668.58,0.73156
5645.44,0.73380
5622.29,0.73155
5599.15,0.73033
5576,0.73206
5552.86,0.73360
5529.71,0.73242
5506.57,0.73169
5483.42,0.73561
5460.28,0.73350
5437.13,0.73772
5413.99,0.73857
5390.84,0.74165
5367.7,0.74009
5344.55,0.73723
5321.41,0.72975
5298.26,0.71670
5275.12,0.69710
5251.97,0.67203
5228.83,0.65474
5205.68,0.64782
5182.54,0.64786
5159.39,0.64927
5136.25,0.65366
5113.1,0.66091
5089.96,0.66456
5066.81,0.66945
5043.67,0.67613
5020.52,0.67932
4997.38,0.68077
4974.23,0.67899
4951.09,0.67334
4927.94,0.66428
4904.8,0.65575
4881.65,0.64576
4858.51,0.63607
4835.36,0.62886
4812.22,0.62238
4789.07,0.61756
4765.93,0.61471
4742.78,0.61398
4719.64,0.61243
4696.49,0.60987
4673.35,0.60439
4650.2,0.60459
4627.06,0.59887
4603.92,0.60269
4580.77,0.61020
4557.63,0.60996
4534.48,0.59970
4511.34,0.61658
4488.19,0.61817
4465.05,0.60359
4441.9,0.58156
4418.76,0.56003
4395.61,0.54602
4372.47,0.54126
4349.32,0.53378
4326.18,0.52989
4303.03,0.52469
4279.89,0.51719
4256.74,0.51468
4233.6,0.52123
4210.45,0.52262
4187.31,0.52296
4164.16,0.52780
4141.02,0.52543
4117.87,0.51171
4094.73,0.49529
4071.58,0.47579
4048.44,0.45945
4025.29,0.45326
4002.15,0.45434
3979,0.45568
3955.86,0.45562
3932.71,0.45943
3909.57,0.47132
3886.42,0.47557
3863.28,0.47858
3840.13,0.47943
3816.99,0.47665
3793.84,0.46910
3770.7,0.45288
3747.55,0.42048
3724.41,0.33223
3701.26,0.12876
3678.12,0.11715
3654.97,0.10212
3631.83,0.11215
3608.68,0.12006
3585.54,0.12345
3562.39,0.12017
3539.25,0.11810
3516.1,0.11435
3492.96,0.11068
3469.81,0.10633
3446.67,0.10208
3423.52,0.10089
3400.38,0.10183
3377.23,0.10379
3354.09,0.10624
3330.94,0.10933
3307.8,0.11337
3284.65,0.11736
3261.51,0.12300
3238.36,0.12714
3215.22,0.13403
3192.07,0.13942
3168.93,0.14668
3145.78,0.15351
3122.64,0.16067
3099.49,0.16316
3076.35,0.16173
3053.2,0.16277
3030.06,0.14099
3006.91,0.15699
2983.77,0.11317
2960.62,0.07932
2937.48,0.08062
2914.33,0.08894
2891.19,0.10345
2868.04,0.09224
2844.9,0.12465
2821.75,0.18522
2798.61,0.20876
2775.46,0.22449
2752.32,0.23090
2729.17,0.23343
2706.03,0.24131
2682.88,0.24919
2659.74,0.25161
2636.59,0.24275
2613.45,0.20983
2590.3,0.18575
2567.16,0.17951
2544.02,0.16191
2520.87,0.10091
2497.73,0.13820
2474.58,0.23670
2451.44,0.27675
2428.29,0.29124
2405.15,0.30114
2382,0.30761
2358.86,0.31064
2335.71,0.30960
2312.57,0.30966
2289.42,0.30897
2266.28,0.30355
2243.13,0.29511
2219.99,0.28650
2196.84,0.28281
2173.7,0.26987
2150.55,0.25008
2127.41,0.24818
2104.26,0.25920
2081.12,0.25862
2057.97,0.25103
2034.83,0.24370
2011.68,0.24093
1988.54,0.23598
1965.39,0.22962
1942.25,0.22766
1919.1,0.23279
1895.96,0.21313
1872.81,0.19634
1849.67,0.20179
1826.52,0.17291
1803.38,0.08973
1780.23,0.11821
1757.09,0.08090
1733.94,0.03725
1710.8,0.06981
1687.65,0.07347
1664.51,0.06444
1641.36,0.06219
1618.22,0.05750
1595.07,0.05832
1571.93,0.08024
1548.78,0.10397
1525.64,0.09869
1502.49,0.09311
1479.35,0.09351
1456.2,0.09561
1433.06,0.09983
1409.91,0.10616
1386.77,0.09205
1363.62,0.10043
1340.48,0.11630
1317.33,0.11973
1294.19,0.12765
1271.04,0.11103
1247.9,0.09914
1224.75,0.10197
1201.61,0.09521
1178.46,0.07989
1155.32,0.07502
1132.17,0.08500
1109.03,0.07370
1085.88,0.08176
1062.74,0.07962
1039.59,0.07863
1016.45,0.07417
993.304,0.07141
970.159,0.06651
947.014,0.06167
923.869,0.05824
900.724,0.06164
877.579,0.06679
854.434,0.06030
831.289,0.05110
808.144,0.04437
784.999,0.04269
761.854,0.04084
738.709,0.03914
715.565,0.03821
692.42,0.04568
669.275,0.04533
646.13,0.04496
622.985,0.04631
599.84,0.04828

File: Pine_Lap_Siding_IS_S_220916_R4.dpt
7497.03,0.82943
7473.89,0.82603
7450.74,0.82885
7427.6,0.80837
7404.45,0.80616
7381.31,0.80673
7358.16,0.80544
7335.02,0.80406
7311.87,0.79647
7288.73,0.79551
7265.58,0.79452
7242.44,0.79194
7219.29,0.78438
7196.15,0.77363
7173,0.75953
7149.86,0.76767
7126.71,0.75374
7103.57,0.75682
7080.42,0.74467
7057.28,0.73200
7034.13,0.73687
7010.99,0.73990
6987.84,0.73468
6964.7,0.73134
6941.55,0.72695
6918.41,0.73005
6895.26,0.72719
6872.12,0.73062
6848.97,0.73341
6825.83,0.72551
6802.68,0.73120
6779.54,0.73032
6756.39,0.72860
6733.25,0.72892
6710.1,0.72798
6686.96,0.73558
6663.82,0.73054
6640.67,0.73316
6617.53,0.73425
6594.38,0.73547
6571.24,0.74034
6548.09,0.73650
6524.95,0.73502
6501.8,0.73874
6478.66,0.73929
6455.51,0.73794
6432.37,0.74184
6409.22,0.73672
6386.08,0.73839
6362.93,0.74141
6339.79,0.74206
6316.64,0.73812
6293.5,0.74284
6270.35,0.74238
6247.21,0.74686
6224.06,0.74986
6200.92,0.75243
6177.77,0.75407
6154.63,0.75746
6131.48,0.75732
6108.34,0.75782
6085.19,0.75737
6062.05,0.75594
6038.9,0.75567
6015.76,0.74883
5992.61,0.74220
5969.47,0.73908
5946.32,0.73516
5923.18,0.73734
5900.03,0.73621
5876.89,0.73397
5853.74,0.73631
5830.6,0.73356
5807.45,0.73226
5784.31,0.73313
5761.16,0.73593
5738.02,0.73376
5714.87,0.73115
5691.73,0.73319
5668.58,0.73225
5645.44,0.73376
5622.29,0.73352
5599.15,0.73277
5576,0.73369
5552.86,0.73558
5529.71,0.73627
5506.57,0.73598
5483.42,0.73743
5460.28,0.73684
5437.13,0.73779
5413.99,0.74215
5390.84,0.74161
5367.7,0.74049
5344.55,0.73822
5321.41,0.73103
5298.26,0.71987
5275.12,0.69815
5251.97,0.67363
5228.83,0.65817
5205.68,0.65102
5182.54,0.65024
5159.39,0.65288
5136.25,0.65796
5113.1,0.66465
5089.96,0.66979
5066.81,0.67408
5043.67,0.67746
5020.52,0.68156
4997.38,0.68232
4974.23,0.68061
4951.09,0.67561
4927.94,0.66628
4904.8,0.65698
4881.65,0.64689
4858.51,0.63668
4835.36,0.62945
4812.22,0.62198
4789.07,0.61854
4765.93,0.61448
4742.78,0.61318
4719.64,0.61257
4696.49,0.61183
4673.35,0.60434
4650.2,0.60589
4627.06,0.59950
4603.92,0.60340
4580.77,0.61181
4557.63,0.61055
4534.48,0.60071
4511.34,0.61835
4488.19,0.61904
4465.05,0.60472
4441.9,0.58259
4418.76,0.56059
4395.61,0.54752
4372.47,0.54266
4349.32,0.53289
4326.18,0.53021
4303.03,0.52581
4279.89,0.51793
4256.74,0.51473
4233.6,0.52244
4210.45,0.52356
4187.31,0.52405
4164.16,0.52848
4141.02,0.52606
4117.87,0.51325
4094.73,0.49573
4071.58,0.47661
4048.44,0.46035
4025.29,0.45413
4002.15,0.45472
3979,0.45595
3955.86,0.45718
3932.71,0.45996
3909.57,0.47238
3886.42,0.47647
3863.28,0.47869
3840.13,0.48051
3816.99,0.47927
3793.84,0.47069
3770.7,0.45465
3747.55,0.42132
3724.41,0.33300
3701.26,0.12882
3678.12,0.11795
3654.97,0.10133
3631.83,0.11205
3608.68,0.12005
3585.54,0.12409
3562.39,0.12004
3539.25,0.11799
3516.1,0.11567
3492.96,0.11187
3469.81,0.10711
3446.67,0.10226
3423.52,0.10115
3400.38,0.10284
3377.23,0.10387
3354.09,0.10740
3330.94,0.10949
3307.8,0.11364
3284.65,0.11788
3261.51,0.12386
3238.36,0.12870
3215.22,0.13420
3192.07,0.14059
3168.93,0.14770
3145.78,0.15567
3122.64,0.16142
3099.49,0.16380
3076.35,0.16316
3053.2,0.16298
3030.06,0.14154
3006.91,0.15724
2983.77,0.11361
2960.62,0.07945
2937.48,0.08150
2914.33,0.08980
2891.19,0.10351
2868.04,0.09266
2844.9,0.12486
2821.75,0.18572
2798.61,0.20917
2775.46,0.22502
2752.32,0.23154
2729.17,0.23416
2706.03,0.24185
2682.88,0.24985
2659.74,0.25216
2636.59,0.24385
2613.45,0.21020
2590.3,0.18620
2567.16,0.17996
2544.02,0.16186
2520.87,0.10101
2497.73,0.13931
2474.58,0.23729
2451.44,0.27778
2428.29,0.29213
2405.15,0.30240
2382,0.30846
2358.86,0.31173
2335.71,0.31072
2312.57,0.31070
2289.42,0.31071
2266.28,0.30523
2243.13,0.29633
2219.99,0.28742
2196.84,0.28446
2173.7,0.27092
2150.55,0.25171
2127.41,0.24943
2104.26,0.26105
2081.12,0.26047
2057.97,0.25212
2034.83,0.24545
2011.68,0.24202
1988.54,0.23693
1965.39,0.23098
1942.25,0.22858
1919.1,0.23399
1895.96,0.21418
1872.81,0.19751
1849.67,0.20236
1826.52,0.17358
1803.38,0.09014
1780.23,0.11839
1757.09,0.08068
1733.94,0.03663
1710.8,0.07014
1687.65,0.07412
1664.51,0.06508
1641.36,0.06238
1618.22,0.05778
1595.07,0.05841
1571.93,0.08055
1548.78,0.10453
1525.64,0.09911
1502.49,0.09320
1479.35,0.09333
1456.2,0.09585
1433.06,0.10034
1409.91,0.10649
1386.77,0.09231
1363.62,0.10078
1340.48,0.11633
1317.33,0.12020
1294.19,0.12756
1271.04,0.11108
1247.9,0.09904
1224.75,0.10242
1201.61,0.09519
1178.46,0.07959
1155.32,0.07470
1132.17,0.08524
1109.03,0.07369
1085.88,0.08237
1062.74,0.07992
1039.59,0.07842
1016.45,0.07452
993.304,0.07172
970.159,0.06622
947.014,0.06130
923.869,0.05761
900.724,0.06184
877.579,0.06649
854.434,0.06084
831.289,0.05147
808.144,0.04386
784.999,0.04314
761.854,0.04016
738.709,0.03962
715.565,0.03823
692.42,0.04615
669.275,0.04704
646.13,0.04622
622.985,0.04282
599.84,0.04363