Folder: fsri_materials_database/01_Data/XPS_Foam_Board/FTIR/IS

Note: README.md
# Materials and Products Database
### Repository of materials and products properties and fire test data to improve fire modeling and fire investigation.

This project was supported in part by Award No. 2019-DU-BX-0018, awarded by the National Institute of Justice, Office of Justice Programs, U.S. Department of Justice. The opinions, findings, and conclusions or recommendations expressed in this publication / program / exhibition are those of the author(s) and do not necessarily reflect those of the Department of Justice.

***
***

__Cite this database:__ "McKinnon, M., Weinschenk, C., Dow, N., DiDomizio, M., and Madrzykowski, D. Materials and Products Database (Version 1.0.0), Fire Safety Research Institute, UL Research Institutes. Columbia, MD 21045, 2023."

__Cite the Technical Reference Guide:__ "McKinnon, M., Weinschenk, C., and Madrzykowski, D. Materials and Products Database - Technical Reference Guide, Fire Safety Research Institute, UL Research Institutes. Columbia, MD 21045, 2023."

__Cite the User Guide:__ "McKinnon, M., and Weinschenk, C. Materials and Products Database - User Guide, Fire Safety Research Institute, UL Research Institutes. Columbia, MD 21045, 2023."

***
***

## Database Structure

## 01_Data/
Raw data generated from each apparatus are included here in plain-text format. The data is organized first by material, next by the short name of test apparatus used, and where applicable additional filtering by test settings.

### Test Apparatus and Data File Structure
- __Cone Calorimeter__ (Cone)
    + Data file structure includes the material, the short name for the apparatus, heat flux setting and scan/scalar, date of test, and replicate number. Scan is for the raw output data and scalar is for the initial conditions and high-level test parameters. 
        * Example: __MDF_Cone_HF25scalar_210323_R1__ stands for the first replicate of scalar data generated from a medium density fiber board test in cone calorimeter exposed to 25 kW/m<sup>2</sup> on March 23, 2021.
    + A _Cone_Notes.csv_ is generated for each material from the __plot_Cone_data.py__ script. For materials whose experiments deviated from typical behavior relevant pictures are included in the respective material directory.
- __Fourier Transform Infrared Spectrometer__ (FTIR)
    + The FTIR directory contains subdirectories for the Attenuated Total Reflectance method (ATR) and the Integrating Sphere (IS)
    + Data file structure for the ATR experiment files includes the material, the abbreviated name for the apparatus, date of test, and replicate number. 
        * Example: __MDF_ATR_210323_R5__ stands for the fifth replicate of data collected with the ATR accessory conducted on June 8, 2021.
    + Data file structure for the IS experiment files includes the material, the abbreviated name for the apparatus, the measurand, whether the test is a sample measurement or standard reference, date of test, and replicate number.
        * Example: __OSB_IS_REFLECT_MEAS_2

File: XPS_Foam_Board_IS_S_220929_R1.dpt
7497.03,0.38991
7473.89,0.38740
7450.74,0.39111
7427.6,0.39953
7404.45,0.39721
7381.31,0.39344
7358.16,0.38686
7335.02,0.39187
7311.87,0.38679
7288.73,0.38671
7265.58,0.38301
7242.44,0.39412
7219.29,0.39486
7196.15,0.39368
7173,0.39653
7149.86,0.38397
7126.71,0.39278
7103.57,0.39257
7080.42,0.38807
7057.28,0.38975
7034.13,0.39102
7010.99,0.39721
6987.84,0.39341
6964.7,0.39162
6941.55,0.38733
6918.41,0.38849
6895.26,0.39142
6872.12,0.38473
6848.97,0.38523
6825.83,0.39090
6802.68,0.38869
6779.54,0.39138
6756.39,0.39209
6733.25,0.39497
6710.1,0.39526
6686.96,0.38866
6663.82,0.38776
6640.67,0.39258
6617.53,0.39041
6594.38,0.39299
6571.24,0.38802
6548.09,0.38989
6524.95,0.39003
6501.8,0.39330
6478.66,0.38720
6455.51,0.39337
6432.37,0.38685
6409.22,0.39082
6386.08,0.39050
6362.93,0.38842
6339.79,0.38868
6316.64,0.38971
6293.5,0.38857
6270.35,0.38937
6247.21,0.39089
6224.06,0.38819
6200.92,0.38681
6177.77,0.38689
6154.63,0.38654
6131.48,0.38234
6108.34,0.38242
6085.19,0.38295
6062.05,0.38491
6038.9,0.38465
6015.76,0.37598
5992.61,0.36814
5969.47,0.35875
5946.32,0.35726
5923.18,0.35943
5900.03,0.36350
5876.89,0.37313
5853.74,0.37600
5830.6,0.37598
5807.45,0.37905
5784.31,0.37859
5761.16,0.38356
5738.02,0.38465
5714.87,0.38167
5691.73,0.37892
5668.58,0.38039
5645.44,0.38250
5622.29,0.38301
5599.15,0.38397
5576,0.38286
5552.86,0.38437
5529.71,0.38289
5506.57,0.38260
5483.42,0.38370
5460.28,0.38599
5437.13,0.38360
5413.99,0.38605
5390.84,0.38489
5367.7,0.38491
5344.55,0.38711
5321.41,0.38551
5298.26,0.38443
5275.12,0.38710
5251.97,0.38543
5228.83,0.38709
5205.68,0.38377
5182.54,0.38624
5159.39,0.38800
5136.25,0.38602
5113.1,0.38788
5089.96,0.38682
5066.81,0.38560
5043.67,0.38683
5020.52,0.38776
4997.38,0.38600
4974.23,0.38665
4951.09,0.38599
4927.94,0.38609
4904.8,0.38682
4881.65,0.38558
4858.51,0.38619
4835.36,0.38506
4812.22,0.38638
4789.07,0.38591
4765.93,0.38581
4742.78,0.38640
4719.64,0.38360
4696.49,0.38067
4673.35,0.35899
4650.2,0.36015
4627.06,0.35346
4603.92,0.35099
4580.77,0.36568
4557.63,0.37139
4534.48,0.37780
4511.34,0.37771
4488.19,0.38084
4465.05,0.38160
4441.9,0.37947
4418.76,0.37970
4395.61,0.37705
4372.47,0.37048
4349.32,0.36256
4326.18,0.36035
4303.03,0.36845
4279.89,0.36183
4256.74,0.34837
4233.6,0.34987
4210.45,0.34983
4187.31,0.35659
4164.16,0.36166
4141.02,0.36127
4117.87,0.35476
4094.73,0.34848
4071.58,0.32623
4048.44,0.30854
4025.29,0.32257
4002.15,0.35112
3979,0.35920
3955.86,0.36170
3932.71,0.36102
3909.57,0.36308
3886.42,0.36540
3863.28,0.36518
3840.13,0.36511
3816.99,0.36213
3793.84,0.36325
3770.7,0.36596
3747.55,0.36859
3724.41,0.36475
3701.26,0.36286
3678.12,0.36362
3654.97,0.35498
3631.83,0.36127
3608.68,0.36400
3585.54,0.36692
3562.39,0.36602
3539.25,0.36247
3516.1,0.36121
3492.96,0.35785
3469.81,0.35574
3446.67,0.35303
3423.52,0.35560
3400.38,0.35646
3377.23,0.35679
3354.09,0.35755
3330.94,0.35739
3307.8,0.35798
3284.65,0.35696
3261.51,0.35489
3238.36,0.35516
3215.22,0.35212
3192.07,0.34648
3168.93,0.33773
3145.78,0.33565
3122.64,0.31795
3099.49,0.23516
3076.35,0.18845
3053.2,0.17803
3030.06,0.13207
3006.91,0.21756
2983.77,0.26612
2960.62,0.22216
2937.48,0.13621
2914.33,0.13033
2891.19,0.18943
2868.04,0.21874
2844.9,0.18708
2821.75,0.30663
2798.61,0.32119
2775.46,0.33004
2752.32,0.34097
2729.17,0.33790
2706.03,0.33775
2682.88,0.33698
2659.74,0.33889
2636.59,0.33316
2613.45,0.33995
2590.3,0.34192
2567.16,0.34387
2544.02,0.34331
2520.87,0.34308
2497.73,0.34503
2474.58,0.35103
2451.44,0.35427
2428.29,0.35715
2405.15,0.35604
2382,0.35469
2358.86,0.34942
2335.71,0.33349
2312.57,0.34266
2289.42,0.35479
2266.28,0.35617
2243.13,0.35747
2219.99,0.36006
2196.84,0.36226
2173.7,0.36359
2150.55,0.36489
2127.41,0.36669
2104.26,0.36739
2081.12,0.36826
2057.97,0.36712
2034.83,0.36533
2011.68,0.36191
1988.54,0.34639
1965.39,0.30770
1942.25,0.26385
1919.1,0.33736
1895.96,0.32142
1872.81,0.27947
1849.67,0.33964
1826.52,0.32581
1803.38,0.27565
1780.23,0.33307
1757.09,0.30928
1733.94,0.29905
1710.8,0.33411
1687.65,0.32280
1664.51,0.30530
1641.36,0.32981
1618.22,0.30041
1595.07,0.21359
1571.93,0.30728
1548.78,0.29586
1525.64,0.31127
1502.49,0.23630
1479.35,0.26034
1456.2,0.15002
1433.06,0.25505
1409.91,0.30831
1386.77,0.25408
1363.62,0.23148
1340.48,0.25379
1317.33,0.24874
1294.19,0.26149
1271.04,0.29036
1247.9,0.29791
1224.75,0.29446
1201.61,0.26438
1178.46,0.24438
1155.32,0.24222
1132.17,0.31916
1109.03,0.29384
1085.88,0.26995
1062.74,0.24445
1039.59,0.27211
1016.45,0.25360
993.304,0.29156
970.159,0.27378
947.014,0.28586
923.869,0.30393
900.724,0.25896
877.579,0.33072
854.434,0.32399
831.289,0.32006
808.144,0.31789
784.999,0.23322
761.854,0.12949
738.709,0.21492
715.565,0.21839
692.42,0.25198
669.275,0.32093
646.13,0.35811
622.985,0.31068
599.84,0.31305

File: XPS_Foam_Board_IS_S_220929_R2.dpt
7497.03,0.39943
7473.89,0.38937
7450.74,0.39488
7427.6,0.40025
7404.45,0.39031
7381.31,0.39473
7358.16,0.38837
7335.02,0.38872
7311.87,0.39149
7288.73,0.39104
7265.58,0.38306
7242.44,0.39197
7219.29,0.38679
7196.15,0.39283
7173,0.38926
7149.86,0.38271
7126.71,0.39609
7103.57,0.38352
7080.42,0.38978
7057.28,0.39047
7034.13,0.38963
7010.99,0.39003
6987.84,0.38687
6964.7,0.39613
6941.55,0.39256
6918.41,0.38808
6895.26,0.39354
6872.12,0.39330
6848.97,0.38445
6825.83,0.38637
6802.68,0.39292
6779.54,0.38847
6756.39,0.39107
6733.25,0.38657
6710.1,0.39437
6686.96,0.39026
6663.82,0.38870
6640.67,0.38978
6617.53,0.38844
6594.38,0.39434
6571.24,0.39159
6548.09,0.39034
6524.95,0.38575
6501.8,0.39078
6478.66,0.38978
6455.51,0.39375
6432.37,0.38548
6409.22,0.39058
6386.08,0.38720
6362.93,0.38743
6339.79,0.38569
6316.64,0.39348
6293.5,0.39362
6270.35,0.39229
6247.21,0.39110
6224.06,0.39142
6200.92,0.38656
6177.77,0.38521
6154.63,0.38670
6131.48,0.38891
6108.34,0.38308
6085.19,0.38316
6062.05,0.38324
6038.9,0.38632
6015.76,0.37968
5992.61,0.36721
5969.47,0.35934
5946.32,0.35780
5923.18,0.36263
5900.03,0.36577
5876.89,0.37391
5853.74,0.37849
5830.6,0.38153
5807.45,0.37887
5784.31,0.38116
5761.16,0.38265
5738.02,0.38544
5714.87,0.38165
5691.73,0.38089
5668.58,0.37886
5645.44,0.38074
5622.29,0.38519
5599.15,0.38554
5576,0.38583
5552.86,0.38520
5529.71,0.38412
5506.57,0.38548
5483.42,0.38533
5460.28,0.38679
5437.13,0.38722
5413.99,0.38563
5390.84,0.38671
5367.7,0.38456
5344.55,0.38716
5321.41,0.38775
5298.26,0.38863
5275.12,0.38679
5251.97,0.38643
5228.83,0.38577
5205.68,0.38617
5182.54,0.38872
5159.39,0.38653
5136.25,0.38773
5113.1,0.38720
5089.96,0.38749
5066.81,0.38884
5043.67,0.38880
5020.52,0.38735
4997.38,0.38746
4974.23,0.38798
4951.09,0.38858
4927.94,0.38774
4904.8,0.38797
4881.65,0.38811
4858.51,0.38720
4835.36,0.38677
4812.22,0.38713
4789.07,0.38680
4765.93,0.38623
4742.78,0.38578
4719.64,0.38491
4696.49,0.38041
4673.35,0.35888
4650.2,0.36071
4627.06,0.35445
4603.92,0.35115
4580.77,0.36679
4557.63,0.37189
4534.48,0.37882
4511.34,0.37988
4488.19,0.38130
4465.05,0.38270
4441.9,0.37957
4418.76,0.37967
4395.61,0.37721
4372.47,0.37114
4349.32,0.36257
4326.18,0.36046
4303.03,0.36957
4279.89,0.36220
4256.74,0.34911
4233.6,0.34973
4210.45,0.35159
4187.31,0.35785
4164.16,0.36212
4141.02,0.36105
4117.87,0.35500
4094.73,0.34940
4071.58,0.32638
4048.44,0.30903
4025.29,0.32405
4002.15,0.35173
3979,0.35982
3955.86,0.36249
3932.71,0.36199
3909.57,0.36411
3886.42,0.36655
3863.28,0.36697
3840.13,0.36587
3816.99,0.36252
3793.84,0.36421
3770.7,0.36654
3747.55,0.36993
3724.41,0.36570
3701.26,0.36479
3678.12,0.36549
3654.97,0.35586
3631.83,0.36249
3608.68,0.36478
3585.54,0.36769
3562.39,0.36650
3539.25,0.36432
3516.1,0.36199
3492.96,0.35930
3469.81,0.35553
3446.67,0.35389
3423.52,0.35702
3400.38,0.35766
3377.23,0.35761
3354.09,0.35868
3330.94,0.35907
3307.8,0.35854
3284.65,0.35793
3261.51,0.35657
3238.36,0.35606
3215.22,0.35334
3192.07,0.34796
3168.93,0.33787
3145.78,0.33644
3122.64,0.31890
3099.49,0.23619
3076.35,0.18865
3053.2,0.17860
3030.06,0.13223
3006.91,0.21756
2983.77,0.26661
2960.62,0.22245
2937.48,0.13636
2914.33,0.12983
2891.19,0.19003
2868.04,0.21923
2844.9,0.18729
2821.75,0.30718
2798.61,0.32217
2775.46,0.33114
2752.32,0.34245
2729.17,0.33908
2706.03,0.33829
2682.88,0.33765
2659.74,0.33969
2636.59,0.33437
2613.45,0.34068
2590.3,0.34258
2567.16,0.34516
2544.02,0.34347
2520.87,0.34447
2497.73,0.34585
2474.58,0.35214
2451.44,0.35557
2428.29,0.35817
2405.15,0.35734
2382,0.35565
2358.86,0.35022
2335.71,0.33427
2312.57,0.34309
2289.42,0.35562
2266.28,0.35755
2243.13,0.35879
2219.99,0.36147
2196.84,0.36347
2173.7,0.36431
2150.55,0.36571
2127.41,0.36765
2104.26,0.36817
2081.12,0.36925
2057.97,0.36795
2034.83,0.36647
2011.68,0.36295
1988.54,0.34731
1965.39,0.30825
1942.25,0.26450
1919.1,0.33828
1895.96,0.32258
1872.81,0.28022
1849.67,0.34052
1826.52,0.32688
1803.38,0.27626
1780.23,0.33352
1757.09,0.31007
1733.94,0.30020
1710.8,0.33549
1687.65,0.32368
1664.51,0.30625
1641.36,0.33091
1618.22,0.30143
1595.07,0.21423
1571.93,0.30813
1548.78,0.29647
1525.64,0.31248
1502.49,0.23727
1479.35,0.26090
1456.2,0.15062
1433.06,0.25608
1409.91,0.30928
1386.77,0.25487
1363.62,0.23155
1340.48,0.25452
1317.33,0.24902
1294.19,0.26263
1271.04,0.29126
1247.9,0.29889
1224.75,0.29548
1201.61,0.26530
1178.46,0.24446
1155.32,0.24254
1132.17,0.32021
1109.03,0.29452
1085.88,0.27030
1062.74,0.24399
1039.59,0.27353
1016.45,0.25381
993.304,0.29168
970.159,0.27443
947.014,0.28640
923.869,0.30461
900.724,0.25906
877.579,0.33186
854.434,0.32467
831.289,0.32148
808.144,0.31824
784.999,0.23302
761.854,0.12933
738.709,0.21413
715.565,0.21965
692.42,0.25138
669.275,0.32082
646.13,0.35914
622.985,0.30923
599.84,0.31492

File: XPS_Foam_Board_IS_S_220929_R3.dpt
7497.03,0.39032
7473.89,0.39212
7450.74,0.39299
7427.6,0.39350
7404.45,0.39053
7381.31,0.38805
7358.16,0.38784
7335.02,0.39140
7311.87,0.38883
7288.73,0.39369
7265.58,0.39201
7242.44,0.39131
7219.29,0.39299
7196.15,0.39391
7173,0.39593
7149.86,0.39311
7126.71,0.39195
7103.57,0.39308
7080.42,0.39061
7057.28,0.38885
7034.13,0.38480
7010.99,0.39268
6987.84,0.39242
6964.7,0.38883
6941.55,0.38679
6918.41,0.38896
6895.26,0.39147
6872.12,0.39193
6848.97,0.39359
6825.83,0.39717
6802.68,0.39634
6779.54,0.39416
6756.39,0.39571
6733.25,0.38799
6710.1,0.39127
6686.96,0.39193
6663.82,0.38830
6640.67,0.39071
6617.53,0.38579
6594.38,0.39732
6571.24,0.38685
6548.09,0.39330
6524.95,0.39098
6501.8,0.39257
6478.66,0.38959
6455.51,0.38988
6432.37,0.39043
6409.22,0.38932
6386.08,0.38509
6362.93,0.39191
6339.79,0.39529
6316.64,0.38943
6293.5,0.39376
6270.35,0.38837
6247.21,0.39316
6224.06,0.38944
6200.92,0.38686
6177.77,0.38817
6154.63,0.38819
6131.48,0.38350
6108.34,0.38301
6085.19,0.38294
6062.05,0.38255
6038.9,0.38436
6015.76,0.38012
5992.61,0.36849
5969.47,0.36143
5946.32,0.35493
5923.18,0.36129
5900.03,0.36494
5876.89,0.36886
5853.74,0.37832
5830.6,0.37926
5807.45,0.37927
5784.31,0.38083
5761.16,0.38454
5738.02,0.38467
5714.87,0.38368
5691.73,0.37794
5668.58,0.37982
5645.44,0.38378
5622.29,0.38554
5599.15,0.38576
5576,0.38508
5552.86,0.38355
5529.71,0.38364
5506.57,0.38525
5483.42,0.38472
5460.28,0.38591
5437.13,0.38506
5413.99,0.38408
5390.84,0.38533
5367.7,0.38608
5344.55,0.38596
5321.41,0.38626
5298.26,0.38751
5275.12,0.38649
5251.97,0.38511
5228.83,0.38758
5205.68,0.38744
5182.54,0.38828
5159.39,0.38779
5136.25,0.38697
5113.1,0.38717
5089.96,0.38681
5066.81,0.38821
5043.67,0.38704
5020.52,0.38825
4997.38,0.38756
4974.23,0.38733
4951.09,0.38796
4927.94,0.38770
4904.8,0.38815
4881.65,0.38802
4858.51,0.38750
4835.36,0.38608
4812.22,0.38758
4789.07,0.38666
4765.93,0.38570
4742.78,0.38675
4719.64,0.38474
4696.49,0.38048
4673.35,0.35974
4650.2,0.36144
4627.06,0.35234
4603.92,0.35068
4580.77,0.36695
4557.63,0.37237
4534.48,0.37816
4511.34,0.37918
4488.19,0.38103
4465.05,0.38296
4441.9,0.38039
4418.76,0.38040
4395.61,0.37729
4372.47,0.36991
4349.32,0.36242
4326.18,0.36082
4303.03,0.37001
4279.89,0.36222
4256.74,0.34911
4233.6,0.34950
4210.45,0.35129
4187.31,0.35731
4164.16,0.36193
4141.02,0.36152
4117.87,0.35512
4094.73,0.34937
4071.58,0.32748
4048.44,0.30910
4025.29,0.32351
4002.15,0.35184
3979,0.35943
3955.86,0.36244
3932.71,0.36225
3909.57,0.36455
3886.42,0.36570
3863.28,0.36536
3840.13,0.36580
3816.99,0.36284
3793.84,0.36372
3770.7,0.36673
3747.55,0.36973
3724.41,0.36587
3701.26,0.36326
3678.12,0.36384
3654.97,0.35582
3631.83,0.36255
3608.68,0.36552
3585.54,0.36736
3562.39,0.36651
3539.25,0.36431
3516.1,0.36194
3492.96,0.35880
3469.81,0.35554
3446.67,0.35394
3423.52,0.35608
3400.38,0.35769
3377.23,0.35820
3354.09,0.35869
3330.94,0.35807
3307.8,0.35886
3284.65,0.35776
3261.51,0.35661
3238.36,0.35626
3215.22,0.35286
3192.07,0.34751
3168.93,0.33826
3145.78,0.33626
3122.64,0.31918
3099.49,0.23572
3076.35,0.18881
3053.2,0.17795
3030.06,0.13242
3006.91,0.21793
2983.77,0.26687
2960.62,0.22269
2937.48,0.13649
2914.33,0.13016
2891.19,0.19025
2868.04,0.21953
2844.9,0.18732
2821.75,0.30722
2798.61,0.32199
2775.46,0.33122
2752.32,0.34193
2729.17,0.33894
2706.03,0.33855
2682.88,0.33737
2659.74,0.33922
2636.59,0.33435
2613.45,0.34079
2590.3,0.34247
2567.16,0.34484
2544.02,0.34380
2520.87,0.34437
2497.73,0.34594
2474.58,0.35209
2451.44,0.35563
2428.29,0.35817
2405.15,0.35717
2382,0.35498
2358.86,0.34960
2335.71,0.33422
2312.57,0.34350
2289.42,0.35572
2266.28,0.35747
2243.13,0.35829
2219.99,0.36139
2196.84,0.36319
2173.7,0.36444
2150.55,0.36552
2127.41,0.36763
2104.26,0.36811
2081.12,0.36897
2057.97,0.36788
2034.83,0.36584
2011.68,0.36261
1988.54,0.34724
1965.39,0.30804
1942.25,0.26462
1919.1,0.33842
1895.96,0.32233
1872.81,0.28012
1849.67,0.34066
1826.52,0.32622
1803.38,0.27653
1780.23,0.33382
1757.09,0.31019
1733.94,0.30006
1710.8,0.33476
1687.65,0.32299
1664.51,0.30615
1641.36,0.33063
1618.22,0.30118
1595.07,0.21446
1571.93,0.30766
1548.78,0.29652
1525.64,0.31165
1502.49,0.23726
1479.35,0.26100
1456.2,0.14987
1433.06,0.25575
1409.91,0.30937
1386.77,0.25468
1363.62,0.23188
1340.48,0.25413
1317.33,0.24939
1294.19,0.26195
1271.04,0.29119
1247.9,0.29869
1224.75,0.29504
1201.61,0.26466
1178.46,0.24410
1155.32,0.24267
1132.17,0.32023
1109.03,0.29447
1085.88,0.26937
1062.74,0.24441
1039.59,0.27298
1016.45,0.25367
993.304,0.29107
970.159,0.27392
947.014,0.28655
923.869,0.30446
900.724,0.25895
877.579,0.33118
854.434,0.32479
831.289,0.32057
808.144,0.31780
784.999,0.23317
761.854,0.12943
738.709,0.21506
715.565,0.21941
692.42,0.25172
669.275,0.32148
646.13,0.35852
622.985,0.31169
599.84,0.31406

File: XPS_Foam_Board_IS_S_220929_R4.dpt
7497.03,0.38432
7473.89,0.38791
7450.74,0.38958
7427.6,0.39684
7404.45,0.38752
7381.31,0.39370
7358.16,0.39752
7335.02,0.38717
7311.87,0.39331
7288.73,0.38886
7265.58,0.39528
7242.44,0.40081
7219.29,0.38749
7196.15,0.39007
7173,0.39373
7149.86,0.38591
7126.71,0.39325
7103.57,0.39067
7080.42,0.38926
7057.28,0.38996
7034.13,0.38951
7010.99,0.39419
6987.84,0.38970
6964.7,0.38865
6941.55,0.38775
6918.41,0.39030
6895.26,0.39525
6872.12,0.39628
6848.97,0.38988
6825.83,0.38921
6802.68,0.39099
6779.54,0.39152
6756.39,0.39037
6733.25,0.38536
6710.1,0.38993
6686.96,0.38924
6663.82,0.39175
6640.67,0.39421
6617.53,0.39048
6594.38,0.38703
6571.24,0.38772
6548.09,0.39148
6524.95,0.38688
6501.8,0.38746
6478.66,0.39157
6455.51,0.38958
6432.37,0.38970
6409.22,0.39034
6386.08,0.38946
6362.93,0.39212
6339.79,0.38675
6316.64,0.38928
6293.5,0.39216
6270.35,0.38745
6247.21,0.39018
6224.06,0.38787
6200.92,0.38848
6177.77,0.38163
6154.63,0.38544
6131.48,0.38657
6108.34,0.38073
6085.19,0.38597
6062.05,0.38287
6038.9,0.38270
6015.76,0.37634
5992.61,0.36913
5969.47,0.35841
5946.32,0.35739
5923.18,0.35996
5900.03,0.36185
5876.89,0.37147
5853.74,0.37509
5830.6,0.37875
5807.45,0.38092
5784.31,0.38013
5761.16,0.38336
5738.02,0.38619
5714.87,0.38329
5691.73,0.38307
5668.58,0.38144
5645.44,0.38091
5622.29,0.38452
5599.15,0.38457
5576,0.38374
5552.86,0.38483
5529.71,0.38428
5506.57,0.38538
5483.42,0.38580
5460.28,0.38555
5437.13,0.38539
5413.99,0.38598
5390.84,0.38455
5367.7,0.38561
5344.55,0.38660
5321.41,0.38595
5298.26,0.38549
5275.12,0.38530
5251.97,0.38814
5228.83,0.38502
5205.68,0.38544
5182.54,0.38801
5159.39,0.38631
5136.25,0.38662
5113.1,0.38691
5089.96,0.38650
5066.81,0.38702
5043.67,0.38692
5020.52,0.38809
4997.38,0.38815
4974.23,0.38784
4951.09,0.38710
4927.94,0.38812
4904.8,0.38788
4881.65,0.38784
4858.51,0.38766
4835.36,0.38622
4812.22,0.38645
4789.07,0.38695
4765.93,0.38610
4742.78,0.38544
4719.64,0.38344
4696.49,0.38010
4673.35,0.35986
4650.2,0.36049
4627.06,0.35350
4603.92,0.35034
4580.77,0.36609
4557.63,0.37064
4534.48,0.37853
4511.34,0.37862
4488.19,0.38080
4465.05,0.38219
4441.9,0.38058
4418.76,0.37968
4395.61,0.37754
4372.47,0.37092
4349.32,0.36250
4326.18,0.35968
4303.03,0.36836
4279.89,0.36157
4256.74,0.34932
4233.6,0.34962
4210.45,0.35095
4187.31,0.35754
4164.16,0.36142
4141.02,0.36141
4117.87,0.35506
4094.73,0.34951
4071.58,0.32713
4048.44,0.30843
4025.29,0.32349
4002.15,0.35143
3979,0.35960
3955.86,0.36206
3932.71,0.36165
3909.57,0.36417
3886.42,0.36632
3863.28,0.36607
3840.13,0.36529
3816.99,0.36187
3793.84,0.36356
3770.7,0.36657
3747.55,0.36909
3724.41,0.36562
3701.26,0.36297
3678.12,0.36412
3654.97,0.35562
3631.83,0.36165
3608.68,0.36418
3585.54,0.36739
3562.39,0.36586
3539.25,0.36422
3516.1,0.36180
3492.96,0.35870
3469.81,0.35565
3446.67,0.35293
3423.52,0.35635
3400.38,0.35751
3377.23,0.35766
3354.09,0.35769
3330.94,0.35868
3307.8,0.35874
3284.65,0.35778
3261.51,0.35648
3238.36,0.35560
3215.22,0.35298
3192.07,0.34722
3168.93,0.33801
3145.78,0.33631
3122.64,0.31884
3099.49,0.23570
3076.35,0.18861
3053.2,0.17818
3030.06,0.13183
3006.91,0.21774
2983.77,0.26673
2960.62,0.22224
2937.48,0.13646
2914.33,0.13002
2891.19,0.19028
2868.04,0.21897
2844.9,0.18746
2821.75,0.30718
2798.61,0.32209
2775.46,0.33065
2752.32,0.34202
2729.17,0.33852
2706.03,0.33861
2682.88,0.33769
2659.74,0.33936
2636.59,0.33409
2613.45,0.34076
2590.3,0.34266
2567.16,0.34498
2544.02,0.34344
2520.87,0.34370
2497.73,0.34601
2474.58,0.35191
2451.44,0.35501
2428.29,0.35817
2405.15,0.35709
2382,0.35503
2358.86,0.34959
2335.71,0.33379
2312.57,0.34321
2289.42,0.35529
2266.28,0.35695
2243.13,0.35806
2219.99,0.36082
2196.84,0.36314
2173.7,0.36412
2150.55,0.36534
2127.41,0.36735
2104.26,0.36807
2081.12,0.36901
2057.97,0.36778
2034.83,0.36617
2011.68,0.36246
1988.54,0.34747
1965.39,0.30797
1942.25,0.26425
1919.1,0.33786
1895.96,0.32230
1872.81,0.28015
1849.67,0.34026
1826.52,0.32617
1803.38,0.27642
1780.23,0.33339
1757.09,0.31003
1733.94,0.29901
1710.8,0.33486
1687.65,0.32367
1664.51,0.30598
1641.36,0.33066
1618.22,0.30116
1595.07,0.21431
1571.93,0.30782
1548.78,0.29595
1525.64,0.31182
1502.49,0.23693
1479.35,0.26080
1456.2,0.14989
1433.06,0.25566
1409.91,0.30899
1386.77,0.25443
1363.62,0.23143
1340.48,0.25402
1317.33,0.24889
1294.19,0.26221
1271.04,0.29088
1247.9,0.29845
1224.75,0.29556
1201.61,0.26461
1178.46,0.24371
1155.32,0.24208
1132.17,0.31990
1109.03,0.29426
1085.88,0.26965
1062.74,0.24477
1039.59,0.27336
1016.45,0.25392
993.304,0.29105
970.159,0.27363
947.014,0.28626
923.869,0.30436
900.724,0.25907
877.579,0.33094
854.434,0.32453
831.289,0.32017
808.144,0.31783
784.999,0.23232
761.854,0.12985
738.709,0.21502
715.565,0.21885
692.42,0.25123
669.275,0.32133
646.13,0.35951
622.985,0.30988
599.84,0.31384