Folder: fsri_materials_database/01_Data/XPS_Foam_Board/FTIR/IS (part 2)

File: XPS_Foam_Board_IS_S_220929_R5.dpt
7497.03,0.39338
7473.89,0.38938
7450.74,0.39035
7427.6,0.39412
7404.45,0.38916
7381.31,0.38908
7358.16,0.39006
7335.02,0.39319
7311.87,0.40080
7288.73,0.39042
7265.58,0.38737
7242.44,0.39749
7219.29,0.38431
7196.15,0.39125
7173,0.38276
7149.86,0.39153
7126.71,0.39448
7103.57,0.39105
7080.42,0.38523
7057.28,0.38447
7034.13,0.38805
7010.99,0.38092
6987.84,0.39169
6964.7,0.39469
6941.55,0.39129
6918.41,0.39104
6895.26,0.39269
6872.12,0.38923
6848.97,0.38842
6825.83,0.39243
6802.68,0.39369
6779.54,0.38976
6756.39,0.39395
6733.25,0.39024
6710.1,0.39497
6686.96,0.39291
6663.82,0.38655
6640.67,0.39340
6617.53,0.39069
6594.38,0.39450
6571.24,0.38970
6548.09,0.39233
6524.95,0.39268
6501.8,0.39285
6478.66,0.39244
6455.51,0.39116
6432.37,0.39411
6409.22,0.39220
6386.08,0.38893
6362.93,0.39156
6339.79,0.39253
6316.64,0.38641
6293.5,0.38722
6270.35,0.38797
6247.21,0.39092
6224.06,0.38986
6200.92,0.38931
6177.77,0.38730
6154.63,0.38376
6131.48,0.38600
6108.34,0.38208
6085.19,0.38222
6062.05,0.38463
6038.9,0.38355
6015.76,0.37687
5992.61,0.36767
5969.47,0.35776
5946.32,0.35834
5923.18,0.35992
5900.03,0.36490
5876.89,0.37575
5853.74,0.37592
5830.6,0.37824
5807.45,0.37961
5784.31,0.37972
5761.16,0.38422
5738.02,0.38300
5714.87,0.38531
5691.73,0.38136
5668.58,0.38064
5645.44,0.38376
5622.29,0.38662
5599.15,0.38418
5576,0.38442
5552.86,0.38555
5529.71,0.38519
5506.57,0.38338
5483.42,0.38757
5460.28,0.38656
5437.13,0.38488
5413.99,0.38591
5390.84,0.38766
5367.7,0.38529
5344.55,0.38839
5321.41,0.38590
5298.26,0.38792
5275.12,0.38576
5251.97,0.38715
5228.83,0.38706
5205.68,0.38644
5182.54,0.38834
5159.39,0.38892
5136.25,0.38787
5113.1,0.38826
5089.96,0.38904
5066.81,0.38642
5043.67,0.38820
5020.52,0.38825
4997.38,0.38800
4974.23,0.38765
4951.09,0.38834
4927.94,0.38830
4904.8,0.38942
4881.65,0.38745
4858.51,0.38619
4835.36,0.38664
4812.22,0.38795
4789.07,0.38630
4765.93,0.38666
4742.78,0.38656
4719.64,0.38406
4696.49,0.38120
4673.35,0.35961
4650.2,0.36066
4627.06,0.35441
4603.92,0.35134
4580.77,0.36691
4557.63,0.37184
4534.48,0.37894
4511.34,0.37955
4488.19,0.38103
4465.05,0.38152
4441.9,0.38094
4418.76,0.38043
4395.61,0.37709
4372.47,0.37159
4349.32,0.36248
4326.18,0.36135
4303.03,0.36916
4279.89,0.36173
4256.74,0.34918
4233.6,0.35028
4210.45,0.35156
4187.31,0.35873
4164.16,0.36236
4141.02,0.36098
4117.87,0.35557
4094.73,0.34976
4071.58,0.32708
4048.44,0.30994
4025.29,0.32419
4002.15,0.35240
3979,0.36114
3955.86,0.36346
3932.71,0.36213
3909.57,0.36506
3886.42,0.36620
3863.28,0.36657
3840.13,0.36542
3816.99,0.36317
3793.84,0.36398
3770.7,0.36764
3747.55,0.36997
3724.41,0.36633
3701.26,0.36411
3678.12,0.36551
3654.97,0.35625
3631.83,0.36234
3608.68,0.36485
3585.54,0.36743
3562.39,0.36709
3539.25,0.36432
3516.1,0.36246
3492.96,0.35923
3469.81,0.35626
3446.67,0.35426
3423.52,0.35698
3400.38,0.35792
3377.23,0.35839
3354.09,0.35882
3330.94,0.35903
3307.8,0.35830
3284.65,0.35872
3261.51,0.35654
3238.36,0.35706
3215.22,0.35414
3192.07,0.34743
3168.93,0.33846
3145.78,0.33654
3122.64,0.31961
3099.49,0.23682
3076.35,0.18916
3053.2,0.17818
3030.06,0.13228
3006.91,0.21838
2983.77,0.26669
2960.62,0.22267
2937.48,0.13650
2914.33,0.13042
2891.19,0.18994
2868.04,0.21975
2844.9,0.18672
2821.75,0.30780
2798.61,0.32249
2775.46,0.33172
2752.32,0.34286
2729.17,0.33902
2706.03,0.33864
2682.88,0.33830
2659.74,0.33936
2636.59,0.33463
2613.45,0.34093
2590.3,0.34301
2567.16,0.34484
2544.02,0.34404
2520.87,0.34478
2497.73,0.34637
2474.58,0.35238
2451.44,0.35582
2428.29,0.35841
2405.15,0.35743
2382,0.35591
2358.86,0.35001
2335.71,0.33402
2312.57,0.34362
2289.42,0.35626
2266.28,0.35797
2243.13,0.35904
2219.99,0.36171
2196.84,0.36371
2173.7,0.36516
2150.55,0.36585
2127.41,0.36792
2104.26,0.36847
2081.12,0.36944
2057.97,0.36811
2034.83,0.36672
2011.68,0.36324
1988.54,0.34766
1965.39,0.30870
1942.25,0.26505
1919.1,0.33865
1895.96,0.32298
1872.81,0.28020
1849.67,0.34102
1826.52,0.32700
1803.38,0.27702
1780.23,0.33403
1757.09,0.31062
1733.94,0.30016
1710.8,0.33515
1687.65,0.32389
1664.51,0.30613
1641.36,0.33140
1618.22,0.30133
1595.07,0.21479
1571.93,0.30811
1548.78,0.29711
1525.64,0.31215
1502.49,0.23717
1479.35,0.26129
1456.2,0.15047
1433.06,0.25609
1409.91,0.30934
1386.77,0.25489
1363.62,0.23189
1340.48,0.25446
1317.33,0.24955
1294.19,0.26279
1271.04,0.29129
1247.9,0.29935
1224.75,0.29565
1201.61,0.26542
1178.46,0.24451
1155.32,0.24263
1132.17,0.32029
1109.03,0.29511
1085.88,0.27022
1062.74,0.24493
1039.59,0.27295
1016.45,0.25348
993.304,0.29180
970.159,0.27479
947.014,0.28643
923.869,0.30505
900.724,0.25943
877.579,0.33166
854.434,0.32489
831.289,0.32087
808.144,0.31834
784.999,0.23309
761.854,0.12970
738.709,0.21503
715.565,0.21840
692.42,0.25211
669.275,0.32023
646.13,0.36033
622.985,0.31000
599.84,0.31539

File: XPS_Foam_Board_IS_S_220929_R6.dpt
7497.03,0.39279
7473.89,0.38819
7450.74,0.39558
7427.6,0.39457
7404.45,0.39331
7381.31,0.39626
7358.16,0.39353
7335.02,0.38970
7311.87,0.39132
7288.73,0.38436
7265.58,0.39258
7242.44,0.39407
7219.29,0.39231
7196.15,0.39485
7173,0.38880
7149.86,0.39193
7126.71,0.39282
7103.57,0.39170
7080.42,0.39375
7057.28,0.39099
7034.13,0.38850
7010.99,0.39216
6987.84,0.38770
6964.7,0.38854
6941.55,0.38855
6918.41,0.39095
6895.26,0.39199
6872.12,0.39090
6848.97,0.38546
6825.83,0.39400
6802.68,0.39204
6779.54,0.39107
6756.39,0.39048
6733.25,0.39367
6710.1,0.39465
6686.96,0.39040
6663.82,0.39696
6640.67,0.38830
6617.53,0.38987
6594.38,0.39176
6571.24,0.38880
6548.09,0.38783
6524.95,0.39418
6501.8,0.39102
6478.66,0.39434
6455.51,0.39002
6432.37,0.39032
6409.22,0.39338
6386.08,0.39348
6362.93,0.38875
6339.79,0.38806
6316.64,0.39084
6293.5,0.39200
6270.35,0.39223
6247.21,0.39169
6224.06,0.38762
6200.92,0.39125
6177.77,0.38975
6154.63,0.38747
6131.48,0.38643
6108.34,0.38291
6085.19,0.38195
6062.05,0.38233
6038.9,0.38559
6015.76,0.37553
5992.61,0.36693
5969.47,0.35624
5946.32,0.35866
5923.18,0.36114
5900.03,0.36709
5876.89,0.37356
5853.74,0.37541
5830.6,0.37763
5807.45,0.37856
5784.31,0.37860
5761.16,0.38252
5738.02,0.38384
5714.87,0.38296
5691.73,0.38044
5668.58,0.38131
5645.44,0.38374
5622.29,0.38322
5599.15,0.38439
5576,0.38593
5552.86,0.38366
5529.71,0.38435
5506.57,0.38318
5483.42,0.38483
5460.28,0.38693
5437.13,0.38515
5413.99,0.38516
5390.84,0.38529
5367.7,0.38468
5344.55,0.38521
5321.41,0.38543
5298.26,0.38598
5275.12,0.38556
5251.97,0.38430
5228.83,0.38692
5205.68,0.38744
5182.54,0.38694
5159.39,0.38724
5136.25,0.38807
5113.1,0.38652
5089.96,0.38749
5066.81,0.38659
5043.67,0.38778
5020.52,0.38729
4997.38,0.38641
4974.23,0.38794
4951.09,0.38764
4927.94,0.38841
4904.8,0.38868
4881.65,0.38775
4858.51,0.38727
4835.36,0.38700
4812.22,0.38600
4789.07,0.38679
4765.93,0.38565
4742.78,0.38654
4719.64,0.38476
4696.49,0.38101
4673.35,0.35894
4650.2,0.36048
4627.06,0.35378
4603.92,0.35243
4580.77,0.36573
4557.63,0.37098
4534.48,0.37773
4511.34,0.37862
4488.19,0.38091
4465.05,0.38223
4441.9,0.37998
4418.76,0.38006
4395.61,0.37674
4372.47,0.37024
4349.32,0.36193
4326.18,0.36034
4303.03,0.36877
4279.89,0.36142
4256.74,0.34924
4233.6,0.35074
4210.45,0.35096
4187.31,0.35694
4164.16,0.36100
4141.02,0.36123
4117.87,0.35515
4094.73,0.34924
4071.58,0.32618
4048.44,0.30871
4025.29,0.32291
4002.15,0.35076
3979,0.35917
3955.86,0.36259
3932.71,0.36194
3909.57,0.36392
3886.42,0.36557
3863.28,0.36568
3840.13,0.36508
3816.99,0.36220
3793.84,0.36339
3770.7,0.36633
3747.55,0.36902
3724.41,0.36595
3701.26,0.36333
3678.12,0.36383
3654.97,0.35573
3631.83,0.36210
3608.68,0.36376
3585.54,0.36645
3562.39,0.36666
3539.25,0.36433
3516.1,0.36215
3492.96,0.35823
3469.81,0.35599
3446.67,0.35323
3423.52,0.35678
3400.38,0.35783
3377.23,0.35799
3354.09,0.35891
3330.94,0.35850
3307.8,0.35859
3284.65,0.35787
3261.51,0.35677
3238.36,0.35580
3215.22,0.35297
3192.07,0.34661
3168.93,0.33803
3145.78,0.33635
3122.64,0.31874
3099.49,0.23573
3076.35,0.18883
3053.2,0.17833
3030.06,0.13204
3006.91,0.21784
2983.77,0.26662
2960.62,0.22274
2937.48,0.13694
2914.33,0.12991
2891.19,0.19006
2868.04,0.21891
2844.9,0.18692
2821.75,0.30707
2798.61,0.32166
2775.46,0.33087
2752.32,0.34207
2729.17,0.33897
2706.03,0.33850
2682.88,0.33763
2659.74,0.33916
2636.59,0.33426
2613.45,0.34054
2590.3,0.34228
2567.16,0.34452
2544.02,0.34330
2520.87,0.34410
2497.73,0.34556
2474.58,0.35187
2451.44,0.35516
2428.29,0.35785
2405.15,0.35685
2382,0.35502
2358.86,0.34911
2335.71,0.33342
2312.57,0.34271
2289.42,0.35550
2266.28,0.35697
2243.13,0.35833
2219.99,0.36074
2196.84,0.36278
2173.7,0.36410
2150.55,0.36520
2127.41,0.36725
2104.26,0.36804
2081.12,0.36842
2057.97,0.36758
2034.83,0.36593
2011.68,0.36253
1988.54,0.34726
1965.39,0.30799
1942.25,0.26434
1919.1,0.33768
1895.96,0.32178
1872.81,0.27973
1849.67,0.34042
1826.52,0.32621
1803.38,0.27625
1780.23,0.33360
1757.09,0.30993
1733.94,0.29973
1710.8,0.33434
1687.65,0.32341
1664.51,0.30627
1641.36,0.33060
1618.22,0.30148
1595.07,0.21434
1571.93,0.30779
1548.78,0.29631
1525.64,0.31130
1502.49,0.23679
1479.35,0.26094
1456.2,0.15067
1433.06,0.25528
1409.91,0.30886
1386.77,0.25469
1363.62,0.23139
1340.48,0.25383
1317.33,0.24901
1294.19,0.26205
1271.04,0.29065
1247.9,0.29854
1224.75,0.29552
1201.61,0.26487
1178.46,0.24453
1155.32,0.24250
1132.17,0.31985
1109.03,0.29387
1085.88,0.26987
1062.74,0.24525
1039.59,0.27332
1016.45,0.25364
993.304,0.29120
970.159,0.27410
947.014,0.28600
923.869,0.30501
900.724,0.25918
877.579,0.33113
854.434,0.32497
831.289,0.32084
808.144,0.31737
784.999,0.23197
761.854,0.12947
738.709,0.21513
715.565,0.21844
692.42,0.25215
669.275,0.32257
646.13,0.36009
622.985,0.31216
599.84,0.31343

File: XPS_Foam_Board_IS_S_220929_R7.dpt
7497.03,0.39078
7473.89,0.40060
7450.74,0.38723
7427.6,0.38573
7404.45,0.39280
7381.31,0.39154
7358.16,0.39346
7335.02,0.38946
7311.87,0.39792
7288.73,0.38999
7265.58,0.38630
7242.44,0.39364
7219.29,0.39184
7196.15,0.40178
7173,0.39279
7149.86,0.39025
7126.71,0.39163
7103.57,0.39929
7080.42,0.39361
7057.28,0.39495
7034.13,0.39847
7010.99,0.39647
6987.84,0.39111
6964.7,0.39159
6941.55,0.38464
6918.41,0.39037
6895.26,0.38740
6872.12,0.39085
6848.97,0.38925
6825.83,0.38980
6802.68,0.39049
6779.54,0.39185
6756.39,0.39313
6733.25,0.39243
6710.1,0.39262
6686.96,0.39142
6663.82,0.39201
6640.67,0.39010
6617.53,0.39100
6594.38,0.39170
6571.24,0.39053
6548.09,0.39265
6524.95,0.39238
6501.8,0.39156
6478.66,0.38996
6455.51,0.39005
6432.37,0.39091
6409.22,0.39132
6386.08,0.39181
6362.93,0.39403
6339.79,0.38625
6316.64,0.39125
6293.5,0.38551
6270.35,0.38872
6247.21,0.39099
6224.06,0.38572
6200.92,0.38809
6177.77,0.38559
6154.63,0.38058
6131.48,0.38603
6108.34,0.38268
6085.19,0.38234
6062.05,0.38114
6038.9,0.38161
6015.76,0.37644
5992.61,0.37078
5969.47,0.35783
5946.32,0.35605
5923.18,0.35978
5900.03,0.36570
5876.89,0.37295
5853.74,0.37862
5830.6,0.37987
5807.45,0.37763
5784.31,0.37816
5761.16,0.38286
5738.02,0.38294
5714.87,0.38241
5691.73,0.38200
5668.58,0.38036
5645.44,0.38467
5622.29,0.38516
5599.15,0.38558
5576,0.38507
5552.86,0.38400
5529.71,0.38527
5506.57,0.38519
5483.42,0.38354
5460.28,0.38624
5437.13,0.38564
5413.99,0.38475
5390.84,0.38596
5367.7,0.38494
5344.55,0.38442
5321.41,0.38581
5298.26,0.38539
5275.12,0.38736
5251.97,0.38677
5228.83,0.38681
5205.68,0.38850
5182.54,0.38765
5159.39,0.38695
5136.25,0.38746
5113.1,0.38763
5089.96,0.38786
5066.81,0.38793
5043.67,0.38810
5020.52,0.38712
4997.38,0.38790
4974.23,0.38720
4951.09,0.38874
4927.94,0.38820
4904.8,0.38813
4881.65,0.38738
4858.51,0.38814
4835.36,0.38664
4812.22,0.38722
4789.07,0.38840
4765.93,0.38598
4742.78,0.38610
4719.64,0.38403
4696.49,0.38045
4673.35,0.36040
4650.2,0.36094
4627.06,0.35372
4603.92,0.35083
4580.77,0.36693
4557.63,0.37131
4534.48,0.37939
4511.34,0.37877
4488.19,0.38033
4465.05,0.38155
4441.9,0.37983
4418.76,0.38008
4395.61,0.37676
4372.47,0.37097
4349.32,0.36249
4326.18,0.36071
4303.03,0.36946
4279.89,0.36171
4256.74,0.34958
4233.6,0.35037
4210.45,0.35104
4187.31,0.35790
4164.16,0.36182
4141.02,0.36157
4117.87,0.35609
4094.73,0.34947
4071.58,0.32723
4048.44,0.30859
4025.29,0.32348
4002.15,0.35186
3979,0.36007
3955.86,0.36277
3932.71,0.36138
3909.57,0.36470
3886.42,0.36617
3863.28,0.36602
3840.13,0.36493
3816.99,0.36246
3793.84,0.36371
3770.7,0.36640
3747.55,0.36850
3724.41,0.36589
3701.26,0.36325
3678.12,0.36419
3654.97,0.35569
3631.83,0.36215
3608.68,0.36540
3585.54,0.36778
3562.39,0.36669
3539.25,0.36445
3516.1,0.36163
3492.96,0.35956
3469.81,0.35563
3446.67,0.35336
3423.52,0.35639
3400.38,0.35751
3377.23,0.35794
3354.09,0.35929
3330.94,0.35839
3307.8,0.35925
3284.65,0.35703
3261.51,0.35702
3238.36,0.35634
3215.22,0.35296
3192.07,0.34758
3168.93,0.33827
3145.78,0.33571
3122.64,0.31885
3099.49,0.23516
3076.35,0.18856
3053.2,0.17852
3030.06,0.13237
3006.91,0.21814
2983.77,0.26679
2960.62,0.22272
2937.48,0.13672
2914.33,0.13012
2891.19,0.18990
2868.04,0.21961
2844.9,0.18724
2821.75,0.30715
2798.61,0.32216
2775.46,0.33113
2752.32,0.34250
2729.17,0.33860
2706.03,0.33863
2682.88,0.33777
2659.74,0.33913
2636.59,0.33477
2613.45,0.34080
2590.3,0.34293
2567.16,0.34463
2544.02,0.34358
2520.87,0.34414
2497.73,0.34580
2474.58,0.35159
2451.44,0.35592
2428.29,0.35811
2405.15,0.35688
2382,0.35519
2358.86,0.34961
2335.71,0.33358
2312.57,0.34321
2289.42,0.35585
2266.28,0.35732
2243.13,0.35838
2219.99,0.36095
2196.84,0.36336
2173.7,0.36422
2150.55,0.36553
2127.41,0.36742
2104.26,0.36852
2081.12,0.36910
2057.97,0.36772
2034.83,0.36643
2011.68,0.36259
1988.54,0.34731
1965.39,0.30784
1942.25,0.26426
1919.1,0.33816
1895.96,0.32232
1872.81,0.27984
1849.67,0.34065
1826.52,0.32629
1803.38,0.27646
1780.23,0.33389
1757.09,0.31018
1733.94,0.29944
1710.8,0.33460
1687.65,0.32339
1664.51,0.30621
1641.36,0.33049
1618.22,0.30119
1595.07,0.21438
1571.93,0.30808
1548.78,0.29646
1525.64,0.31189
1502.49,0.23696
1479.35,0.26083
1456.2,0.15052
1433.06,0.25571
1409.91,0.30899
1386.77,0.25470
1363.62,0.23152
1340.48,0.25437
1317.33,0.24902
1294.19,0.26212
1271.04,0.29093
1247.9,0.29905
1224.75,0.29575
1201.61,0.26513
1178.46,0.24433
1155.32,0.24289
1132.17,0.31976
1109.03,0.29437
1085.88,0.27012
1062.74,0.24540
1039.59,0.27353
1016.45,0.25340
993.304,0.29178
970.159,0.27441
947.014,0.28602
923.869,0.30487
900.724,0.25907
877.579,0.33093
854.434,0.32474
831.289,0.32074
808.144,0.31804
784.999,0.23272
761.854,0.12986
738.709,0.21475
715.565,0.21872
692.42,0.25272
669.275,0.31960
646.13,0.36027
622.985,0.31114
599.84,0.31521

File: XPS_Foam_Board_IS_S_220929_R8.dpt
7497.03,0.39818
7473.89,0.39317
7450.74,0.39217
7427.6,0.39189
7404.45,0.39677
7381.31,0.39256
7358.16,0.38953
7335.02,0.39481
7311.87,0.39908
7288.73,0.39398
7265.58,0.39366
7242.44,0.38580
7219.29,0.38968
7196.15,0.39337
7173,0.39158
7149.86,0.39073
7126.71,0.39141
7103.57,0.38895
7080.42,0.38658
7057.28,0.39002
7034.13,0.38642
7010.99,0.39419
6987.84,0.39175
6964.7,0.39001
6941.55,0.39308
6918.41,0.38908
6895.26,0.39418
6872.12,0.39186
6848.97,0.39344
6825.83,0.39333
6802.68,0.39038
6779.54,0.39125
6756.39,0.39225
6733.25,0.38978
6710.1,0.39165
6686.96,0.39274
6663.82,0.39124
6640.67,0.39428
6617.53,0.39211
6594.38,0.39348
6571.24,0.39193
6548.09,0.39289
6524.95,0.38902
6501.8,0.39142
6478.66,0.39201
6455.51,0.39089
6432.37,0.39097
6409.22,0.39262
6386.08,0.39445
6362.93,0.39007
6339.79,0.38597
6316.64,0.38980
6293.5,0.38856
6270.35,0.39020
6247.21,0.38856
6224.06,0.39088
6200.92,0.38819
6177.77,0.38707
6154.63,0.38489
6131.48,0.38463
6108.34,0.38296
6085.19,0.38137
6062.05,0.38215
6038.9,0.38579
6015.76,0.37774
5992.61,0.36927
5969.47,0.35863
5946.32,0.35655
5923.18,0.36492
5900.03,0.36403
5876.89,0.37438
5853.74,0.37628
5830.6,0.38093
5807.45,0.37794
5784.31,0.38039
5761.16,0.38462
5738.02,0.38248
5714.87,0.38367
5691.73,0.38359
5668.58,0.38048
5645.44,0.38404
5622.29,0.38391
5599.15,0.38389
5576,0.38392
5552.86,0.38499
5529.71,0.38273
5506.57,0.38492
5483.42,0.38606
5460.28,0.38613
5437.13,0.38570
5413.99,0.38516
5390.84,0.38633
5367.7,0.38579
5344.55,0.38726
5321.41,0.38679
5298.26,0.38643
5275.12,0.38794
5251.97,0.38712
5228.83,0.38678
5205.68,0.38735
5182.54,0.38770
5159.39,0.38688
5136.25,0.38749
5113.1,0.38652
5089.96,0.38849
5066.81,0.38823
5043.67,0.38767
5020.52,0.38765
4997.38,0.38742
4974.23,0.38808
4951.09,0.38796
4927.94,0.38750
4904.8,0.38758
4881.65,0.38902
4858.51,0.38858
4835.36,0.38738
4812.22,0.38785
4789.07,0.38737
4765.93,0.38737
4742.78,0.38621
4719.64,0.38515
4696.49,0.38112
4673.35,0.36026
4650.2,0.36157
4627.06,0.35327
4603.92,0.35156
4580.77,0.36775
4557.63,0.37250
4534.48,0.37895
4511.34,0.37945
4488.19,0.38222
4465.05,0.38244
4441.9,0.38029
4418.76,0.38033
4395.61,0.37755
4372.47,0.37118
4349.32,0.36289
4326.18,0.36069
4303.03,0.36979
4279.89,0.36197
4256.74,0.34912
4233.6,0.35137
4210.45,0.35137
4187.31,0.35838
4164.16,0.36183
4141.02,0.36205
4117.87,0.35533
4094.73,0.34994
4071.58,0.32708
4048.44,0.30887
4025.29,0.32336
4002.15,0.35169
3979,0.35998
3955.86,0.36250
3932.71,0.36250
3909.57,0.36396
3886.42,0.36630
3863.28,0.36671
3840.13,0.36575
3816.99,0.36263
3793.84,0.36399
3770.7,0.36689
3747.55,0.37039
3724.41,0.36587
3701.26,0.36414
3678.12,0.36506
3654.97,0.35637
3631.83,0.36251
3608.68,0.36527
3585.54,0.36770
3562.39,0.36704
3539.25,0.36494
3516.1,0.36234
3492.96,0.35938
3469.81,0.35637
3446.67,0.35406
3423.52,0.35654
3400.38,0.35764
3377.23,0.35814
3354.09,0.35954
3330.94,0.35837
3307.8,0.35929
3284.65,0.35796
3261.51,0.35696
3238.36,0.35649
3215.22,0.35337
3192.07,0.34847
3168.93,0.33819
3145.78,0.33626
3122.64,0.31967
3099.49,0.23574
3076.35,0.18857
3053.2,0.17868
3030.06,0.13250
3006.91,0.21854
2983.77,0.26653
2960.62,0.22307
2937.48,0.13691
2914.33,0.12981
2891.19,0.19046
2868.04,0.21912
2844.9,0.18735
2821.75,0.30769
2798.61,0.32213
2775.46,0.33147
2752.32,0.34238
2729.17,0.33906
2706.03,0.33866
2682.88,0.33783
2659.74,0.33975
2636.59,0.33399
2613.45,0.34135
2590.3,0.34260
2567.16,0.34532
2544.02,0.34350
2520.87,0.34423
2497.73,0.34581
2474.58,0.35202
2451.44,0.35559
2428.29,0.35858
2405.15,0.35685
2382,0.35559
2358.86,0.35052
2335.71,0.33486
2312.57,0.34353
2289.42,0.35599
2266.28,0.35749
2243.13,0.35845
2219.99,0.36131
2196.84,0.36348
2173.7,0.36472
2150.55,0.36610
2127.41,0.36744
2104.26,0.36862
2081.12,0.36921
2057.97,0.36803
2034.83,0.36628
2011.68,0.36271
1988.54,0.34770
1965.39,0.30808
1942.25,0.26457
1919.1,0.33814
1895.96,0.32241
1872.81,0.28015
1849.67,0.34082
1826.52,0.32641
1803.38,0.27660
1780.23,0.33400
1757.09,0.31022
1733.94,0.29999
1710.8,0.33484
1687.65,0.32334
1664.51,0.30634
1641.36,0.33080
1618.22,0.30162
1595.07,0.21469
1571.93,0.30859
1548.78,0.29641
1525.64,0.31178
1502.49,0.23721
1479.35,0.26099
1456.2,0.15021
1433.06,0.25544
1409.91,0.30895
1386.77,0.25497
1363.62,0.23188
1340.48,0.25430
1317.33,0.24946
1294.19,0.26235
1271.04,0.29086
1247.9,0.29901
1224.75,0.29600
1201.61,0.26521
1178.46,0.24484
1155.32,0.24241
1132.17,0.32009
1109.03,0.29466
1085.88,0.26978
1062.74,0.24461
1039.59,0.27264
1016.45,0.25373
993.304,0.29114
970.159,0.27463
947.014,0.28664
923.869,0.30480
900.724,0.25940
877.579,0.33140
854.434,0.32385
831.289,0.32078
808.144,0.31789
784.999,0.23317
761.854,0.13003
738.709,0.21534
715.565,0.21939
692.42,0.25145
669.275,0.32053
646.13,0.35926
622.985,0.31254
599.84,0.31424

File: XPS_Foam_Board_IS_T_220929_R7.dpt
7497.03,0.02356
7473.89,0.02084
7450.74,0.02446
7427.6,0.02403
7404.45,0.01977
7381.31,0.02445
7358.16,0.02123
7335.02,0.02354
7311.87,0.02993
7288.73,0.03010
7265.58,0.03542
7242.44,0.03302
7219.29,0.02499
7196.15,0.02758
7173,0.02334
7149.86,0.02629
7126.71,0.02381
7103.57,0.02283
7080.42,0.02512
7057.28,0.03218
7034.13,0.02673
7010.99,0.02575
6987.84,0.02763
6964.7,0.02366
6941.55,0.02580
6918.41,0.02559
6895.26,0.02565
6872.12,0.01635
6848.97,0.02519
6825.83,0.02427
6802.68,0.02092
6779.54,0.02054
6756.39,0.02219
6733.25,0.02318
6710.1,0.01971
6686.96,0.02737
6663.82,0.02215
6640.67,0.02671
6617.53,0.01959
6594.38,0.02371
6571.24,0.02727
6548.09,0.02158
6524.95,0.02329
6501.8,0.02558
6478.66,0.02446
6455.51,0.02279
6432.37,0.02273
6409.22,0.02267
6386.08,0.02321
6362.93,0.02311
6339.79,0.01839
6316.64,0.02216
6293.5,0.02372
6270.35,0.02282
6247.21,0.01876
6224.06,0.02141
6200.92,0.02676
6177.77,0.02376
6154.63,0.02280
6131.48,0.02146
6108.34,0.02097
6085.19,0.02239
6062.05,0.02135
6038.9,0.02025
6015.76,0.02221
5992.61,0.02427
5969.47,0.02271
5946.32,0.02122
5923.18,0.01955
5900.03,0.02065
5876.89,0.02349
5853.74,0.02374
5830.6,0.01924
5807.45,0.02088
5784.31,0.02218
5761.16,0.02304
5738.02,0.02127
5714.87,0.02228
5691.73,0.02180
5668.58,0.02285
5645.44,0.01911
5622.29,0.02176
5599.15,0.02325
5576,0.02137
5552.86,0.02095
5529.71,0.02092
5506.57,0.02221
5483.42,0.02235
5460.28,0.02074
5437.13,0.02226
5413.99,0.02249
5390.84,0.02204
5367.7,0.02091
5344.55,0.02402
5321.41,0.02280
5298.26,0.02107
5275.12,0.02031
5251.97,0.02306
5228.83,0.02174
5205.68,0.02308
5182.54,0.02296
5159.39,0.02213
5136.25,0.02089
5113.1,0.02234
5089.96,0.02180
5066.81,0.02095
5043.67,0.02223
5020.52,0.02197
4997.38,0.02272
4974.23,0.02220
4951.09,0.02257
4927.94,0.02218
4904.8,0.02171
4881.65,0.02192
4858.51,0.02200
4835.36,0.02172
4812.22,0.02276
4789.07,0.02253
4765.93,0.02208
4742.78,0.02167
4719.64,0.02146
4696.49,0.02243
4673.35,0.02252
4650.2,0.02258
4627.06,0.02254
4603.92,0.02165
4580.77,0.02264
4557.63,0.02250
4534.48,0.02253
4511.34,0.02206
4488.19,0.02156
4465.05,0.02215
4441.9,0.02161
4418.76,0.02291
4395.61,0.02191
4372.47,0.02205
4349.32,0.02221
4326.18,0.02325
4303.03,0.02196
4279.89,0.02187
4256.74,0.02268
4233.6,0.02242
4210.45,0.02226
4187.31,0.02262
4164.16,0.02256
4141.02,0.02222
4117.87,0.02204
4094.73,0.02265
4071.58,0.02180
4048.44,0.02244
4025.29,0.02234
4002.15,0.02199
3979,0.02306
3955.86,0.02172
3932.71,0.02213
3909.57,0.02292
3886.42,0.02294
3863.28,0.02278
3840.13,0.02273
3816.99,0.02204
3793.84,0.02245
3770.7,0.02222
3747.55,0.02253
3724.41,0.02197
3701.26,0.02242
3678.12,0.02140
3654.97,0.02211
3631.83,0.02266
3608.68,0.02135
3585.54,0.02165
3562.39,0.02132
3539.25,0.02118
3516.1,0.02130
3492.96,0.02086
3469.81,0.02071
3446.67,0.02091
3423.52,0.02005
3400.38,0.02023
3377.23,0.02039
3354.09,0.01945
3330.94,0.01996
3307.8,0.01987
3284.65,0.01983
3261.51,0.02098
3238.36,0.02091
3215.22,0.02097
3192.07,0.02106
3168.93,0.01994
3145.78,0.02063
3122.64,0.02079
3099.49,0.02025
3076.35,0.02082
3053.2,0.01987
3030.06,0.02040
3006.91,0.02008
2983.77,0.01983
2960.62,0.01966
2937.48,0.01901
2914.33,0.02020
2891.19,0.02060
2868.04,0.02003
2844.9,0.02050
2821.75,0.02110
2798.61,0.02088
2775.46,0.02070
2752.32,0.02062
2729.17,0.02129
2706.03,0.02069
2682.88,0.02102
2659.74,0.02082
2636.59,0.02105
2613.45,0.02124
2590.3,0.02096
2567.16,0.02126
2544.02,0.02068
2520.87,0.02114
2497.73,0.02124
2474.58,0.02069
2451.44,0.02123
2428.29,0.02133
2405.15,0.02166
2382,0.02096
2358.86,0.02096
2335.71,0.02132
2312.57,0.02099
2289.42,0.02105
2266.28,0.02099
2243.13,0.02034
2219.99,0.02099
2196.84,0.02090
2173.7,0.02068
2150.55,0.02081
2127.41,0.02068
2104.26,0.02061
2081.12,0.02078
2057.97,0.02071
2034.83,0.02059
2011.68,0.02025
1988.54,0.02064
1965.39,0.02043
1942.25,0.02068
1919.1,0.02057
1895.96,0.02061
1872.81,0.02053
1849.67,0.02017
1826.52,0.01990
1803.38,0.01957
1780.23,0.01893
1757.09,0.01742
1733.94,0.01961
1710.8,0.02060
1687.65,0.01917
1664.51,0.01840
1641.36,0.01844
1618.22,0.01884
1595.07,0.01891
1571.93,0.01843
1548.78,0.01829
1525.64,0.01886
1502.49,0.01847
1479.35,0.01821
1456.2,0.01843
1433.06,0.01876
1409.91,0.01819
1386.77,0.01790
1363.62,0.01851
1340.48,0.01749
1317.33,0.01696
1294.19,0.01763
1271.04,0.01927
1247.9,0.02005
1224.75,0.01984
1201.61,0.01828
1178.46,0.01826
1155.32,0.01743
1132.17,0.01800
1109.03,0.01877
1085.88,0.01844
1062.74,0.01960
1039.59,0.01963
1016.45,0.01890
993.304,0.02032
970.159,0.02050
947.014,0.02005
923.869,0.01955
900.724,0.01952
877.579,0.01865
854.434,0.01915
831.289,0.01911
808.144,0.01877
784.999,0.01838
761.854,0.01805
738.709,0.01792
715.565,0.01738
692.42,0.01733
669.275,0.01704
646.13,0.01756
622.985,0.01501
599.84,0.01474