Folder: fsri_materials_database/01_Data/Excelsior/FTIR/IS (part 2)

File: Excelsior_IS_S_221109_R5.dpt
7497.03,0.65549
7473.89,0.65063
7450.74,0.64204
7427.6,0.63393
7404.45,0.63401
7381.31,0.62850
7358.16,0.61432
7335.02,0.61426
7311.87,0.61388
7288.73,0.61021
7265.58,0.60795
7242.44,0.60919
7219.29,0.60936
7196.15,0.59922
7173,0.59668
7149.86,0.58546
7126.71,0.57065
7103.57,0.55589
7080.42,0.53814
7057.28,0.52386
7034.13,0.49346
7010.99,0.47790
6987.84,0.46548
6964.7,0.45837
6941.55,0.45534
6918.41,0.45911
6895.26,0.45066
6872.12,0.45379
6848.97,0.45373
6825.83,0.45292
6802.68,0.45701
6779.54,0.44646
6756.39,0.45219
6733.25,0.45303
6710.1,0.45397
6686.96,0.45888
6663.82,0.45827
6640.67,0.45820
6617.53,0.46903
6594.38,0.47363
6571.24,0.47605
6548.09,0.47993
6524.95,0.48021
6501.8,0.48462
6478.66,0.48529
6455.51,0.48246
6432.37,0.48838
6409.22,0.49151
6386.08,0.48913
6362.93,0.49276
6339.79,0.49049
6316.64,0.49561
6293.5,0.50024
6270.35,0.50304
6247.21,0.51250
6224.06,0.51502
6200.92,0.52371
6177.77,0.53431
6154.63,0.54080
6131.48,0.54169
6108.34,0.54208
6085.19,0.54716
6062.05,0.54247
6038.9,0.54255
6015.76,0.53877
5992.61,0.53851
5969.47,0.53112
5946.32,0.52769
5923.18,0.52656
5900.03,0.51749
5876.89,0.51374
5853.74,0.51433
5830.6,0.50723
5807.45,0.49975
5784.31,0.50379
5761.16,0.50863
5738.02,0.51668
5714.87,0.51649
5691.73,0.51554
5668.58,0.51166
5645.44,0.50994
5622.29,0.51136
5599.15,0.51294
5576,0.51464
5552.86,0.51538
5529.71,0.51868
5506.57,0.51941
5483.42,0.51935
5460.28,0.52431
5437.13,0.52988
5413.99,0.53456
5390.84,0.53785
5367.7,0.53674
5344.55,0.53782
5321.41,0.53158
5298.26,0.51256
5275.12,0.48233
5251.97,0.44692
5228.83,0.42417
5205.68,0.41184
5182.54,0.41432
5159.39,0.42241
5136.25,0.43423
5113.1,0.44491
5089.96,0.45472
5066.81,0.46481
5043.67,0.47235
5020.52,0.47563
4997.38,0.47218
4974.23,0.46168
4951.09,0.44366
4927.94,0.42207
4904.8,0.39807
4881.65,0.37897
4858.51,0.36156
4835.36,0.34824
4812.22,0.33829
4789.07,0.33264
4765.93,0.33069
4742.78,0.33177
4719.64,0.33403
4696.49,0.33750
4673.35,0.34635
4650.2,0.35504
4627.06,0.36354
4603.92,0.37322
4580.77,0.37871
4557.63,0.38542
4534.48,0.38814
4511.34,0.38825
4488.19,0.37790
4465.05,0.35344
4441.9,0.32487
4418.76,0.30314
4395.61,0.29589
4372.47,0.30404
4349.32,0.30606
4326.18,0.29833
4303.03,0.29348
4279.89,0.28815
4256.74,0.29095
4233.6,0.29401
4210.45,0.29673
4187.31,0.29921
4164.16,0.30271
4141.02,0.29999
4117.87,0.28939
4094.73,0.27429
4071.58,0.25661
4048.44,0.23968
4025.29,0.22987
4002.15,0.23120
3979,0.23774
3955.86,0.24522
3932.71,0.25419
3909.57,0.26380
3886.42,0.27188
3863.28,0.27977
3840.13,0.29147
3816.99,0.29528
3793.84,0.29610
3770.7,0.29496
3747.55,0.28898
3724.41,0.27622
3701.26,0.25047
3678.12,0.20418
3654.97,0.14706
3631.83,0.10622
3608.68,0.07780
3585.54,0.05729
3562.39,0.04646
3539.25,0.03958
3516.1,0.03529
3492.96,0.03287
3469.81,0.03140
3446.67,0.02932
3423.52,0.02975
3400.38,0.02996
3377.23,0.03090
3354.09,0.03136
3330.94,0.03303
3307.8,0.03476
3284.65,0.03640
3261.51,0.03906
3238.36,0.04418
3215.22,0.04845
3192.07,0.05435
3168.93,0.06024
3145.78,0.06716
3122.64,0.07370
3099.49,0.07973
3076.35,0.08489
3053.2,0.09012
3030.06,0.09153
3006.91,0.08305
2983.77,0.07166
2960.62,0.05563
2937.48,0.04955
2914.33,0.04890
2891.19,0.05187
2868.04,0.05595
2844.9,0.06355
2821.75,0.08427
2798.61,0.09793
2775.46,0.10414
2752.32,0.10803
2729.17,0.11022
2706.03,0.11676
2682.88,0.12451
2659.74,0.12921
2636.59,0.13433
2613.45,0.14076
2590.3,0.14571
2567.16,0.14782
2544.02,0.14902
2520.87,0.15223
2497.73,0.15799
2474.58,0.16442
2451.44,0.17022
2428.29,0.17762
2405.15,0.18727
2382,0.19478
2358.86,0.20248
2335.71,0.20960
2312.57,0.21234
2289.42,0.21051
2266.28,0.20627
2243.13,0.19996
2219.99,0.20194
2196.84,0.20088
2173.7,0.18841
2150.55,0.17845
2127.41,0.17651
2104.26,0.18086
2081.12,0.18566
2057.97,0.18662
2034.83,0.19224
2011.68,0.20391
1988.54,0.21131
1965.39,0.21075
1942.25,0.21404
1919.1,0.22485
1895.96,0.22997
1872.81,0.22736
1849.67,0.21655
1826.52,0.19862
1803.38,0.16968
1780.23,0.12129
1757.09,0.06057
1733.94,0.05474
1710.8,0.06909
1687.65,0.08235
1664.51,0.07411
1641.36,0.07112
1618.22,0.06416
1595.07,0.05034
1571.93,0.08406
1548.78,0.10002
1525.64,0.08297
1502.49,0.05199
1479.35,0.05432
1456.2,0.03970
1433.06,0.03939
1409.91,0.04539
1386.77,0.03819
1363.62,0.03422
1340.48,0.03398
1317.33,0.03450
1294.19,0.03721
1271.04,0.03145
1247.9,0.02923
1224.75,0.03264
1201.61,0.03559
1178.46,0.03006
1155.32,0.03081
1132.17,0.02620
1109.03,0.03073
1085.88,0.03027
1062.74,0.04076
1039.59,0.04458
1016.45,0.04740
993.304,0.05050
970.159,0.06543
947.014,0.08715
923.869,0.08605
900.724,0.07525
877.579,0.08978
854.434,0.09619
831.289,0.09347
808.144,0.09827
784.999,0.09489
761.854,0.08307
738.709,0.07298
715.565,0.06453
692.42,0.06027
669.275,0.05534
646.13,0.05612
622.985,0.05074
599.84,0.05118

File: Excelsior_IS_S_221109_R6.dpt
7497.03,0.65813
7473.89,0.64902
7450.74,0.65147
7427.6,0.63813
7404.45,0.62841
7381.31,0.61897
7358.16,0.61696
7335.02,0.61084
7311.87,0.60841
7288.73,0.60140
7265.58,0.60219
7242.44,0.60356
7219.29,0.59843
7196.15,0.59898
7173,0.59730
7149.86,0.58898
7126.71,0.56864
7103.57,0.55781
7080.42,0.54288
7057.28,0.51034
7034.13,0.49438
7010.99,0.47726
6987.84,0.46588
6964.7,0.45157
6941.55,0.44954
6918.41,0.45280
6895.26,0.45352
6872.12,0.45232
6848.97,0.45580
6825.83,0.45581
6802.68,0.45158
6779.54,0.44762
6756.39,0.45332
6733.25,0.45349
6710.1,0.45850
6686.96,0.45839
6663.82,0.46095
6640.67,0.45639
6617.53,0.46885
6594.38,0.47216
6571.24,0.47552
6548.09,0.47664
6524.95,0.48257
6501.8,0.47557
6478.66,0.48362
6455.51,0.48136
6432.37,0.48664
6409.22,0.48930
6386.08,0.48950
6362.93,0.49170
6339.79,0.49485
6316.64,0.49668
6293.5,0.49948
6270.35,0.50370
6247.21,0.51403
6224.06,0.52063
6200.92,0.53038
6177.77,0.53244
6154.63,0.54074
6131.48,0.54492
6108.34,0.54928
6085.19,0.54780
6062.05,0.55009
6038.9,0.54551
6015.76,0.54063
5992.61,0.53677
5969.47,0.53102
5946.32,0.52799
5923.18,0.52394
5900.03,0.52040
5876.89,0.51557
5853.74,0.51487
5830.6,0.50990
5807.45,0.49985
5784.31,0.50390
5761.16,0.51259
5738.02,0.51598
5714.87,0.51644
5691.73,0.51573
5668.58,0.51486
5645.44,0.51084
5622.29,0.51441
5599.15,0.51622
5576,0.51544
5552.86,0.51965
5529.71,0.52111
5506.57,0.52388
5483.42,0.52365
5460.28,0.52453
5437.13,0.53020
5413.99,0.53529
5390.84,0.53992
5367.7,0.54071
5344.55,0.53954
5321.41,0.53462
5298.26,0.51860
5275.12,0.48770
5251.97,0.44907
5228.83,0.42657
5205.68,0.41738
5182.54,0.41814
5159.39,0.42748
5136.25,0.43857
5113.1,0.44767
5089.96,0.45823
5066.81,0.46666
5043.67,0.47508
5020.52,0.47845
4997.38,0.47469
4974.23,0.46420
4951.09,0.44474
4927.94,0.42132
4904.8,0.39922
4881.65,0.37891
4858.51,0.36266
4835.36,0.34954
4812.22,0.33935
4789.07,0.33364
4765.93,0.33028
4742.78,0.33212
4719.64,0.33467
4696.49,0.34017
4673.35,0.34626
4650.2,0.35587
4627.06,0.36531
4603.92,0.37324
4580.77,0.38072
4557.63,0.38571
4534.48,0.39004
4511.34,0.38909
4488.19,0.37839
4465.05,0.35450
4441.9,0.32443
4418.76,0.30421
4395.61,0.29716
4372.47,0.30410
4349.32,0.30614
4326.18,0.29952
4303.03,0.29335
4279.89,0.28847
4256.74,0.29178
4233.6,0.29433
4210.45,0.29710
4187.31,0.29907
4164.16,0.30314
4141.02,0.30091
4117.87,0.29043
4094.73,0.27514
4071.58,0.25669
4048.44,0.24042
4025.29,0.23099
4002.15,0.23163
3979,0.23698
3955.86,0.24580
3932.71,0.25492
3909.57,0.26433
3886.42,0.27298
3863.28,0.28109
3840.13,0.29157
3816.99,0.29610
3793.84,0.29691
3770.7,0.29569
3747.55,0.29042
3724.41,0.27786
3701.26,0.25209
3678.12,0.20554
3654.97,0.14859
3631.83,0.10742
3608.68,0.07801
3585.54,0.05776
3562.39,0.04650
3539.25,0.03940
3516.1,0.03567
3492.96,0.03279
3469.81,0.03103
3446.67,0.03031
3423.52,0.02945
3400.38,0.02982
3377.23,0.03052
3354.09,0.03156
3330.94,0.03256
3307.8,0.03447
3284.65,0.03623
3261.51,0.03963
3238.36,0.04428
3215.22,0.04910
3192.07,0.05471
3168.93,0.06059
3145.78,0.06726
3122.64,0.07315
3099.49,0.07975
3076.35,0.08507
3053.2,0.09023
3030.06,0.09159
3006.91,0.08386
2983.77,0.07166
2960.62,0.05615
2937.48,0.04956
2914.33,0.04846
2891.19,0.05172
2868.04,0.05542
2844.9,0.06303
2821.75,0.08382
2798.61,0.09835
2775.46,0.10485
2752.32,0.10798
2729.17,0.11026
2706.03,0.11765
2682.88,0.12465
2659.74,0.12990
2636.59,0.13443
2613.45,0.14075
2590.3,0.14623
2567.16,0.14847
2544.02,0.14921
2520.87,0.15199
2497.73,0.15798
2474.58,0.16511
2451.44,0.17052
2428.29,0.17844
2405.15,0.18766
2382,0.19547
2358.86,0.20261
2335.71,0.21027
2312.57,0.21289
2289.42,0.21126
2266.28,0.20705
2243.13,0.20110
2219.99,0.20276
2196.84,0.20160
2173.7,0.18930
2150.55,0.17909
2127.41,0.17736
2104.26,0.18142
2081.12,0.18633
2057.97,0.18710
2034.83,0.19299
2011.68,0.20474
1988.54,0.21199
1965.39,0.21171
1942.25,0.21445
1919.1,0.22623
1895.96,0.23048
1872.81,0.22861
1849.67,0.21728
1826.52,0.19924
1803.38,0.16972
1780.23,0.12159
1757.09,0.06085
1733.94,0.05480
1710.8,0.06920
1687.65,0.08212
1664.51,0.07412
1641.36,0.07171
1618.22,0.06409
1595.07,0.05033
1571.93,0.08432
1548.78,0.10007
1525.64,0.08312
1502.49,0.05188
1479.35,0.05438
1456.2,0.03966
1433.06,0.03904
1409.91,0.04522
1386.77,0.03842
1363.62,0.03403
1340.48,0.03404
1317.33,0.03422
1294.19,0.03755
1271.04,0.03178
1247.9,0.02963
1224.75,0.03288
1201.61,0.03519
1178.46,0.03013
1155.32,0.03103
1132.17,0.02610
1109.03,0.03064
1085.88,0.02949
1062.74,0.04100
1039.59,0.04432
1016.45,0.04799
993.304,0.05168
970.159,0.06571
947.014,0.08740
923.869,0.08621
900.724,0.07545
877.579,0.09031
854.434,0.09653
831.289,0.09285
808.144,0.09801
784.999,0.09566
761.854,0.08273
738.709,0.07385
715.565,0.06412
692.42,0.06102
669.275,0.05425
646.13,0.05406
622.985,0.05028
599.84,0.05595

File: Excelsior_IS_S_221109_R7.dpt
7497.03,0.66781
7473.89,0.65719
7450.74,0.64763
7427.6,0.65252
7404.45,0.64041
7381.31,0.62637
7358.16,0.61423
7335.02,0.61346
7311.87,0.61443
7288.73,0.60406
7265.58,0.60165
7242.44,0.60416
7219.29,0.60498
7196.15,0.60609
7173,0.60023
7149.86,0.58838
7126.71,0.58383
7103.57,0.55964
7080.42,0.53837
7057.28,0.52247
7034.13,0.50131
7010.99,0.47307
6987.84,0.46802
6964.7,0.45488
6941.55,0.45413
6918.41,0.45744
6895.26,0.45457
6872.12,0.45040
6848.97,0.44819
6825.83,0.45082
6802.68,0.45430
6779.54,0.45109
6756.39,0.45021
6733.25,0.45237
6710.1,0.45846
6686.96,0.46000
6663.82,0.45548
6640.67,0.46369
6617.53,0.46973
6594.38,0.47402
6571.24,0.47965
6548.09,0.47798
6524.95,0.48689
6501.8,0.48225
6478.66,0.48056
6455.51,0.48521
6432.37,0.48867
6409.22,0.48563
6386.08,0.49162
6362.93,0.49295
6339.79,0.49485
6316.64,0.49706
6293.5,0.49591
6270.35,0.50594
6247.21,0.51090
6224.06,0.52184
6200.92,0.52855
6177.77,0.53255
6154.63,0.54209
6131.48,0.54502
6108.34,0.54814
6085.19,0.55159
6062.05,0.55012
6038.9,0.54192
6015.76,0.54165
5992.61,0.53710
5969.47,0.53283
5946.32,0.52762
5923.18,0.53000
5900.03,0.52237
5876.89,0.51454
5853.74,0.51281
5830.6,0.50867
5807.45,0.50451
5784.31,0.50327
5761.16,0.51122
5738.02,0.51703
5714.87,0.51886
5691.73,0.51474
5668.58,0.51276
5645.44,0.51271
5622.29,0.51525
5599.15,0.51465
5576,0.51665
5552.86,0.51705
5529.71,0.52049
5506.57,0.52349
5483.42,0.52273
5460.28,0.52558
5437.13,0.52991
5413.99,0.53798
5390.84,0.54106
5367.7,0.54002
5344.55,0.53988
5321.41,0.53483
5298.26,0.51807
5275.12,0.48937
5251.97,0.45231
5228.83,0.43052
5205.68,0.41953
5182.54,0.42286
5159.39,0.42981
5136.25,0.44133
5113.1,0.45153
5089.96,0.46182
5066.81,0.46996
5043.67,0.47738
5020.52,0.47915
4997.38,0.47648
4974.23,0.46502
4951.09,0.44540
4927.94,0.42074
4904.8,0.39874
4881.65,0.37921
4858.51,0.36179
4835.36,0.34882
4812.22,0.33783
4789.07,0.33388
4765.93,0.33133
4742.78,0.33104
4719.64,0.33535
4696.49,0.34024
4673.35,0.34554
4650.2,0.35636
4627.06,0.36560
4603.92,0.37358
4580.77,0.37949
4557.63,0.38619
4534.48,0.38949
4511.34,0.38983
4488.19,0.37854
4465.05,0.35316
4441.9,0.32530
4418.76,0.30412
4395.61,0.29672
4372.47,0.30359
4349.32,0.30596
4326.18,0.29998
4303.03,0.29286
4279.89,0.28865
4256.74,0.29089
4233.6,0.29424
4210.45,0.29781
4187.31,0.29891
4164.16,0.30371
4141.02,0.30142
4117.87,0.29016
4094.73,0.27465
4071.58,0.25695
4048.44,0.24075
4025.29,0.23047
4002.15,0.23277
3979,0.23737
3955.86,0.24594
3932.71,0.25486
3909.57,0.26428
3886.42,0.27257
3863.28,0.28149
3840.13,0.29184
3816.99,0.29629
3793.84,0.29754
3770.7,0.29582
3747.55,0.29102
3724.41,0.27835
3701.26,0.25222
3678.12,0.20755
3654.97,0.14947
3631.83,0.10849
3608.68,0.07859
3585.54,0.05834
3562.39,0.04706
3539.25,0.03993
3516.1,0.03570
3492.96,0.03264
3469.81,0.03118
3446.67,0.03033
3423.52,0.02977
3400.38,0.03021
3377.23,0.03048
3354.09,0.03129
3330.94,0.03314
3307.8,0.03511
3284.65,0.03671
3261.51,0.03972
3238.36,0.04472
3215.22,0.04927
3192.07,0.05440
3168.93,0.06114
3145.78,0.06644
3122.64,0.07339
3099.49,0.08050
3076.35,0.08524
3053.2,0.09119
3030.06,0.09218
3006.91,0.08411
2983.77,0.07090
2960.62,0.05610
2937.48,0.04965
2914.33,0.04838
2891.19,0.05155
2868.04,0.05605
2844.9,0.06282
2821.75,0.08404
2798.61,0.09774
2775.46,0.10487
2752.32,0.10878
2729.17,0.11074
2706.03,0.11722
2682.88,0.12498
2659.74,0.13022
2636.59,0.13458
2613.45,0.14046
2590.3,0.14600
2567.16,0.14834
2544.02,0.14920
2520.87,0.15239
2497.73,0.15842
2474.58,0.16552
2451.44,0.17020
2428.29,0.17882
2405.15,0.18747
2382,0.19528
2358.86,0.20287
2335.71,0.21040
2312.57,0.21294
2289.42,0.21158
2266.28,0.20682
2243.13,0.20078
2219.99,0.20268
2196.84,0.20178
2173.7,0.18892
2150.55,0.17874
2127.41,0.17718
2104.26,0.18172
2081.12,0.18680
2057.97,0.18727
2034.83,0.19315
2011.68,0.20512
1988.54,0.21271
1965.39,0.21179
1942.25,0.21474
1919.1,0.22602
1895.96,0.23087
1872.81,0.22854
1849.67,0.21734
1826.52,0.19945
1803.38,0.16980
1780.23,0.12126
1757.09,0.06048
1733.94,0.05470
1710.8,0.06932
1687.65,0.08268
1664.51,0.07460
1641.36,0.07177
1618.22,0.06470
1595.07,0.05030
1571.93,0.08430
1548.78,0.10034
1525.64,0.08299
1502.49,0.05177
1479.35,0.05439
1456.2,0.03948
1433.06,0.03944
1409.91,0.04528
1386.77,0.03889
1363.62,0.03415
1340.48,0.03392
1317.33,0.03440
1294.19,0.03727
1271.04,0.03190
1247.9,0.02957
1224.75,0.03286
1201.61,0.03575
1178.46,0.03023
1155.32,0.03077
1132.17,0.02621
1109.03,0.03103
1085.88,0.03035
1062.74,0.04124
1039.59,0.04518
1016.45,0.04819
993.304,0.05123
970.159,0.06542
947.014,0.08675
923.869,0.08621
900.724,0.07524
877.579,0.09021
854.434,0.09714
831.289,0.09345
808.144,0.09901
784.999,0.09645
761.854,0.08388
738.709,0.07329
715.565,0.06400
692.42,0.06226
669.275,0.05514
646.13,0.05486
622.985,0.04950
599.84,0.05139

File: Excelsior_IS_S_221109_R8.dpt
7497.03,0.66658
7473.89,0.66517
7450.74,0.65092
7427.6,0.64510
7404.45,0.63585
7381.31,0.62926
7358.16,0.61938
7335.02,0.61404
7311.87,0.61726
7288.73,0.60433
7265.58,0.60639
7242.44,0.59629
7219.29,0.60031
7196.15,0.60560
7173,0.59821
7149.86,0.58962
7126.71,0.57911
7103.57,0.55928
7080.42,0.53544
7057.28,0.51766
7034.13,0.49418
7010.99,0.48063
6987.84,0.46637
6964.7,0.46056
6941.55,0.45860
6918.41,0.45707
6895.26,0.44811
6872.12,0.44875
6848.97,0.45086
6825.83,0.45777
6802.68,0.46022
6779.54,0.45583
6756.39,0.45821
6733.25,0.45124
6710.1,0.45866
6686.96,0.46131
6663.82,0.46323
6640.67,0.46800
6617.53,0.47262
6594.38,0.47599
6571.24,0.47372
6548.09,0.47833
6524.95,0.48156
6501.8,0.48390
6478.66,0.48299
6455.51,0.48197
6432.37,0.49159
6409.22,0.49249
6386.08,0.49030
6362.93,0.49338
6339.79,0.49758
6316.64,0.49910
6293.5,0.50149
6270.35,0.51067
6247.21,0.51738
6224.06,0.52218
6200.92,0.52765
6177.77,0.53784
6154.63,0.54122
6131.48,0.55034
6108.34,0.55103
6085.19,0.55356
6062.05,0.55072
6038.9,0.54744
6015.76,0.54239
5992.61,0.53773
5969.47,0.53468
5946.32,0.52740
5923.18,0.52736
5900.03,0.52326
5876.89,0.51905
5853.74,0.51169
5830.6,0.51073
5807.45,0.50443
5784.31,0.50752
5761.16,0.51076
5738.02,0.51855
5714.87,0.52006
5691.73,0.51797
5668.58,0.51405
5645.44,0.51810
5622.29,0.51694
5599.15,0.52002
5576,0.51855
5552.86,0.51954
5529.71,0.52309
5506.57,0.52595
5483.42,0.52511
5460.28,0.52712
5437.13,0.53279
5413.99,0.53947
5390.84,0.54216
5367.7,0.54246
5344.55,0.54416
5321.41,0.53650
5298.26,0.52032
5275.12,0.49095
5251.97,0.45624
5228.83,0.43211
5205.68,0.42320
5182.54,0.42615
5159.39,0.43375
5136.25,0.44482
5113.1,0.45557
5089.96,0.46515
5066.81,0.47418
5043.67,0.47925
5020.52,0.48280
4997.38,0.47794
4974.23,0.46775
4951.09,0.44757
4927.94,0.42385
4904.8,0.40027
4881.65,0.38112
4858.51,0.36434
4835.36,0.35041
4812.22,0.34033
4789.07,0.33484
4765.93,0.33333
4742.78,0.33217
4719.64,0.33577
4696.49,0.34114
4673.35,0.34738
4650.2,0.35661
4627.06,0.36546
4603.92,0.37461
4580.77,0.38168
4557.63,0.38684
4534.48,0.39141
4511.34,0.39090
4488.19,0.38086
4465.05,0.35507
4441.9,0.32667
4418.76,0.30544
4395.61,0.29716
4372.47,0.30536
4349.32,0.30784
4326.18,0.29983
4303.03,0.29411
4279.89,0.28975
4256.74,0.29276
4233.6,0.29638
4210.45,0.29825
4187.31,0.30051
4164.16,0.30528
4141.02,0.30258
4117.87,0.29187
4094.73,0.27615
4071.58,0.25739
4048.44,0.24112
4025.29,0.23107
4002.15,0.23264
3979,0.23792
3955.86,0.24610
3932.71,0.25590
3909.57,0.26522
3886.42,0.27343
3863.28,0.28305
3840.13,0.29363
3816.99,0.29721
3793.84,0.29852
3770.7,0.29728
3747.55,0.29171
3724.41,0.28006
3701.26,0.25427
3678.12,0.20792
3654.97,0.15042
3631.83,0.10925
3608.68,0.07933
3585.54,0.05836
3562.39,0.04641
3539.25,0.04020
3516.1,0.03506
3492.96,0.03281
3469.81,0.03105
3446.67,0.03072
3423.52,0.02973
3400.38,0.03040
3377.23,0.03120
3354.09,0.03116
3330.94,0.03303
3307.8,0.03423
3284.65,0.03710
3261.51,0.04014
3238.36,0.04347
3215.22,0.04957
3192.07,0.05449
3168.93,0.06065
3145.78,0.06742
3122.64,0.07439
3099.49,0.08017
3076.35,0.08602
3053.2,0.09113
3030.06,0.09254
3006.91,0.08403
2983.77,0.07156
2960.62,0.05697
2937.48,0.04963
2914.33,0.04885
2891.19,0.05148
2868.04,0.05653
2844.9,0.06348
2821.75,0.08435
2798.61,0.09818
2775.46,0.10484
2752.32,0.10859
2729.17,0.11045
2706.03,0.11740
2682.88,0.12506
2659.74,0.12994
2636.59,0.13502
2613.45,0.14145
2590.3,0.14639
2567.16,0.14909
2544.02,0.14972
2520.87,0.15292
2497.73,0.15905
2474.58,0.16546
2451.44,0.17090
2428.29,0.17929
2405.15,0.18888
2382,0.19647
2358.86,0.20380
2335.71,0.21077
2312.57,0.21372
2289.42,0.21258
2266.28,0.20812
2243.13,0.20141
2219.99,0.20359
2196.84,0.20260
2173.7,0.19041
2150.55,0.17984
2127.41,0.17763
2104.26,0.18224
2081.12,0.18710
2057.97,0.18803
2034.83,0.19385
2011.68,0.20589
1988.54,0.21326
1965.39,0.21265
1942.25,0.21578
1919.1,0.22727
1895.96,0.23181
1872.81,0.22953
1849.67,0.21793
1826.52,0.20025
1803.38,0.17020
1780.23,0.12144
1757.09,0.06107
1733.94,0.05482
1710.8,0.06948
1687.65,0.08280
1664.51,0.07528
1641.36,0.07207
1618.22,0.06474
1595.07,0.05006
1571.93,0.08407
1548.78,0.10073
1525.64,0.08333
1502.49,0.05220
1479.35,0.05445
1456.2,0.03974
1433.06,0.03932
1409.91,0.04514
1386.77,0.03830
1363.62,0.03441
1340.48,0.03422
1317.33,0.03456
1294.19,0.03748
1271.04,0.03209
1247.9,0.02930
1224.75,0.03241
1201.61,0.03550
1178.46,0.03088
1155.32,0.03108
1132.17,0.02589
1109.03,0.03096
1085.88,0.03051
1062.74,0.04127
1039.59,0.04455
1016.45,0.04857
993.304,0.05167
970.159,0.06548
947.014,0.08684
923.869,0.08597
900.724,0.07495
877.579,0.09066
854.434,0.09756
831.289,0.09389
808.144,0.09948
784.999,0.09617
761.854,0.08401
738.709,0.07382
715.565,0.06423
692.42,0.06156
669.275,0.05526
646.13,0.05571
622.985,0.04903
599.84,0.05354

File: Excelsior_IS_T_221109_R6.dpt
7497.03,0.02154
7473.89,0.02404
7450.74,0.02763
7427.6,0.02358
7404.45,0.02830
7381.31,0.02313
7358.16,0.02030
7335.02,0.02905
7311.87,0.02132
7288.73,0.02909
7265.58,0.02294
7242.44,0.02253
7219.29,0.02632
7196.15,0.02858
7173,0.02226
7149.86,0.02230
7126.71,0.02356
7103.57,0.01838
7080.42,0.03037
7057.28,0.02767
7034.13,0.02740
7010.99,0.01608
6987.84,0.02568
6964.7,0.01544
6941.55,0.01990
6918.41,0.02258
6895.26,0.02931
6872.12,0.02465
6848.97,0.02722
6825.83,0.01779
6802.68,0.02189
6779.54,0.02590
6756.39,0.02188
6733.25,0.01897
6710.1,0.02361
6686.96,0.02103
6663.82,0.02214
6640.67,0.02318
6617.53,0.02289
6594.38,0.01934
6571.24,0.02169
6548.09,0.02260
6524.95,0.02333
6501.8,0.02820
6478.66,0.02847
6455.51,0.02221
6432.37,0.02417
6409.22,0.01994
6386.08,0.02004
6362.93,0.02421
6339.79,0.01925
6316.64,0.01895
6293.5,0.02190
6270.35,0.02115
6247.21,0.02051
6224.06,0.02287
6200.92,0.02187
6177.77,0.02197
6154.63,0.01987
6131.48,0.02325
6108.34,0.01828
6085.19,0.02135
6062.05,0.02096
6038.9,0.02280
6015.76,0.02239
5992.61,0.02156
5969.47,0.02012
5946.32,0.02139
5923.18,0.02161
5900.03,0.02034
5876.89,0.01959
5853.74,0.02118
5830.6,0.02046
5807.45,0.02239
5784.31,0.02233
5761.16,0.02378
5738.02,0.02210
5714.87,0.02297
5691.73,0.01979
5668.58,0.02091
5645.44,0.02282
5622.29,0.01994
5599.15,0.02041
5576,0.02166
5552.86,0.02003
5529.71,0.02057
5506.57,0.02178
5483.42,0.02319
5460.28,0.01964
5437.13,0.02109
5413.99,0.02053
5390.84,0.02221
5367.7,0.02219
5344.55,0.02225
5321.41,0.02214
5298.26,0.02298
5275.12,0.02206
5251.97,0.02142
5228.83,0.02181
5205.68,0.02152
5182.54,0.01917
5159.39,0.02154
5136.25,0.02184
5113.1,0.02103
5089.96,0.02117
5066.81,0.02210
5043.67,0.02160
5020.52,0.02133
4997.38,0.02235
4974.23,0.02280
4951.09,0.02205
4927.94,0.02163
4904.8,0.02186
4881.65,0.02140
4858.51,0.02188
4835.36,0.02247
4812.22,0.02173
4789.07,0.02255
4765.93,0.02252
4742.78,0.02241
4719.64,0.02143
4696.49,0.02214
4673.35,0.02222
4650.2,0.02227
4627.06,0.02283
4603.92,0.02271
4580.77,0.02108
4557.63,0.02278
4534.48,0.02136
4511.34,0.02219
4488.19,0.02132
4465.05,0.02129
4441.9,0.02134
4418.76,0.02242
4395.61,0.02271
4372.47,0.02263
4349.32,0.02194
4326.18,0.02215
4303.03,0.02268
4279.89,0.02239
4256.74,0.02229
4233.6,0.02223
4210.45,0.02253
4187.31,0.02195
4164.16,0.02208
4141.02,0.02237
4117.87,0.02220
4094.73,0.02299
4071.58,0.02274
4048.44,0.02266
4025.29,0.02237
4002.15,0.02237
3979,0.02172
3955.86,0.02224
3932.71,0.02206
3909.57,0.02332
3886.42,0.02270
3863.28,0.02203
3840.13,0.02235
3816.99,0.02281
3793.84,0.02229
3770.7,0.02265
3747.55,0.02263
3724.41,0.02234
3701.26,0.02243
3678.12,0.02245
3654.97,0.02249
3631.83,0.02246
3608.68,0.02192
3585.54,0.02114
3562.39,0.02166
3539.25,0.02091
3516.1,0.02092
3492.96,0.02081
3469.81,0.02023
3446.67,0.02056
3423.52,0.02046
3400.38,0.02063
3377.23,0.02047
3354.09,0.02052
3330.94,0.02018
3307.8,0.01972
3284.65,0.02031
3261.51,0.02135
3238.36,0.02112
3215.22,0.02070
3192.07,0.02106
3168.93,0.02086
3145.78,0.02116
3122.64,0.02110
3099.49,0.02141
3076.35,0.02135
3053.2,0.02097
3030.06,0.02061
3006.91,0.02070
2983.77,0.01981
2960.62,0.01919
2937.48,0.01957
2914.33,0.02082
2891.19,0.02077
2868.04,0.02015
2844.9,0.02085
2821.75,0.02118
2798.61,0.02152
2775.46,0.02205
2752.32,0.02146
2729.17,0.02110
2706.03,0.02182
2682.88,0.02160
2659.74,0.02114
2636.59,0.02147
2613.45,0.02142
2590.3,0.02125
2567.16,0.02142
2544.02,0.02145
2520.87,0.02153
2497.73,0.02145
2474.58,0.02125
2451.44,0.02117
2428.29,0.02132
2405.15,0.02134
2382,0.02138
2358.86,0.02149
2335.71,0.02171
2312.57,0.02105
2289.42,0.02118
2266.28,0.02117
2243.13,0.02108
2219.99,0.02158
2196.84,0.02112
2173.7,0.02137
2150.55,0.02120
2127.41,0.02131
2104.26,0.02147
2081.12,0.02130
2057.97,0.02106
2034.83,0.02143
2011.68,0.02159
1988.54,0.02113
1965.39,0.02089
1942.25,0.02095
1919.1,0.02111
1895.96,0.02091
1872.81,0.02077
1849.67,0.02085
1826.52,0.02036
1803.38,0.02005
1780.23,0.01961
1757.09,0.01797
1733.94,0.01959
1710.8,0.02046
1687.65,0.01918
1664.51,0.01872
1641.36,0.01879
1618.22,0.01863
1595.07,0.01960
1571.93,0.01875
1548.78,0.01891
1525.64,0.01886
1502.49,0.01947
1479.35,0.01899
1456.2,0.01877
1433.06,0.01956
1409.91,0.01866
1386.77,0.01845
1363.62,0.01812
1340.48,0.01841
1317.33,0.01739
1294.19,0.01860
1271.04,0.01979
1247.9,0.02048
1224.75,0.01977
1201.61,0.01887
1178.46,0.01815
1155.32,0.01823
1132.17,0.01841
1109.03,0.01938
1085.88,0.01824
1062.74,0.02019
1039.59,0.01994
1016.45,0.01911
993.304,0.02131
970.159,0.02011
947.014,0.02049
923.869,0.02004
900.724,0.01908
877.579,0.01857
854.434,0.01957
831.289,0.01870
808.144,0.01879
784.999,0.01857
761.854,0.01860
738.709,0.01925
715.565,0.01828
692.42,0.01850
669.275,0.01832
646.13,0.01765
622.985,0.01584
599.84,0.01610