Folder: fsri_materials_database/01_Data/Excelsior/FTIR/IS

Note: README.md
# Materials and Products Database
### Repository of materials and products properties and fire test data to improve fire modeling and fire investigation.

This project was supported in part by Award No. 2019-DU-BX-0018, awarded by the National Institute of Justice, Office of Justice Programs, U.S. Department of Justice. The opinions, findings, and conclusions or recommendations expressed in this publication / program / exhibition are those of the author(s) and do not necessarily reflect those of the Department of Justice.

***
***

__Cite this database:__ "McKinnon, M., Weinschenk, C., Dow, N., DiDomizio, M., and Madrzykowski, D. Materials and Products Database (Version 1.0.0), Fire Safety Research Institute, UL Research Institutes. Columbia, MD 21045, 2023."

__Cite the Technical Reference Guide:__ "McKinnon, M., Weinschenk, C., and Madrzykowski, D. Materials and Products Database - Technical Reference Guide, Fire Safety Research Institute, UL Research Institutes. Columbia, MD 21045, 2023."

__Cite the User Guide:__ "McKinnon, M., and Weinschenk, C. Materials and Products Database - User Guide, Fire Safety Research Institute, UL Research Institutes. Columbia, MD 21045, 2023."

***
***

## Database Structure

## 01_Data/
Raw data generated from each apparatus are included here in plain-text format. The data is organized first by material, next by the short name of test apparatus used, and where applicable additional filtering by test settings.

### Test Apparatus and Data File Structure
- __Cone Calorimeter__ (Cone)
    + Data file structure includes the material, the short name for the apparatus, heat flux setting and scan/scalar, date of test, and replicate number. Scan is for the raw output data and scalar is for the initial conditions and high-level test parameters. 
        * Example: __MDF_Cone_HF25scalar_210323_R1__ stands for the first replicate of scalar data generated from a medium density fiber board test in cone calorimeter exposed to 25 kW/m<sup>2</sup> on March 23, 2021.
    + A _Cone_Notes.csv_ is generated for each material from the __plot_Cone_data.py__ script. For materials whose experiments deviated from typical behavior relevant pictures are included in the respective material directory.
- __Fourier Transform Infrared Spectrometer__ (FTIR)
    + The FTIR directory contains subdirectories for the Attenuated Total Reflectance method (ATR) and the Integrating Sphere (IS)
    + Data file structure for the ATR experiment files includes the material, the abbreviated name for the apparatus, date of test, and replicate number. 
        * Example: __MDF_ATR_210323_R5__ stands for the fifth replicate of data collected with the ATR accessory conducted on June 8, 2021.
    + Data file structure for the IS experiment files includes the material, the abbreviated name for the apparatus, the measurand, whether the test is a sample measurement or standard reference, date of test, and replicate number.
        * Example: __OSB_IS_REFLECT_MEAS_2

File: Excelsior_IS_S_221109_R1.dpt
7497.03,0.65610
7473.89,0.63835
7450.74,0.64394
7427.6,0.63374
7404.45,0.62156
7381.31,0.61845
7358.16,0.61508
7335.02,0.59619
7311.87,0.60212
7288.73,0.59820
7265.58,0.59276
7242.44,0.59676
7219.29,0.59664
7196.15,0.58145
7173,0.57652
7149.86,0.57025
7126.71,0.54812
7103.57,0.54475
7080.42,0.52843
7057.28,0.49483
7034.13,0.48492
7010.99,0.46376
6987.84,0.45455
6964.7,0.44893
6941.55,0.45183
6918.41,0.44723
6895.26,0.44320
6872.12,0.44169
6848.97,0.44247
6825.83,0.44277
6802.68,0.44098
6779.54,0.44099
6756.39,0.44087
6733.25,0.44608
6710.1,0.44826
6686.96,0.45031
6663.82,0.44895
6640.67,0.45104
6617.53,0.46004
6594.38,0.46101
6571.24,0.45953
6548.09,0.46943
6524.95,0.47174
6501.8,0.46899
6478.66,0.46971
6455.51,0.47112
6432.37,0.47192
6409.22,0.47805
6386.08,0.47712
6362.93,0.48146
6339.79,0.48484
6316.64,0.48621
6293.5,0.49023
6270.35,0.49292
6247.21,0.49827
6224.06,0.50765
6200.92,0.51767
6177.77,0.52157
6154.63,0.53082
6131.48,0.53225
6108.34,0.53701
6085.19,0.53675
6062.05,0.53733
6038.9,0.53728
6015.76,0.53195
5992.61,0.52381
5969.47,0.52138
5946.32,0.51793
5923.18,0.51910
5900.03,0.51269
5876.89,0.50803
5853.74,0.50659
5830.6,0.50053
5807.45,0.49312
5784.31,0.49718
5761.16,0.50475
5738.02,0.50442
5714.87,0.50680
5691.73,0.50436
5668.58,0.50517
5645.44,0.50671
5622.29,0.50367
5599.15,0.50307
5576,0.50522
5552.86,0.50778
5529.71,0.50682
5506.57,0.51154
5483.42,0.51264
5460.28,0.51419
5437.13,0.51755
5413.99,0.52431
5390.84,0.52645
5367.7,0.52637
5344.55,0.52433
5321.41,0.51056
5298.26,0.48866
5275.12,0.45012
5251.97,0.40943
5228.83,0.38165
5205.68,0.37133
5182.54,0.37098
5159.39,0.38177
5136.25,0.39214
5113.1,0.40593
5089.96,0.41755
5066.81,0.42855
5043.67,0.43620
5020.52,0.44431
4997.38,0.44601
4974.23,0.44285
4951.09,0.42995
4927.94,0.41176
4904.8,0.39368
4881.65,0.37349
4858.51,0.35805
4835.36,0.34593
4812.22,0.33550
4789.07,0.32962
4765.93,0.32782
4742.78,0.32782
4719.64,0.33012
4696.49,0.33353
4673.35,0.34088
4650.2,0.35101
4627.06,0.35952
4603.92,0.36716
4580.77,0.37490
4557.63,0.37896
4534.48,0.38346
4511.34,0.38321
4488.19,0.37326
4465.05,0.34833
4441.9,0.32156
4418.76,0.30135
4395.61,0.29349
4372.47,0.30197
4349.32,0.30367
4326.18,0.29650
4303.03,0.28957
4279.89,0.28474
4256.74,0.28832
4233.6,0.29117
4210.45,0.29336
4187.31,0.29455
4164.16,0.29825
4141.02,0.29499
4117.87,0.28448
4094.73,0.26967
4071.58,0.25180
4048.44,0.23640
4025.29,0.22597
4002.15,0.22846
3979,0.23314
3955.86,0.24043
3932.71,0.24938
3909.57,0.25742
3886.42,0.26533
3863.28,0.27416
3840.13,0.28281
3816.99,0.28577
3793.84,0.28570
3770.7,0.28288
3747.55,0.27483
3724.41,0.26002
3701.26,0.23231
3678.12,0.18125
3654.97,0.12457
3631.83,0.09003
3608.68,0.06723
3585.54,0.05317
3562.39,0.04417
3539.25,0.03869
3516.1,0.03518
3492.96,0.03292
3469.81,0.03112
3446.67,0.02996
3423.52,0.02988
3400.38,0.02987
3377.23,0.03034
3354.09,0.03067
3330.94,0.03229
3307.8,0.03388
3284.65,0.03639
3261.51,0.03983
3238.36,0.04270
3215.22,0.04717
3192.07,0.05215
3168.93,0.05717
3145.78,0.06271
3122.64,0.06860
3099.49,0.07508
3076.35,0.07976
3053.2,0.08486
3030.06,0.08724
3006.91,0.08068
2983.77,0.07022
2960.62,0.05558
2937.48,0.04973
2914.33,0.04804
2891.19,0.05149
2868.04,0.05569
2844.9,0.06266
2821.75,0.08306
2798.61,0.09637
2775.46,0.10230
2752.32,0.10594
2729.17,0.10821
2706.03,0.11463
2682.88,0.12219
2659.74,0.12668
2636.59,0.13221
2613.45,0.13753
2590.3,0.14304
2567.16,0.14544
2544.02,0.14609
2520.87,0.14914
2497.73,0.15493
2474.58,0.16171
2451.44,0.16735
2428.29,0.17507
2405.15,0.18396
2382,0.19109
2358.86,0.19818
2335.71,0.20420
2312.57,0.20661
2289.42,0.20447
2266.28,0.20012
2243.13,0.19386
2219.99,0.19484
2196.84,0.19283
2173.7,0.18127
2150.55,0.17143
2127.41,0.16984
2104.26,0.17326
2081.12,0.17740
2057.97,0.17885
2034.83,0.18426
2011.68,0.19535
1988.54,0.20260
1965.39,0.20227
1942.25,0.20552
1919.1,0.21693
1895.96,0.22134
1872.81,0.21975
1849.67,0.20958
1826.52,0.19310
1803.38,0.16559
1780.23,0.12189
1757.09,0.06112
1733.94,0.05383
1710.8,0.06800
1687.65,0.07817
1664.51,0.06891
1641.36,0.06514
1618.22,0.06121
1595.07,0.04958
1571.93,0.08201
1548.78,0.09658
1525.64,0.08122
1502.49,0.05201
1479.35,0.05378
1456.2,0.03913
1433.06,0.03889
1409.91,0.04553
1386.77,0.03836
1363.62,0.03447
1340.48,0.03432
1317.33,0.03453
1294.19,0.03715
1271.04,0.03191
1247.9,0.02997
1224.75,0.03286
1201.61,0.03593
1178.46,0.03078
1155.32,0.03130
1132.17,0.02595
1109.03,0.03078
1085.88,0.03016
1062.74,0.03998
1039.59,0.04367
1016.45,0.04796
993.304,0.05124
970.159,0.06537
947.014,0.08604
923.869,0.08479
900.724,0.07334
877.579,0.08787
854.434,0.09391
831.289,0.08905
808.144,0.09179
784.999,0.08876
761.854,0.07832
738.709,0.06949
715.565,0.06124
692.42,0.05867
669.275,0.05489
646.13,0.05282
622.985,0.05000
599.84,0.05181

File: Excelsior_IS_S_221109_R2.dpt
7497.03,0.65720
7473.89,0.64945
7450.74,0.63990
7427.6,0.62727
7404.45,0.62797
7381.31,0.61787
7358.16,0.61333
7335.02,0.60732
7311.87,0.60416
7288.73,0.59483
7265.58,0.60011
7242.44,0.59793
7219.29,0.59687
7196.15,0.59215
7173,0.58722
7149.86,0.57300
7126.71,0.56574
7103.57,0.54684
7080.42,0.52686
7057.28,0.50298
7034.13,0.48885
7010.99,0.47777
6987.84,0.45526
6964.7,0.45734
6941.55,0.45434
6918.41,0.44947
6895.26,0.44755
6872.12,0.45018
6848.97,0.44615
6825.83,0.44373
6802.68,0.44120
6779.54,0.43928
6756.39,0.44798
6733.25,0.44716
6710.1,0.44763
6686.96,0.45288
6663.82,0.45043
6640.67,0.45322
6617.53,0.46466
6594.38,0.46620
6571.24,0.46687
6548.09,0.46699
6524.95,0.47496
6501.8,0.47224
6478.66,0.47992
6455.51,0.47407
6432.37,0.47827
6409.22,0.48035
6386.08,0.48489
6362.93,0.48600
6339.79,0.48609
6316.64,0.48903
6293.5,0.49425
6270.35,0.49513
6247.21,0.50514
6224.06,0.51437
6200.92,0.51905
6177.77,0.52507
6154.63,0.53282
6131.48,0.53723
6108.34,0.54277
6085.19,0.54139
6062.05,0.53990
6038.9,0.53751
6015.76,0.53537
5992.61,0.52794
5969.47,0.52507
5946.32,0.52098
5923.18,0.52204
5900.03,0.51742
5876.89,0.51261
5853.74,0.50773
5830.6,0.50186
5807.45,0.49808
5784.31,0.49794
5761.16,0.50377
5738.02,0.51050
5714.87,0.51247
5691.73,0.50921
5668.58,0.50510
5645.44,0.50714
5622.29,0.50746
5599.15,0.50498
5576,0.50804
5552.86,0.51167
5529.71,0.51421
5506.57,0.51530
5483.42,0.51440
5460.28,0.51963
5437.13,0.52318
5413.99,0.52935
5390.84,0.53285
5367.7,0.52904
5344.55,0.52802
5321.41,0.51928
5298.26,0.49564
5275.12,0.45815
5251.97,0.41867
5228.83,0.39186
5205.68,0.38182
5182.54,0.38302
5159.39,0.39135
5136.25,0.40552
5113.1,0.41657
5089.96,0.42832
5066.81,0.43916
5043.67,0.44700
5020.52,0.45272
4997.38,0.45469
4974.23,0.44976
4951.09,0.43490
4927.94,0.41426
4904.8,0.39454
4881.65,0.37599
4858.51,0.36105
4835.36,0.34746
4812.22,0.33657
4789.07,0.33151
4765.93,0.32927
4742.78,0.33068
4719.64,0.33222
4696.49,0.33492
4673.35,0.34393
4650.2,0.35175
4627.06,0.36097
4603.92,0.36989
4580.77,0.37566
4557.63,0.38228
4534.48,0.38514
4511.34,0.38620
4488.19,0.37529
4465.05,0.35089
4441.9,0.32248
4418.76,0.30215
4395.61,0.29577
4372.47,0.30321
4349.32,0.30548
4326.18,0.29798
4303.03,0.29176
4279.89,0.28755
4256.74,0.28963
4233.6,0.29298
4210.45,0.29440
4187.31,0.29619
4164.16,0.29991
4141.02,0.29755
4117.87,0.28692
4094.73,0.27089
4071.58,0.25459
4048.44,0.23800
4025.29,0.22763
4002.15,0.22949
3979,0.23427
3955.86,0.24193
3932.71,0.25101
3909.57,0.26069
3886.42,0.26827
3863.28,0.27680
3840.13,0.28602
3816.99,0.28954
3793.84,0.28903
3770.7,0.28615
3747.55,0.27984
3724.41,0.26553
3701.26,0.23822
3678.12,0.18908
3654.97,0.13146
3631.83,0.09474
3608.68,0.07010
3585.54,0.05420
3562.39,0.04483
3539.25,0.03881
3516.1,0.03562
3492.96,0.03275
3469.81,0.03080
3446.67,0.02931
3423.52,0.02968
3400.38,0.03034
3377.23,0.03091
3354.09,0.03136
3330.94,0.03231
3307.8,0.03415
3284.65,0.03622
3261.51,0.03940
3238.36,0.04296
3215.22,0.04745
3192.07,0.05248
3168.93,0.05839
3145.78,0.06433
3122.64,0.07065
3099.49,0.07601
3076.35,0.08129
3053.2,0.08710
3030.06,0.08880
3006.91,0.08202
2983.77,0.07051
2960.62,0.05570
2937.48,0.04968
2914.33,0.04835
2891.19,0.05130
2868.04,0.05556
2844.9,0.06339
2821.75,0.08398
2798.61,0.09687
2775.46,0.10269
2752.32,0.10716
2729.17,0.10888
2706.03,0.11502
2682.88,0.12320
2659.74,0.12773
2636.59,0.13329
2613.45,0.13917
2590.3,0.14446
2567.16,0.14657
2544.02,0.14756
2520.87,0.15014
2497.73,0.15692
2474.58,0.16289
2451.44,0.16833
2428.29,0.17637
2405.15,0.18537
2382,0.19259
2358.86,0.19966
2335.71,0.20585
2312.57,0.20902
2289.42,0.20731
2266.28,0.20294
2243.13,0.19633
2219.99,0.19761
2196.84,0.19606
2173.7,0.18410
2150.55,0.17412
2127.41,0.17202
2104.26,0.17614
2081.12,0.18085
2057.97,0.18174
2034.83,0.18721
2011.68,0.19855
1988.54,0.20574
1965.39,0.20566
1942.25,0.20882
1919.1,0.21965
1895.96,0.22481
1872.81,0.22289
1849.67,0.21239
1826.52,0.19536
1803.38,0.16720
1780.23,0.12199
1757.09,0.06115
1733.94,0.05446
1710.8,0.06844
1687.65,0.07945
1664.51,0.07081
1641.36,0.06731
1618.22,0.06236
1595.07,0.04958
1571.93,0.08310
1548.78,0.09816
1525.64,0.08155
1502.49,0.05164
1479.35,0.05427
1456.2,0.03950
1433.06,0.03914
1409.91,0.04514
1386.77,0.03872
1363.62,0.03422
1340.48,0.03412
1317.33,0.03456
1294.19,0.03713
1271.04,0.03183
1247.9,0.02928
1224.75,0.03304
1201.61,0.03559
1178.46,0.03069
1155.32,0.03098
1132.17,0.02605
1109.03,0.03140
1085.88,0.02975
1062.74,0.04049
1039.59,0.04475
1016.45,0.04845
993.304,0.05167
970.159,0.06561
947.014,0.08646
923.869,0.08527
900.724,0.07385
877.579,0.08936
854.434,0.09458
831.289,0.09070
808.144,0.09400
784.999,0.09124
761.854,0.07979
738.709,0.07120
715.565,0.06296
692.42,0.06000
669.275,0.05392
646.13,0.05499
622.985,0.04802
599.84,0.05322

File: Excelsior_IS_S_221109_R3.dpt
7497.03,0.65392
7473.89,0.64366
7450.74,0.65185
7427.6,0.63569
7404.45,0.62875
7381.31,0.61484
7358.16,0.61378
7335.02,0.61235
7311.87,0.60320
7288.73,0.60524
7265.58,0.59644
7242.44,0.60428
7219.29,0.59787
7196.15,0.59369
7173,0.58472
7149.86,0.57060
7126.71,0.56979
7103.57,0.55520
7080.42,0.52934
7057.28,0.50868
7034.13,0.48538
7010.99,0.46960
6987.84,0.45977
6964.7,0.45113
6941.55,0.45380
6918.41,0.44771
6895.26,0.44655
6872.12,0.44930
6848.97,0.44654
6825.83,0.44470
6802.68,0.44797
6779.54,0.44376
6756.39,0.44862
6733.25,0.44777
6710.1,0.44999
6686.96,0.45374
6663.82,0.45260
6640.67,0.46144
6617.53,0.46157
6594.38,0.46708
6571.24,0.46575
6548.09,0.47527
6524.95,0.47122
6501.8,0.47291
6478.66,0.47582
6455.51,0.47678
6432.37,0.48462
6409.22,0.48708
6386.08,0.48308
6362.93,0.48694
6339.79,0.49345
6316.64,0.48895
6293.5,0.49321
6270.35,0.50163
6247.21,0.50717
6224.06,0.51461
6200.92,0.52027
6177.77,0.52743
6154.63,0.53637
6131.48,0.53719
6108.34,0.54402
6085.19,0.54457
6062.05,0.53986
6038.9,0.53847
6015.76,0.53598
5992.61,0.53376
5969.47,0.52790
5946.32,0.52277
5923.18,0.52407
5900.03,0.51715
5876.89,0.51230
5853.74,0.50984
5830.6,0.50468
5807.45,0.49555
5784.31,0.50029
5761.16,0.50654
5738.02,0.51148
5714.87,0.51138
5691.73,0.50851
5668.58,0.50978
5645.44,0.50848
5622.29,0.50936
5599.15,0.51095
5576,0.51033
5552.86,0.51482
5529.71,0.51496
5506.57,0.51536
5483.42,0.51728
5460.28,0.51952
5437.13,0.52511
5413.99,0.53059
5390.84,0.53325
5367.7,0.53508
5344.55,0.53418
5321.41,0.52244
5298.26,0.50327
5275.12,0.46773
5251.97,0.42860
5228.83,0.40578
5205.68,0.39648
5182.54,0.39668
5159.39,0.40445
5136.25,0.41660
5113.1,0.43002
5089.96,0.43792
5066.81,0.44931
5043.67,0.45773
5020.52,0.46244
4997.38,0.46187
4974.23,0.45477
4951.09,0.43966
4927.94,0.41589
4904.8,0.39595
4881.65,0.37856
4858.51,0.35999
4835.36,0.34717
4812.22,0.33716
4789.07,0.33204
4765.93,0.32965
4742.78,0.33030
4719.64,0.33316
4696.49,0.33601
4673.35,0.34390
4650.2,0.35394
4627.06,0.36181
4603.92,0.37054
4580.77,0.37749
4557.63,0.38202
4534.48,0.38641
4511.34,0.38627
4488.19,0.37537
4465.05,0.35092
4441.9,0.32294
4418.76,0.30326
4395.61,0.29525
4372.47,0.30319
4349.32,0.30527
4326.18,0.29716
4303.03,0.29156
4279.89,0.28734
4256.74,0.29021
4233.6,0.29265
4210.45,0.29491
4187.31,0.29698
4164.16,0.30202
4141.02,0.29828
4117.87,0.28741
4094.73,0.27264
4071.58,0.25539
4048.44,0.23882
4025.29,0.22925
4002.15,0.23085
3979,0.23493
3955.86,0.24353
3932.71,0.25188
3909.57,0.26105
3886.42,0.26966
3863.28,0.27793
3840.13,0.28767
3816.99,0.29165
3793.84,0.29184
3770.7,0.29038
3747.55,0.28332
3724.41,0.26984
3701.26,0.24341
3678.12,0.19558
3654.97,0.13669
3631.83,0.09933
3608.68,0.07376
3585.54,0.05530
3562.39,0.04581
3539.25,0.03888
3516.1,0.03525
3492.96,0.03257
3469.81,0.03075
3446.67,0.03007
3423.52,0.02986
3400.38,0.03051
3377.23,0.02969
3354.09,0.03121
3330.94,0.03314
3307.8,0.03440
3284.65,0.03643
3261.51,0.03959
3238.36,0.04308
3215.22,0.04761
3192.07,0.05298
3168.93,0.05906
3145.78,0.06592
3122.64,0.07131
3099.49,0.07757
3076.35,0.08291
3053.2,0.08865
3030.06,0.08987
3006.91,0.08249
2983.77,0.07078
2960.62,0.05579
2937.48,0.04987
2914.33,0.04845
2891.19,0.05216
2868.04,0.05624
2844.9,0.06302
2821.75,0.08412
2798.61,0.09751
2775.46,0.10383
2752.32,0.10786
2729.17,0.10928
2706.03,0.11643
2682.88,0.12393
2659.74,0.12895
2636.59,0.13354
2613.45,0.13975
2590.3,0.14472
2567.16,0.14682
2544.02,0.14771
2520.87,0.15105
2497.73,0.15716
2474.58,0.16326
2451.44,0.16885
2428.29,0.17680
2405.15,0.18620
2382,0.19366
2358.86,0.20076
2335.71,0.20755
2312.57,0.21027
2289.42,0.20836
2266.28,0.20439
2243.13,0.19760
2219.99,0.19915
2196.84,0.19830
2173.7,0.18583
2150.55,0.17600
2127.41,0.17395
2104.26,0.17817
2081.12,0.18293
2057.97,0.18364
2034.83,0.18897
2011.68,0.20074
1988.54,0.20817
1965.39,0.20739
1942.25,0.21073
1919.1,0.22230
1895.96,0.22673
1872.81,0.22461
1849.67,0.21360
1826.52,0.19637
1803.38,0.16812
1780.23,0.12161
1757.09,0.06105
1733.94,0.05467
1710.8,0.06849
1687.65,0.08095
1664.51,0.07211
1641.36,0.06899
1618.22,0.06277
1595.07,0.04970
1571.93,0.08348
1548.78,0.09867
1525.64,0.08215
1502.49,0.05161
1479.35,0.05440
1456.2,0.03960
1433.06,0.03934
1409.91,0.04522
1386.77,0.03836
1363.62,0.03442
1340.48,0.03371
1317.33,0.03410
1294.19,0.03720
1271.04,0.03122
1247.9,0.02914
1224.75,0.03280
1201.61,0.03556
1178.46,0.03054
1155.32,0.03113
1132.17,0.02628
1109.03,0.03105
1085.88,0.03106
1062.74,0.04095
1039.59,0.04390
1016.45,0.04811
993.304,0.05142
970.159,0.06510
947.014,0.08663
923.869,0.08474
900.724,0.07475
877.579,0.08933
854.434,0.09566
831.289,0.09166
808.144,0.09637
784.999,0.09296
761.854,0.08075
738.709,0.07222
715.565,0.06258
692.42,0.06074
669.275,0.05470
646.13,0.05445
622.985,0.05115
599.84,0.05240

File: Excelsior_IS_S_221109_R4.dpt
7497.03,0.66057
7473.89,0.64382
7450.74,0.63884
7427.6,0.63322
7404.45,0.62977
7381.31,0.62562
7358.16,0.60675
7335.02,0.61553
7311.87,0.60816
7288.73,0.60350
7265.58,0.60272
7242.44,0.60527
7219.29,0.60524
7196.15,0.59892
7173,0.59170
7149.86,0.58667
7126.71,0.57279
7103.57,0.55792
7080.42,0.53755
7057.28,0.51381
7034.13,0.49024
7010.99,0.47673
6987.84,0.46289
6964.7,0.46233
6941.55,0.44904
6918.41,0.45570
6895.26,0.45016
6872.12,0.45269
6848.97,0.44854
6825.83,0.45394
6802.68,0.45469
6779.54,0.44645
6756.39,0.45129
6733.25,0.45326
6710.1,0.45499
6686.96,0.46120
6663.82,0.46142
6640.67,0.45828
6617.53,0.46629
6594.38,0.47264
6571.24,0.47397
6548.09,0.47447
6524.95,0.47948
6501.8,0.48243
6478.66,0.48053
6455.51,0.48306
6432.37,0.48323
6409.22,0.48840
6386.08,0.48904
6362.93,0.48716
6339.79,0.49073
6316.64,0.49051
6293.5,0.49127
6270.35,0.50218
6247.21,0.50806
6224.06,0.51641
6200.92,0.52706
6177.77,0.53289
6154.63,0.53766
6131.48,0.54401
6108.34,0.54751
6085.19,0.54629
6062.05,0.54899
6038.9,0.54472
6015.76,0.54144
5992.61,0.53615
5969.47,0.52817
5946.32,0.52427
5923.18,0.52678
5900.03,0.51947
5876.89,0.51604
5853.74,0.51281
5830.6,0.50916
5807.45,0.50128
5784.31,0.50460
5761.16,0.51026
5738.02,0.51508
5714.87,0.51816
5691.73,0.51597
5668.58,0.51364
5645.44,0.51316
5622.29,0.51429
5599.15,0.51380
5576,0.51411
5552.86,0.51750
5529.71,0.51848
5506.57,0.52244
5483.42,0.52140
5460.28,0.52620
5437.13,0.53015
5413.99,0.53604
5390.84,0.53807
5367.7,0.53760
5344.55,0.53742
5321.41,0.53118
5298.26,0.50962
5275.12,0.47812
5251.97,0.43874
5228.83,0.41443
5205.68,0.40579
5182.54,0.40488
5159.39,0.41408
5136.25,0.42717
5113.1,0.43822
5089.96,0.44849
5066.81,0.45865
5043.67,0.46654
5020.52,0.46977
4997.38,0.46902
4974.23,0.45941
4951.09,0.44275
4927.94,0.42020
4904.8,0.39791
4881.65,0.37940
4858.51,0.36283
4835.36,0.34908
4812.22,0.33806
4789.07,0.33375
4765.93,0.33082
4742.78,0.33129
4719.64,0.33541
4696.49,0.33829
4673.35,0.34582
4650.2,0.35579
4627.06,0.36494
4603.92,0.37298
4580.77,0.38002
4557.63,0.38453
4534.48,0.38981
4511.34,0.38854
4488.19,0.37898
4465.05,0.35480
4441.9,0.32542
4418.76,0.30498
4395.61,0.29686
4372.47,0.30426
4349.32,0.30714
4326.18,0.29945
4303.03,0.29289
4279.89,0.28870
4256.74,0.29146
4233.6,0.29517
4210.45,0.29682
4187.31,0.29929
4164.16,0.30276
4141.02,0.30002
4117.87,0.28975
4094.73,0.27447
4071.58,0.25702
4048.44,0.23983
4025.29,0.23011
4002.15,0.23164
3979,0.23722
3955.86,0.24533
3932.71,0.25523
3909.57,0.26325
3886.42,0.27130
3863.28,0.28079
3840.13,0.29027
3816.99,0.29473
3793.84,0.29564
3770.7,0.29305
3747.55,0.28812
3724.41,0.27405
3701.26,0.24795
3678.12,0.19995
3654.97,0.14176
3631.83,0.10296
3608.68,0.07528
3585.54,0.05700
3562.39,0.04610
3539.25,0.03961
3516.1,0.03545
3492.96,0.03174
3469.81,0.03063
3446.67,0.03024
3423.52,0.02983
3400.38,0.02999
3377.23,0.03093
3354.09,0.03075
3330.94,0.03262
3307.8,0.03500
3284.65,0.03653
3261.51,0.03966
3238.36,0.04380
3215.22,0.04797
3192.07,0.05456
3168.93,0.06015
3145.78,0.06637
3122.64,0.07326
3099.49,0.07879
3076.35,0.08381
3053.2,0.08881
3030.06,0.09105
3006.91,0.08275
2983.77,0.07104
2960.62,0.05595
2937.48,0.04951
2914.33,0.04868
2891.19,0.05177
2868.04,0.05601
2844.9,0.06327
2821.75,0.08398
2798.61,0.09806
2775.46,0.10443
2752.32,0.10778
2729.17,0.10996
2706.03,0.11714
2682.88,0.12445
2659.74,0.12937
2636.59,0.13440
2613.45,0.14024
2590.3,0.14583
2567.16,0.14775
2544.02,0.14936
2520.87,0.15213
2497.73,0.15821
2474.58,0.16474
2451.44,0.17017
2428.29,0.17852
2405.15,0.18736
2382,0.19493
2358.86,0.20261
2335.71,0.20965
2312.57,0.21218
2289.42,0.20995
2266.28,0.20607
2243.13,0.19995
2219.99,0.20139
2196.84,0.20002
2173.7,0.18814
2150.55,0.17772
2127.41,0.17577
2104.26,0.18069
2081.12,0.18474
2057.97,0.18592
2034.83,0.19135
2011.68,0.20362
1988.54,0.21063
1965.39,0.21021
1942.25,0.21296
1919.1,0.22427
1895.96,0.22945
1872.81,0.22729
1849.67,0.21592
1826.52,0.19866
1803.38,0.16952
1780.23,0.12187
1757.09,0.06055
1733.94,0.05438
1710.8,0.06918
1687.65,0.08168
1664.51,0.07331
1641.36,0.06988
1618.22,0.06376
1595.07,0.05014
1571.93,0.08415
1548.78,0.09976
1525.64,0.08256
1502.49,0.05218
1479.35,0.05447
1456.2,0.03956
1433.06,0.03900
1409.91,0.04555
1386.77,0.03833
1363.62,0.03432
1340.48,0.03398
1317.33,0.03481
1294.19,0.03709
1271.04,0.03191
1247.9,0.02953
1224.75,0.03278
1201.61,0.03506
1178.46,0.03015
1155.32,0.03141
1132.17,0.02610
1109.03,0.03101
1085.88,0.03085
1062.74,0.04070
1039.59,0.04490
1016.45,0.04848
993.304,0.05064
970.159,0.06571
947.014,0.08699
923.869,0.08617
900.724,0.07510
877.579,0.09044
854.434,0.09622
831.289,0.09276
808.144,0.09726
784.999,0.09484
761.854,0.08261
738.709,0.07273
715.565,0.06390
692.42,0.06099
669.275,0.05254
646.13,0.05629
622.985,0.05101
599.84,0.05234