Folder: fsri_materials_database/01_Data/HIPS/FTIR/IS

Note: README.md
# Materials and Products Database
### Repository of materials and products properties and fire test data to improve fire modeling and fire investigation.

This project was supported in part by Award No. 2019-DU-BX-0018, awarded by the National Institute of Justice, Office of Justice Programs, U.S. Department of Justice. The opinions, findings, and conclusions or recommendations expressed in this publication / program / exhibition are those of the author(s) and do not necessarily reflect those of the Department of Justice.

***
***

__Cite this database:__ "McKinnon, M., Weinschenk, C., Dow, N., DiDomizio, M., and Madrzykowski, D. Materials and Products Database (Version 1.0.0), Fire Safety Research Institute, UL Research Institutes. Columbia, MD 21045, 2023."

__Cite the Technical Reference Guide:__ "McKinnon, M., Weinschenk, C., and Madrzykowski, D. Materials and Products Database - Technical Reference Guide, Fire Safety Research Institute, UL Research Institutes. Columbia, MD 21045, 2023."

__Cite the User Guide:__ "McKinnon, M., and Weinschenk, C. Materials and Products Database - User Guide, Fire Safety Research Institute, UL Research Institutes. Columbia, MD 21045, 2023."

***
***

## Database Structure

## 01_Data/
Raw data generated from each apparatus are included here in plain-text format. The data is organized first by material, next by the short name of test apparatus used, and where applicable additional filtering by test settings.

### Test Apparatus and Data File Structure
- __Cone Calorimeter__ (Cone)
    + Data file structure includes the material, the short name for the apparatus, heat flux setting and scan/scalar, date of test, and replicate number. Scan is for the raw output data and scalar is for the initial conditions and high-level test parameters. 
        * Example: __MDF_Cone_HF25scalar_210323_R1__ stands for the first replicate of scalar data generated from a medium density fiber board test in cone calorimeter exposed to 25 kW/m<sup>2</sup> on March 23, 2021.
    + A _Cone_Notes.csv_ is generated for each material from the __plot_Cone_data.py__ script. For materials whose experiments deviated from typical behavior relevant pictures are included in the respective material directory.
- __Fourier Transform Infrared Spectrometer__ (FTIR)
    + The FTIR directory contains subdirectories for the Attenuated Total Reflectance method (ATR) and the Integrating Sphere (IS)
    + Data file structure for the ATR experiment files includes the material, the abbreviated name for the apparatus, date of test, and replicate number. 
        * Example: __MDF_ATR_210323_R5__ stands for the fifth replicate of data collected with the ATR accessory conducted on June 8, 2021.
    + Data file structure for the IS experiment files includes the material, the abbreviated name for the apparatus, the measurand, whether the test is a sample measurement or standard reference, date of test, and replicate number.
        * Example: __OSB_IS_REFLECT_MEAS_2

File: HIPS_IS_S_220901_R3.dpt
7497.03,0.82472
7473.89,0.81853
7450.74,0.81194
7427.6,0.79676
7404.45,0.79698
7381.31,0.80803
7358.16,0.80007
7335.02,0.79379
7311.87,0.77928
7288.73,0.75559
7265.58,0.74625
7242.44,0.72647
7219.29,0.72083
7196.15,0.69657
7173,0.69084
7149.86,0.69259
7126.71,0.69412
7103.57,0.67952
7080.42,0.66998
7057.28,0.67082
7034.13,0.67806
7010.99,0.68511
6987.84,0.68845
6964.7,0.68336
6941.55,0.69251
6918.41,0.70478
6895.26,0.71061
6872.12,0.71942
6848.97,0.72032
6825.83,0.72724
6802.68,0.72962
6779.54,0.74185
6756.39,0.74025
6733.25,0.74205
6710.1,0.74352
6686.96,0.75213
6663.82,0.75864
6640.67,0.77073
6617.53,0.76417
6594.38,0.76928
6571.24,0.77342
6548.09,0.77832
6524.95,0.78213
6501.8,0.78999
6478.66,0.79752
6455.51,0.79970
6432.37,0.79970
6409.22,0.79824
6386.08,0.79248
6362.93,0.78140
6339.79,0.78199
6316.64,0.77298
6293.5,0.76090
6270.35,0.75655
6247.21,0.73983
6224.06,0.71865
6200.92,0.69109
6177.77,0.64220
6154.63,0.55668
6131.48,0.48210
6108.34,0.42684
6085.19,0.43077
6062.05,0.45543
6038.9,0.44202
6015.76,0.32907
5992.61,0.24659
5969.47,0.19628
5946.32,0.18991
5923.18,0.20523
5900.03,0.21913
5876.89,0.26397
5853.74,0.29085
5830.6,0.29612
5807.45,0.29949
5784.31,0.30505
5761.16,0.35828
5738.02,0.39925
5714.87,0.36271
5691.73,0.33453
5668.58,0.31717
5645.44,0.34791
5622.29,0.37738
5599.15,0.38070
5576,0.38152
5552.86,0.38964
5529.71,0.38743
5506.57,0.39191
5483.42,0.40704
5460.28,0.41396
5437.13,0.41130
5413.99,0.40830
5390.84,0.40370
5367.7,0.40266
5344.55,0.41557
5321.41,0.42829
5298.26,0.43331
5275.12,0.43621
5251.97,0.43518
5228.83,0.43510
5205.68,0.44606
5182.54,0.44895
5159.39,0.45130
5136.25,0.44685
5113.1,0.44594
5089.96,0.45306
5066.81,0.45289
5043.67,0.45161
5020.52,0.45407
4997.38,0.45028
4974.23,0.44261
4951.09,0.44479
4927.94,0.44219
4904.8,0.44216
4881.65,0.43275
4858.51,0.42536
4835.36,0.41237
4812.22,0.41513
4789.07,0.41062
4765.93,0.37380
4742.78,0.36372
4719.64,0.31534
4696.49,0.26756
4673.35,0.14811
4650.2,0.15130
4627.06,0.13277
4603.92,0.12761
4580.77,0.16504
4557.63,0.18602
4534.48,0.23240
4511.34,0.23442
4488.19,0.24605
4465.05,0.26136
4441.9,0.24091
4418.76,0.22914
4395.61,0.19519
4372.47,0.15729
4349.32,0.12898
4326.18,0.11986
4303.03,0.13729
4279.89,0.12402
4256.74,0.10492
4233.6,0.10649
4210.45,0.10799
4187.31,0.11598
4164.16,0.12261
4141.02,0.12177
4117.87,0.11306
4094.73,0.10581
4071.58,0.08856
4048.44,0.08197
4025.29,0.08640
4002.15,0.10741
3979,0.11821
3955.86,0.12325
3932.71,0.12075
3909.57,0.12496
3886.42,0.12790
3863.28,0.12804
3840.13,0.12538
3816.99,0.11920
3793.84,0.12242
3770.7,0.12843
3747.55,0.13348
3724.41,0.12477
3701.26,0.11794
3678.12,0.11476
3654.97,0.10410
3631.83,0.11722
3608.68,0.13073
3585.54,0.13622
3562.39,0.14995
3539.25,0.14746
3516.1,0.14278
3492.96,0.13683
3469.81,0.12890
3446.67,0.12320
3423.52,0.13265
3400.38,0.13542
3377.23,0.13720
3354.09,0.14153
3330.94,0.13536
3307.8,0.11656
3284.65,0.11777
3261.51,0.11963
3238.36,0.11608
3215.22,0.10808
3192.07,0.09761
3168.93,0.08687
3145.78,0.08390
3122.64,0.07574
3099.49,0.06631
3076.35,0.06559
3053.2,0.06595
3030.06,0.06382
3006.91,0.06748
2983.77,0.06685
2960.62,0.06530
2937.48,0.06252
2914.33,0.06906
2891.19,0.06856
2868.04,0.06758
2844.9,0.06847
2821.75,0.07014
2798.61,0.07168
2775.46,0.07385
2752.32,0.07626
2729.17,0.07554
2706.03,0.07491
2682.88,0.07413
2659.74,0.07451
2636.59,0.07319
2613.45,0.07479
2590.3,0.07557
2567.16,0.07583
2544.02,0.07548
2520.87,0.07561
2497.73,0.07616
2474.58,0.07841
2451.44,0.08010
2428.29,0.08152
2405.15,0.08030
2382,0.07877
2358.86,0.07590
2335.71,0.07151
2312.57,0.07347
2289.42,0.07778
2266.28,0.07836
2243.13,0.07909
2219.99,0.08077
2196.84,0.08210
2173.7,0.08308
2150.55,0.08407
2127.41,0.08602
2104.26,0.08714
2081.12,0.08757
2057.97,0.08545
2034.83,0.08260
2011.68,0.07914
1988.54,0.07145
1965.39,0.06726
1942.25,0.06649
1919.1,0.06950
1895.96,0.06770
1872.81,0.06610
1849.67,0.06908
1826.52,0.06679
1803.38,0.06592
1780.23,0.06685
1757.09,0.06593
1733.94,0.06628
1710.8,0.06702
1687.65,0.06555
1664.51,0.06514
1641.36,0.06566
1618.22,0.06484
1595.07,0.06637
1571.93,0.06567
1548.78,0.06439
1525.64,0.06437
1502.49,0.06037
1479.35,0.06594
1456.2,0.05957
1433.06,0.06766
1409.91,0.06611
1386.77,0.06469
1363.62,0.06545
1340.48,0.06511
1317.33,0.06486
1294.19,0.06496
1271.04,0.06509
1247.9,0.06507
1224.75,0.06444
1201.61,0.06446
1178.46,0.06481
1155.32,0.06436
1132.17,0.06563
1109.03,0.06397
1085.88,0.06254
1062.74,0.06400
1039.59,0.06323
1016.45,0.06660
993.304,0.06493
970.159,0.06356
947.014,0.06379
923.869,0.06278
900.724,0.06381
877.579,0.06228
854.434,0.06152
831.289,0.06088
808.144,0.05957
784.999,0.05486
761.854,0.05519
738.709,0.06500
715.565,0.05034
692.42,0.11137
669.275,0.07420
646.13,0.06985
622.985,0.06956
599.84,0.06772

File: HIPS_IS_S_220901_R5.dpt
7497.03,0.83202
7473.89,0.83025
7450.74,0.80142
7427.6,0.79760
7404.45,0.79401
7381.31,0.79033
7358.16,0.80204
7335.02,0.79309
7311.87,0.77955
7288.73,0.75082
7265.58,0.74119
7242.44,0.72565
7219.29,0.71804
7196.15,0.70314
7173,0.69010
7149.86,0.69270
7126.71,0.69064
7103.57,0.68058
7080.42,0.67668
7057.28,0.67671
7034.13,0.67722
7010.99,0.68352
6987.84,0.68361
6964.7,0.68549
6941.55,0.68949
6918.41,0.69929
6895.26,0.70079
6872.12,0.71021
6848.97,0.72374
6825.83,0.72056
6802.68,0.73013
6779.54,0.73558
6756.39,0.73895
6733.25,0.74072
6710.1,0.74235
6686.96,0.75491
6663.82,0.75847
6640.67,0.76291
6617.53,0.76497
6594.38,0.76245
6571.24,0.77022
6548.09,0.77685
6524.95,0.77966
6501.8,0.78569
6478.66,0.79048
6455.51,0.79724
6432.37,0.79877
6409.22,0.79950
6386.08,0.78952
6362.93,0.77760
6339.79,0.77539
6316.64,0.77255
6293.5,0.76066
6270.35,0.75081
6247.21,0.73474
6224.06,0.71423
6200.92,0.68693
6177.77,0.64302
6154.63,0.55527
6131.48,0.48477
6108.34,0.42593
6085.19,0.42903
6062.05,0.45395
6038.9,0.44101
6015.76,0.32721
5992.61,0.24368
5969.47,0.19487
5946.32,0.18999
5923.18,0.20640
5900.03,0.22014
5876.89,0.26450
5853.74,0.29184
5830.6,0.29524
5807.45,0.29603
5784.31,0.30233
5761.16,0.35849
5738.02,0.40073
5714.87,0.36365
5691.73,0.33268
5668.58,0.31767
5645.44,0.34673
5622.29,0.37695
5599.15,0.38035
5576,0.38003
5552.86,0.38721
5529.71,0.38650
5506.57,0.38979
5483.42,0.40799
5460.28,0.41464
5437.13,0.41017
5413.99,0.40782
5390.84,0.40218
5367.7,0.40374
5344.55,0.41709
5321.41,0.42823
5298.26,0.43144
5275.12,0.43621
5251.97,0.43389
5228.83,0.43519
5205.68,0.44271
5182.54,0.44748
5159.39,0.45058
5136.25,0.44501
5113.1,0.44590
5089.96,0.45035
5066.81,0.45118
5043.67,0.44890
5020.52,0.45281
4997.38,0.44955
4974.23,0.44043
4951.09,0.44324
4927.94,0.44119
4904.8,0.44131
4881.65,0.43315
4858.51,0.42448
4835.36,0.41204
4812.22,0.41554
4789.07,0.40876
4765.93,0.37246
4742.78,0.36295
4719.64,0.31574
4696.49,0.26535
4673.35,0.14838
4650.2,0.14940
4627.06,0.13277
4603.92,0.12560
4580.77,0.16490
4557.63,0.18633
4534.48,0.23081
4511.34,0.23330
4488.19,0.24578
4465.05,0.26160
4441.9,0.24056
4418.76,0.22806
4395.61,0.19497
4372.47,0.15657
4349.32,0.12751
4326.18,0.11869
4303.03,0.13684
4279.89,0.12422
4256.74,0.10465
4233.6,0.10606
4210.45,0.10766
4187.31,0.11549
4164.16,0.12216
4141.02,0.12119
4117.87,0.11285
4094.73,0.10538
4071.58,0.08845
4048.44,0.08166
4025.29,0.08612
4002.15,0.10679
3979,0.11883
3955.86,0.12288
3932.71,0.12103
3909.57,0.12506
3886.42,0.12774
3863.28,0.12831
3840.13,0.12595
3816.99,0.11908
3793.84,0.12289
3770.7,0.12805
3747.55,0.13307
3724.41,0.12469
3701.26,0.11828
3678.12,0.11585
3654.97,0.10470
3631.83,0.11726
3608.68,0.13101
3585.54,0.13801
3562.39,0.15049
3539.25,0.14763
3516.1,0.14284
3492.96,0.13670
3469.81,0.12857
3446.67,0.12309
3423.52,0.13123
3400.38,0.13516
3377.23,0.13779
3354.09,0.14059
3330.94,0.13514
3307.8,0.11605
3284.65,0.11765
3261.51,0.11941
3238.36,0.11551
3215.22,0.10783
3192.07,0.09738
3168.93,0.08725
3145.78,0.08360
3122.64,0.07532
3099.49,0.06625
3076.35,0.06501
3053.2,0.06595
3030.06,0.06376
3006.91,0.06735
2983.77,0.06710
2960.62,0.06496
2937.48,0.06300
2914.33,0.06842
2891.19,0.06886
2868.04,0.06788
2844.9,0.06845
2821.75,0.07013
2798.61,0.07155
2775.46,0.07322
2752.32,0.07587
2729.17,0.07517
2706.03,0.07480
2682.88,0.07453
2659.74,0.07440
2636.59,0.07347
2613.45,0.07468
2590.3,0.07524
2567.16,0.07622
2544.02,0.07543
2520.87,0.07507
2497.73,0.07583
2474.58,0.07850
2451.44,0.07998
2428.29,0.08130
2405.15,0.08033
2382,0.07872
2358.86,0.07527
2335.71,0.07128
2312.57,0.07330
2289.42,0.07756
2266.28,0.07861
2243.13,0.07902
2219.99,0.08087
2196.84,0.08225
2173.7,0.08299
2150.55,0.08409
2127.41,0.08646
2104.26,0.08730
2081.12,0.08740
2057.97,0.08509
2034.83,0.08249
2011.68,0.07897
1988.54,0.07128
1965.39,0.06685
1942.25,0.06611
1919.1,0.06928
1895.96,0.06760
1872.81,0.06604
1849.67,0.06903
1826.52,0.06702
1803.38,0.06561
1780.23,0.06726
1757.09,0.06579
1733.94,0.06647
1710.8,0.06713
1687.65,0.06537
1664.51,0.06503
1641.36,0.06514
1618.22,0.06435
1595.07,0.06638
1571.93,0.06607
1548.78,0.06422
1525.64,0.06421
1502.49,0.06055
1479.35,0.06603
1456.2,0.05942
1433.06,0.06800
1409.91,0.06601
1386.77,0.06426
1363.62,0.06512
1340.48,0.06501
1317.33,0.06474
1294.19,0.06490
1271.04,0.06545
1247.9,0.06496
1224.75,0.06485
1201.61,0.06389
1178.46,0.06451
1155.32,0.06447
1132.17,0.06594
1109.03,0.06380
1085.88,0.06330
1062.74,0.06415
1039.59,0.06329
1016.45,0.06610
993.304,0.06438
970.159,0.06321
947.014,0.06345
923.869,0.06267
900.724,0.06331
877.579,0.06221
854.434,0.06143
831.289,0.06056
808.144,0.05903
784.999,0.05467
761.854,0.05507
738.709,0.06535
715.565,0.04943
692.42,0.11254
669.275,0.07412
646.13,0.07020
622.985,0.06770
599.84,0.06758

File: HIPS_IS_S_220901_R6.dpt
7497.03,0.81930
7473.89,0.82781
7450.74,0.80577
7427.6,0.79593
7404.45,0.79277
7381.31,0.80562
7358.16,0.81875
7335.02,0.79961
7311.87,0.77704
7288.73,0.75796
7265.58,0.74352
7242.44,0.73077
7219.29,0.71959
7196.15,0.70670
7173,0.69588
7149.86,0.69570
7126.71,0.68654
7103.57,0.68447
7080.42,0.67674
7057.28,0.67432
7034.13,0.67869
7010.99,0.68529
6987.84,0.69042
6964.7,0.68881
6941.55,0.69412
6918.41,0.69666
6895.26,0.71246
6872.12,0.71308
6848.97,0.72877
6825.83,0.73366
6802.68,0.73365
6779.54,0.74058
6756.39,0.74516
6733.25,0.74284
6710.1,0.75018
6686.96,0.74972
6663.82,0.76320
6640.67,0.76509
6617.53,0.77032
6594.38,0.77294
6571.24,0.77713
6548.09,0.77571
6524.95,0.77850
6501.8,0.79202
6478.66,0.79664
6455.51,0.80501
6432.37,0.80160
6409.22,0.80138
6386.08,0.79440
6362.93,0.78355
6339.79,0.78214
6316.64,0.77693
6293.5,0.76286
6270.35,0.76051
6247.21,0.73945
6224.06,0.71994
6200.92,0.69271
6177.77,0.64321
6154.63,0.56017
6131.48,0.48405
6108.34,0.43126
6085.19,0.43081
6062.05,0.45646
6038.9,0.44350
6015.76,0.33077
5992.61,0.24478
5969.47,0.19627
5946.32,0.19024
5923.18,0.20544
5900.03,0.22105
5876.89,0.26557
5853.74,0.29324
5830.6,0.29794
5807.45,0.29691
5784.31,0.30381
5761.16,0.36057
5738.02,0.40258
5714.87,0.36295
5691.73,0.33649
5668.58,0.31742
5645.44,0.34583
5622.29,0.37902
5599.15,0.37930
5576,0.38175
5552.86,0.38896
5529.71,0.38728
5506.57,0.39203
5483.42,0.40845
5460.28,0.41450
5437.13,0.41198
5413.99,0.40939
5390.84,0.40460
5367.7,0.40464
5344.55,0.41735
5321.41,0.43028
5298.26,0.43462
5275.12,0.43615
5251.97,0.43575
5228.83,0.43584
5205.68,0.44431
5182.54,0.44994
5159.39,0.45270
5136.25,0.44839
5113.1,0.44848
5089.96,0.45292
5066.81,0.45478
5043.67,0.45154
5020.52,0.45536
4997.38,0.45063
4974.23,0.44257
4951.09,0.44471
4927.94,0.44372
4904.8,0.44244
4881.65,0.43338
4858.51,0.42771
4835.36,0.41246
4812.22,0.41474
4789.07,0.40911
4765.93,0.37454
4742.78,0.36496
4719.64,0.31619
4696.49,0.26749
4673.35,0.14881
4650.2,0.15083
4627.06,0.13324
4603.92,0.12786
4580.77,0.16558
4557.63,0.18721
4534.48,0.23238
4511.34,0.23369
4488.19,0.24660
4465.05,0.26225
4441.9,0.24126
4418.76,0.22900
4395.61,0.19504
4372.47,0.15782
4349.32,0.12778
4326.18,0.11901
4303.03,0.13722
4279.89,0.12446
4256.74,0.10460
4233.6,0.10627
4210.45,0.10703
4187.31,0.11569
4164.16,0.12297
4141.02,0.12207
4117.87,0.11355
4094.73,0.10582
4071.58,0.08904
4048.44,0.08174
4025.29,0.08692
4002.15,0.10705
3979,0.11876
3955.86,0.12277
3932.71,0.12027
3909.57,0.12522
3886.42,0.12853
3863.28,0.12853
3840.13,0.12571
3816.99,0.11981
3793.84,0.12275
3770.7,0.12876
3747.55,0.13329
3724.41,0.12526
3701.26,0.11862
3678.12,0.11654
3654.97,0.10439
3631.83,0.11774
3608.68,0.13129
3585.54,0.13795
3562.39,0.15038
3539.25,0.14800
3516.1,0.14357
3492.96,0.13691
3469.81,0.12896
3446.67,0.12390
3423.52,0.13115
3400.38,0.13585
3377.23,0.13827
3354.09,0.14159
3330.94,0.13526
3307.8,0.11640
3284.65,0.11781
3261.51,0.11934
3238.36,0.11613
3215.22,0.10758
3192.07,0.09725
3168.93,0.08691
3145.78,0.08479
3122.64,0.07577
3099.49,0.06656
3076.35,0.06547
3053.2,0.06559
3030.06,0.06402
3006.91,0.06759
2983.77,0.06713
2960.62,0.06558
2937.48,0.06337
2914.33,0.06910
2891.19,0.06867
2868.04,0.06805
2844.9,0.06913
2821.75,0.07024
2798.61,0.07174
2775.46,0.07354
2752.32,0.07607
2729.17,0.07462
2706.03,0.07529
2682.88,0.07454
2659.74,0.07454
2636.59,0.07337
2613.45,0.07530
2590.3,0.07540
2567.16,0.07589
2544.02,0.07571
2520.87,0.07558
2497.73,0.07603
2474.58,0.07856
2451.44,0.08045
2428.29,0.08199
2405.15,0.08032
2382,0.07881
2358.86,0.07582
2335.71,0.07150
2312.57,0.07341
2289.42,0.07782
2266.28,0.07891
2243.13,0.07888
2219.99,0.08129
2196.84,0.08203
2173.7,0.08306
2150.55,0.08407
2127.41,0.08620
2104.26,0.08713
2081.12,0.08826
2057.97,0.08564
2034.83,0.08263
2011.68,0.07944
1988.54,0.07174
1965.39,0.06704
1942.25,0.06614
1919.1,0.06939
1895.96,0.06742
1872.81,0.06616
1849.67,0.06898
1826.52,0.06710
1803.38,0.06541
1780.23,0.06742
1757.09,0.06595
1733.94,0.06624
1710.8,0.06700
1687.65,0.06605
1664.51,0.06541
1641.36,0.06545
1618.22,0.06476
1595.07,0.06608
1571.93,0.06595
1548.78,0.06456
1525.64,0.06424
1502.49,0.06046
1479.35,0.06581
1456.2,0.05933
1433.06,0.06813
1409.91,0.06618
1386.77,0.06473
1363.62,0.06525
1340.48,0.06533
1317.33,0.06489
1294.19,0.06530
1271.04,0.06512
1247.9,0.06538
1224.75,0.06434
1201.61,0.06449
1178.46,0.06467
1155.32,0.06468
1132.17,0.06559
1109.03,0.06436
1085.88,0.06352
1062.74,0.06420
1039.59,0.06323
1016.45,0.06693
993.304,0.06429
970.159,0.06337
947.014,0.06317
923.869,0.06278
900.724,0.06348
877.579,0.06188
854.434,0.06039
831.289,0.06164
808.144,0.05909
784.999,0.05450
761.854,0.05557
738.709,0.06596
715.565,0.04920
692.42,0.11264
669.275,0.07461
646.13,0.06887
622.985,0.06587
599.84,0.06778

File: HIPS_IS_S_220901_R8.dpt
7497.03,0.83112
7473.89,0.81862
7450.74,0.81014
7427.6,0.80031
7404.45,0.80103
7381.31,0.80655
7358.16,0.80791
7335.02,0.78755
7311.87,0.77943
7288.73,0.75530
7265.58,0.73375
7242.44,0.72212
7219.29,0.72032
7196.15,0.69783
7173,0.69218
7149.86,0.69736
7126.71,0.68388
7103.57,0.68148
7080.42,0.66212
7057.28,0.66792
7034.13,0.67775
7010.99,0.68192
6987.84,0.68612
6964.7,0.68377
6941.55,0.68786
6918.41,0.69525
6895.26,0.70901
6872.12,0.71573
6848.97,0.72221
6825.83,0.72761
6802.68,0.72807
6779.54,0.72870
6756.39,0.73782
6733.25,0.73483
6710.1,0.74181
6686.96,0.74733
6663.82,0.75530
6640.67,0.76244
6617.53,0.76542
6594.38,0.76885
6571.24,0.76862
6548.09,0.77132
6524.95,0.77705
6501.8,0.78345
6478.66,0.79045
6455.51,0.79019
6432.37,0.79308
6409.22,0.79563
6386.08,0.79121
6362.93,0.77678
6339.79,0.78016
6316.64,0.77118
6293.5,0.75880
6270.35,0.75726
6247.21,0.73847
6224.06,0.71349
6200.92,0.68488
6177.77,0.64048
6154.63,0.55265
6131.48,0.48228
6108.34,0.42735
6085.19,0.42685
6062.05,0.45282
6038.9,0.44300
6015.76,0.32818
5992.61,0.24542
5969.47,0.19651
5946.32,0.18988
5923.18,0.20504
5900.03,0.22184
5876.89,0.26534
5853.74,0.29220
5830.6,0.29547
5807.45,0.29787
5784.31,0.30216
5761.16,0.35919
5738.02,0.39745
5714.87,0.36161
5691.73,0.33315
5668.58,0.31581
5645.44,0.34509
5622.29,0.37484
5599.15,0.37807
5576,0.37905
5552.86,0.38697
5529.71,0.38587
5506.57,0.39066
5483.42,0.40904
5460.28,0.41300
5437.13,0.40993
5413.99,0.40542
5390.84,0.40160
5367.7,0.40299
5344.55,0.41588
5321.41,0.42677
5298.26,0.43330
5275.12,0.43544
5251.97,0.43468
5228.83,0.43403
5205.68,0.44397
5182.54,0.44888
5159.39,0.45038
5136.25,0.44582
5113.1,0.44533
5089.96,0.44990
5066.81,0.45089
5043.67,0.44976
5020.52,0.45166
4997.38,0.44823
4974.23,0.43860
4951.09,0.44231
4927.94,0.44096
4904.8,0.43983
4881.65,0.43212
4858.51,0.42417
4835.36,0.41051
4812.22,0.41316
4789.07,0.40723
4765.93,0.37249
4742.78,0.36157
4719.64,0.31345
4696.49,0.26615
4673.35,0.14920
4650.2,0.14961
4627.06,0.13164
4603.92,0.12633
4580.77,0.16427
4557.63,0.18569
4534.48,0.23039
4511.34,0.23250
4488.19,0.24536
4465.05,0.26051
4441.9,0.23995
4418.76,0.22726
4395.61,0.19457
4372.47,0.15665
4349.32,0.12776
4326.18,0.11832
4303.03,0.13717
4279.89,0.12326
4256.74,0.10469
4233.6,0.10569
4210.45,0.10678
4187.31,0.11473
4164.16,0.12188
4141.02,0.12191
4117.87,0.11292
4094.73,0.10520
4071.58,0.08909
4048.44,0.08145
4025.29,0.08687
4002.15,0.10675
3979,0.11831
3955.86,0.12264
3932.71,0.12025
3909.57,0.12493
3886.42,0.12773
3863.28,0.12737
3840.13,0.12523
3816.99,0.11916
3793.84,0.12220
3770.7,0.12733
3747.55,0.13350
3724.41,0.12444
3701.26,0.11841
3678.12,0.11617
3654.97,0.10473
3631.83,0.11712
3608.68,0.13131
3585.54,0.13907
3562.39,0.15023
3539.25,0.14723
3516.1,0.14265
3492.96,0.13629
3469.81,0.12848
3446.67,0.12374
3423.52,0.13197
3400.38,0.13535
3377.23,0.13791
3354.09,0.14032
3330.94,0.13426
3307.8,0.11623
3284.65,0.11731
3261.51,0.12014
3238.36,0.11551
3215.22,0.10743
3192.07,0.09710
3168.93,0.08659
3145.78,0.08395
3122.64,0.07623
3099.49,0.06611
3076.35,0.06462
3053.2,0.06575
3030.06,0.06361
3006.91,0.06774
2983.77,0.06716
2960.62,0.06511
2937.48,0.06283
2914.33,0.06813
2891.19,0.06868
2868.04,0.06757
2844.9,0.06874
2821.75,0.07005
2798.61,0.07107
2775.46,0.07328
2752.32,0.07558
2729.17,0.07484
2706.03,0.07471
2682.88,0.07416
2659.74,0.07435
2636.59,0.07316
2613.45,0.07458
2590.3,0.07542
2567.16,0.07609
2544.02,0.07505
2520.87,0.07525
2497.73,0.07561
2474.58,0.07850
2451.44,0.07997
2428.29,0.08142
2405.15,0.08024
2382,0.07832
2358.86,0.07478
2335.71,0.07116
2312.57,0.07292
2289.42,0.07723
2266.28,0.07818
2243.13,0.07869
2219.99,0.08075
2196.84,0.08185
2173.7,0.08295
2150.55,0.08366
2127.41,0.08587
2104.26,0.08677
2081.12,0.08763
2057.97,0.08553
2034.83,0.08215
2011.68,0.07874
1988.54,0.07101
1965.39,0.06685
1942.25,0.06615
1919.1,0.06857
1895.96,0.06744
1872.81,0.06588
1849.67,0.06842
1826.52,0.06678
1803.38,0.06564
1780.23,0.06707
1757.09,0.06565
1733.94,0.06575
1710.8,0.06683
1687.65,0.06533
1664.51,0.06504
1641.36,0.06521
1618.22,0.06459
1595.07,0.06586
1571.93,0.06589
1548.78,0.06426
1525.64,0.06432
1502.49,0.06052
1479.35,0.06564
1456.2,0.05972
1433.06,0.06793
1409.91,0.06606
1386.77,0.06414
1363.62,0.06472
1340.48,0.06496
1317.33,0.06452
1294.19,0.06501
1271.04,0.06506
1247.9,0.06522
1224.75,0.06494
1201.61,0.06391
1178.46,0.06473
1155.32,0.06446
1132.17,0.06534
1109.03,0.06437
1085.88,0.06313
1062.74,0.06417
1039.59,0.06366
1016.45,0.06718
993.304,0.06398
970.159,0.06336
947.014,0.06272
923.869,0.06316
900.724,0.06398
877.579,0.06244
854.434,0.06194
831.289,0.06118
808.144,0.05928
784.999,0.05544
761.854,0.05696
738.709,0.06530
715.565,0.04967
692.42,0.11269
669.275,0.07460
646.13,0.07074
622.985,0.06650
599.84,0.06616