Folder: fsri_materials_database/01_Data/HIPS/FTIR/IS (part 2)

File: HIPS_IS_T_220901_R4.dpt
7497.03,0.02567
7473.89,0.02334
7450.74,0.02339
7427.6,0.02548
7404.45,0.02022
7381.31,0.02912
7358.16,0.01631
7335.02,0.02799
7311.87,0.02391
7288.73,0.01842
7265.58,0.02367
7242.44,0.01914
7219.29,0.02628
7196.15,0.02323
7173,0.03312
7149.86,0.02253
7126.71,0.02370
7103.57,0.01663
7080.42,0.02093
7057.28,0.02934
7034.13,0.02340
7010.99,0.01696
6987.84,0.02012
6964.7,0.02501
6941.55,0.02978
6918.41,0.02548
6895.26,0.02084
6872.12,0.02084
6848.97,0.02339
6825.83,0.02646
6802.68,0.02134
6779.54,0.02063
6756.39,0.02577
6733.25,0.03092
6710.1,0.01836
6686.96,0.02393
6663.82,0.02362
6640.67,0.02191
6617.53,0.02561
6594.38,0.02306
6571.24,0.01843
6548.09,0.02337
6524.95,0.02586
6501.8,0.02072
6478.66,0.02571
6455.51,0.02471
6432.37,0.02286
6409.22,0.01794
6386.08,0.02382
6362.93,0.02202
6339.79,0.02607
6316.64,0.02219
6293.5,0.02140
6270.35,0.01938
6247.21,0.02098
6224.06,0.01887
6200.92,0.02454
6177.77,0.02098
6154.63,0.02479
6131.48,0.02231
6108.34,0.02256
6085.19,0.02419
6062.05,0.02072
6038.9,0.02209
6015.76,0.01939
5992.61,0.02156
5969.47,0.02250
5946.32,0.02164
5923.18,0.02051
5900.03,0.02041
5876.89,0.02221
5853.74,0.02361
5830.6,0.02106
5807.45,0.01876
5784.31,0.02105
5761.16,0.02023
5738.02,0.02146
5714.87,0.02235
5691.73,0.02122
5668.58,0.02262
5645.44,0.02095
5622.29,0.02236
5599.15,0.02381
5576,0.02322
5552.86,0.02240
5529.71,0.02193
5506.57,0.02175
5483.42,0.02044
5460.28,0.02254
5437.13,0.02175
5413.99,0.02269
5390.84,0.02177
5367.7,0.02097
5344.55,0.02187
5321.41,0.02237
5298.26,0.02305
5275.12,0.02269
5251.97,0.02212
5228.83,0.02328
5205.68,0.02372
5182.54,0.02314
5159.39,0.02238
5136.25,0.02205
5113.1,0.02168
5089.96,0.02184
5066.81,0.02308
5043.67,0.02271
5020.52,0.02207
4997.38,0.02180
4974.23,0.02219
4951.09,0.02306
4927.94,0.02237
4904.8,0.02168
4881.65,0.02193
4858.51,0.02362
4835.36,0.02233
4812.22,0.02089
4789.07,0.02294
4765.93,0.02251
4742.78,0.02294
4719.64,0.02180
4696.49,0.02269
4673.35,0.02233
4650.2,0.02304
4627.06,0.02254
4603.92,0.02194
4580.77,0.02229
4557.63,0.02188
4534.48,0.02262
4511.34,0.02220
4488.19,0.02299
4465.05,0.02267
4441.9,0.02238
4418.76,0.02260
4395.61,0.02213
4372.47,0.02252
4349.32,0.02221
4326.18,0.02297
4303.03,0.02206
4279.89,0.02174
4256.74,0.02277
4233.6,0.02236
4210.45,0.02254
4187.31,0.02270
4164.16,0.02280
4141.02,0.02290
4117.87,0.02247
4094.73,0.02268
4071.58,0.02302
4048.44,0.02185
4025.29,0.02343
4002.15,0.02265
3979,0.02239
3955.86,0.02257
3932.71,0.02298
3909.57,0.02208
3886.42,0.02261
3863.28,0.02235
3840.13,0.02287
3816.99,0.02341
3793.84,0.02273
3770.7,0.02245
3747.55,0.02208
3724.41,0.02315
3701.26,0.02242
3678.12,0.02231
3654.97,0.02255
3631.83,0.02206
3608.68,0.02193
3585.54,0.02200
3562.39,0.02099
3539.25,0.02159
3516.1,0.02105
3492.96,0.02059
3469.81,0.02110
3446.67,0.02134
3423.52,0.02072
3400.38,0.02081
3377.23,0.02103
3354.09,0.02072
3330.94,0.02007
3307.8,0.02036
3284.65,0.02071
3261.51,0.02132
3238.36,0.02071
3215.22,0.02058
3192.07,0.02114
3168.93,0.02085
3145.78,0.02104
3122.64,0.02147
3099.49,0.02038
3076.35,0.02100
3053.2,0.02121
3030.06,0.02061
3006.91,0.02034
2983.77,0.02061
2960.62,0.01936
2937.48,0.01975
2914.33,0.02051
2891.19,0.02073
2868.04,0.02077
2844.9,0.02111
2821.75,0.02142
2798.61,0.02100
2775.46,0.02123
2752.32,0.02179
2729.17,0.02134
2706.03,0.02070
2682.88,0.02168
2659.74,0.02176
2636.59,0.02165
2613.45,0.02161
2590.3,0.02131
2567.16,0.02128
2544.02,0.02090
2520.87,0.02132
2497.73,0.02146
2474.58,0.02170
2451.44,0.02092
2428.29,0.02150
2405.15,0.02123
2382,0.02179
2358.86,0.02126
2335.71,0.02095
2312.57,0.02133
2289.42,0.02112
2266.28,0.02110
2243.13,0.02085
2219.99,0.02133
2196.84,0.02116
2173.7,0.02099
2150.55,0.02082
2127.41,0.02104
2104.26,0.02084
2081.12,0.02090
2057.97,0.02107
2034.83,0.02114
2011.68,0.02117
1988.54,0.02079
1965.39,0.02070
1942.25,0.02111
1919.1,0.02055
1895.96,0.02026
1872.81,0.02054
1849.67,0.02028
1826.52,0.02019
1803.38,0.02009
1780.23,0.01931
1757.09,0.01746
1733.94,0.01979
1710.8,0.02093
1687.65,0.01911
1664.51,0.01908
1641.36,0.01873
1618.22,0.01926
1595.07,0.01913
1571.93,0.01865
1548.78,0.01816
1525.64,0.01879
1502.49,0.01920
1479.35,0.01888
1456.2,0.01893
1433.06,0.01904
1409.91,0.01826
1386.77,0.01807
1363.62,0.01825
1340.48,0.01811
1317.33,0.01726
1294.19,0.01804
1271.04,0.01974
1247.9,0.02021
1224.75,0.02003
1201.61,0.01850
1178.46,0.01826
1155.32,0.01780
1132.17,0.01821
1109.03,0.01883
1085.88,0.01798
1062.74,0.02001
1039.59,0.02002
1016.45,0.01973
993.304,0.02067
970.159,0.02033
947.014,0.02063
923.869,0.01977
900.724,0.01945
877.579,0.01893
854.434,0.01879
831.289,0.01868
808.144,0.01948
784.999,0.01902
761.854,0.01863
738.709,0.01805
715.565,0.01837
692.42,0.01751
669.275,0.01715
646.13,0.01751
622.985,0.01451
599.84,0.01364

File: HIPS_IS_T_220901_R5.dpt
7497.03,0.02438
7473.89,0.01465
7450.74,0.01463
7427.6,0.01843
7404.45,0.02028
7381.31,0.01993
7358.16,0.03190
7335.02,0.02480
7311.87,0.01843
7288.73,0.01853
7265.58,0.01934
7242.44,0.02279
7219.29,0.02352
7196.15,0.02809
7173,0.02454
7149.86,0.02479
7126.71,0.02144
7103.57,0.02146
7080.42,0.02008
7057.28,0.02716
7034.13,0.02293
7010.99,0.02102
6987.84,0.02143
6964.7,0.01778
6941.55,0.02387
6918.41,0.02699
6895.26,0.02665
6872.12,0.02268
6848.97,0.02704
6825.83,0.02207
6802.68,0.02136
6779.54,0.02140
6756.39,0.02135
6733.25,0.02051
6710.1,0.02480
6686.96,0.02403
6663.82,0.02243
6640.67,0.02440
6617.53,0.02641
6594.38,0.02186
6571.24,0.02284
6548.09,0.02246
6524.95,0.02151
6501.8,0.02217
6478.66,0.02149
6455.51,0.02116
6432.37,0.02111
6409.22,0.02118
6386.08,0.02233
6362.93,0.02083
6339.79,0.02254
6316.64,0.01891
6293.5,0.02183
6270.35,0.02367
6247.21,0.02108
6224.06,0.01977
6200.92,0.02022
6177.77,0.02332
6154.63,0.02673
6131.48,0.02197
6108.34,0.02112
6085.19,0.02084
6062.05,0.02186
6038.9,0.02067
6015.76,0.02085
5992.61,0.02126
5969.47,0.02356
5946.32,0.01901
5923.18,0.02152
5900.03,0.02233
5876.89,0.02162
5853.74,0.02281
5830.6,0.02238
5807.45,0.02289
5784.31,0.02073
5761.16,0.02337
5738.02,0.02175
5714.87,0.02161
5691.73,0.02021
5668.58,0.02243
5645.44,0.02257
5622.29,0.02293
5599.15,0.02258
5576,0.02115
5552.86,0.02270
5529.71,0.02202
5506.57,0.02119
5483.42,0.02078
5460.28,0.02249
5437.13,0.02113
5413.99,0.02096
5390.84,0.02306
5367.7,0.02199
5344.55,0.02379
5321.41,0.02318
5298.26,0.02054
5275.12,0.02239
5251.97,0.02144
5228.83,0.02301
5205.68,0.02414
5182.54,0.02182
5159.39,0.02260
5136.25,0.02193
5113.1,0.02189
5089.96,0.02137
5066.81,0.02291
5043.67,0.02149
5020.52,0.02224
4997.38,0.02330
4974.23,0.02138
4951.09,0.02325
4927.94,0.02215
4904.8,0.02189
4881.65,0.02211
4858.51,0.02267
4835.36,0.02225
4812.22,0.02190
4789.07,0.02179
4765.93,0.02302
4742.78,0.02303
4719.64,0.02207
4696.49,0.02146
4673.35,0.02144
4650.2,0.02218
4627.06,0.02244
4603.92,0.02196
4580.77,0.02078
4557.63,0.02255
4534.48,0.02226
4511.34,0.02262
4488.19,0.02193
4465.05,0.02177
4441.9,0.02285
4418.76,0.02267
4395.61,0.02192
4372.47,0.02226
4349.32,0.02209
4326.18,0.02151
4303.03,0.02230
4279.89,0.02228
4256.74,0.02232
4233.6,0.02231
4210.45,0.02094
4187.31,0.02240
4164.16,0.02237
4141.02,0.02247
4117.87,0.02293
4094.73,0.02247
4071.58,0.02210
4048.44,0.02239
4025.29,0.02156
4002.15,0.02235
3979,0.02237
3955.86,0.02177
3932.71,0.02283
3909.57,0.02240
3886.42,0.02227
3863.28,0.02260
3840.13,0.02154
3816.99,0.02247
3793.84,0.02173
3770.7,0.02201
3747.55,0.02187
3724.41,0.02223
3701.26,0.02144
3678.12,0.02198
3654.97,0.02115
3631.83,0.02198
3608.68,0.02168
3585.54,0.02154
3562.39,0.02131
3539.25,0.02119
3516.1,0.02136
3492.96,0.02137
3469.81,0.02071
3446.67,0.02033
3423.52,0.02072
3400.38,0.02022
3377.23,0.02023
3354.09,0.01989
3330.94,0.01989
3307.8,0.02097
3284.65,0.01950
3261.51,0.02029
3238.36,0.02077
3215.22,0.02009
3192.07,0.02035
3168.93,0.02086
3145.78,0.02031
3122.64,0.02110
3099.49,0.02076
3076.35,0.02038
3053.2,0.02056
3030.06,0.02015
3006.91,0.02049
2983.77,0.01960
2960.62,0.01924
2937.48,0.01983
2914.33,0.02038
2891.19,0.02049
2868.04,0.02009
2844.9,0.02102
2821.75,0.02162
2798.61,0.02112
2775.46,0.02131
2752.32,0.02084
2729.17,0.02096
2706.03,0.02163
2682.88,0.02110
2659.74,0.02102
2636.59,0.02076
2613.45,0.02128
2590.3,0.02163
2567.16,0.02113
2544.02,0.02093
2520.87,0.02133
2497.73,0.02094
2474.58,0.02099
2451.44,0.02139
2428.29,0.02093
2405.15,0.02082
2382,0.02094
2358.86,0.02087
2335.71,0.02073
2312.57,0.02093
2289.42,0.02104
2266.28,0.02097
2243.13,0.02098
2219.99,0.02099
2196.84,0.02071
2173.7,0.02075
2150.55,0.02104
2127.41,0.02025
2104.26,0.02075
2081.12,0.02097
2057.97,0.02096
2034.83,0.02068
2011.68,0.02096
1988.54,0.02040
1965.39,0.02057
1942.25,0.02082
1919.1,0.02071
1895.96,0.02010
1872.81,0.02057
1849.67,0.01994
1826.52,0.01972
1803.38,0.01983
1780.23,0.01889
1757.09,0.01736
1733.94,0.01939
1710.8,0.02068
1687.65,0.01935
1664.51,0.01871
1641.36,0.01836
1618.22,0.01892
1595.07,0.01855
1571.93,0.01818
1548.78,0.01810
1525.64,0.01834
1502.49,0.01848
1479.35,0.01863
1456.2,0.01876
1433.06,0.01883
1409.91,0.01810
1386.77,0.01763
1363.62,0.01811
1340.48,0.01765
1317.33,0.01696
1294.19,0.01810
1271.04,0.01935
1247.9,0.02044
1224.75,0.01953
1201.61,0.01895
1178.46,0.01836
1155.32,0.01746
1132.17,0.01786
1109.03,0.01858
1085.88,0.01803
1062.74,0.01938
1039.59,0.01979
1016.45,0.01969
993.304,0.02104
970.159,0.02031
947.014,0.01963
923.869,0.01936
900.724,0.01902
877.579,0.01972
854.434,0.01871
831.289,0.01845
808.144,0.01844
784.999,0.01850
761.854,0.01872
738.709,0.01868
715.565,0.01849
692.42,0.01825
669.275,0.01665
646.13,0.01632
622.985,0.01541
599.84,0.01328

File: HIPS_IS_T_220901_R8.dpt
7497.03,0.02436
7473.89,0.02735
7450.74,0.02601
7427.6,0.01640
7404.45,0.01590
7381.31,0.02047
7358.16,0.03025
7335.02,0.02991
7311.87,0.02894
7288.73,0.02542
7265.58,0.02509
7242.44,0.03002
7219.29,0.02460
7196.15,0.01751
7173,0.03218
7149.86,0.02537
7126.71,0.02707
7103.57,0.01578
7080.42,0.02435
7057.28,0.02461
7034.13,0.02412
7010.99,0.02502
6987.84,0.01875
6964.7,0.03174
6941.55,0.02399
6918.41,0.02427
6895.26,0.02607
6872.12,0.02021
6848.97,0.02055
6825.83,0.02676
6802.68,0.02018
6779.54,0.02656
6756.39,0.02536
6733.25,0.02038
6710.1,0.02202
6686.96,0.02656
6663.82,0.02791
6640.67,0.01711
6617.53,0.02244
6594.38,0.02320
6571.24,0.02687
6548.09,0.02448
6524.95,0.02193
6501.8,0.02298
6478.66,0.01883
6455.51,0.01937
6432.37,0.02107
6409.22,0.02490
6386.08,0.02749
6362.93,0.01912
6339.79,0.02246
6316.64,0.01904
6293.5,0.02112
6270.35,0.02366
6247.21,0.02205
6224.06,0.02334
6200.92,0.02167
6177.77,0.02491
6154.63,0.02450
6131.48,0.02319
6108.34,0.02192
6085.19,0.02330
6062.05,0.02148
6038.9,0.02184
6015.76,0.02164
5992.61,0.02414
5969.47,0.02494
5946.32,0.02109
5923.18,0.01901
5900.03,0.02169
5876.89,0.02047
5853.74,0.01960
5830.6,0.01946
5807.45,0.02093
5784.31,0.02334
5761.16,0.02115
5738.02,0.02178
5714.87,0.02031
5691.73,0.02156
5668.58,0.02332
5645.44,0.02283
5622.29,0.02386
5599.15,0.02154
5576,0.02091
5552.86,0.02188
5529.71,0.02242
5506.57,0.02341
5483.42,0.02102
5460.28,0.02264
5437.13,0.02166
5413.99,0.02062
5390.84,0.02125
5367.7,0.02256
5344.55,0.02240
5321.41,0.02300
5298.26,0.02334
5275.12,0.02199
5251.97,0.02093
5228.83,0.02116
5205.68,0.02131
5182.54,0.02256
5159.39,0.02262
5136.25,0.02268
5113.1,0.02062
5089.96,0.02204
5066.81,0.02173
5043.67,0.02153
5020.52,0.02214
4997.38,0.02219
4974.23,0.02307
4951.09,0.02312
4927.94,0.02277
4904.8,0.02232
4881.65,0.02133
4858.51,0.02179
4835.36,0.02189
4812.22,0.02253
4789.07,0.02280
4765.93,0.02243
4742.78,0.02206
4719.64,0.02170
4696.49,0.02285
4673.35,0.02259
4650.2,0.02167
4627.06,0.02216
4603.92,0.02221
4580.77,0.02236
4557.63,0.02151
4534.48,0.02171
4511.34,0.02177
4488.19,0.02274
4465.05,0.02235
4441.9,0.02237
4418.76,0.02223
4395.61,0.02194
4372.47,0.02222
4349.32,0.02163
4326.18,0.02196
4303.03,0.02209
4279.89,0.02208
4256.74,0.02246
4233.6,0.02275
4210.45,0.02317
4187.31,0.02152
4164.16,0.02225
4141.02,0.02194
4117.87,0.02232
4094.73,0.02278
4071.58,0.02195
4048.44,0.02217
4025.29,0.02208
4002.15,0.02247
3979,0.02269
3955.86,0.02245
3932.71,0.02268
3909.57,0.02239
3886.42,0.02205
3863.28,0.02329
3840.13,0.02178
3816.99,0.02229
3793.84,0.02270
3770.7,0.02251
3747.55,0.02255
3724.41,0.02206
3701.26,0.02200
3678.12,0.02308
3654.97,0.02231
3631.83,0.02162
3608.68,0.02182
3585.54,0.02102
3562.39,0.02139
3539.25,0.02098
3516.1,0.02104
3492.96,0.02128
3469.81,0.02094
3446.67,0.02104
3423.52,0.02099
3400.38,0.02061
3377.23,0.02030
3354.09,0.02025
3330.94,0.02025
3307.8,0.01987
3284.65,0.02048
3261.51,0.02045
3238.36,0.02069
3215.22,0.02074
3192.07,0.02083
3168.93,0.02039
3145.78,0.02070
3122.64,0.02127
3099.49,0.02135
3076.35,0.02051
3053.2,0.02098
3030.06,0.02043
3006.91,0.01970
2983.77,0.01967
2960.62,0.01934
2937.48,0.02012
2914.33,0.02013
2891.19,0.02069
2868.04,0.02003
2844.9,0.02111
2821.75,0.02061
2798.61,0.02081
2775.46,0.02091
2752.32,0.02119
2729.17,0.02077
2706.03,0.02117
2682.88,0.02097
2659.74,0.02138
2636.59,0.02112
2613.45,0.02130
2590.3,0.02118
2567.16,0.02075
2544.02,0.02080
2520.87,0.02097
2497.73,0.02108
2474.58,0.02105
2451.44,0.02112
2428.29,0.02083
2405.15,0.02103
2382,0.02154
2358.86,0.02091
2335.71,0.02104
2312.57,0.02020
2289.42,0.02069
2266.28,0.02094
2243.13,0.02074
2219.99,0.02056
2196.84,0.02073
2173.7,0.02077
2150.55,0.02067
2127.41,0.02062
2104.26,0.02110
2081.12,0.02066
2057.97,0.02053
2034.83,0.02075
2011.68,0.02060
1988.54,0.02038
1965.39,0.02063
1942.25,0.02062
1919.1,0.02050
1895.96,0.02042
1872.81,0.01984
1849.67,0.01988
1826.52,0.01984
1803.38,0.01995
1780.23,0.01916
1757.09,0.01735
1733.94,0.01976
1710.8,0.02037
1687.65,0.01914
1664.51,0.01865
1641.36,0.01855
1618.22,0.01872
1595.07,0.01891
1571.93,0.01851
1548.78,0.01817
1525.64,0.01886
1502.49,0.01903
1479.35,0.01846
1456.2,0.01859
1433.06,0.01871
1409.91,0.01834
1386.77,0.01811
1363.62,0.01811
1340.48,0.01762
1317.33,0.01696
1294.19,0.01797
1271.04,0.01939
1247.9,0.02050
1224.75,0.01945
1201.61,0.01845
1178.46,0.01839
1155.32,0.01745
1132.17,0.01837
1109.03,0.01886
1085.88,0.01835
1062.74,0.02054
1039.59,0.02003
1016.45,0.01926
993.304,0.02097
970.159,0.02078
947.014,0.01971
923.869,0.01913
900.724,0.01912
877.579,0.01934
854.434,0.01941
831.289,0.01933
808.144,0.01949
784.999,0.01844
761.854,0.01893
738.709,0.01873
715.565,0.01862
692.42,0.01882
669.275,0.01747
646.13,0.01736
622.985,0.01456
599.84,0.01564