Folder: fsri_materials_database/01_Data/Pine_Siding/Cone (part 2)

File: Pine_Siding_HRRPUA_75.csv
Time after Ignition,Pine_Siding_R1,Pine_Siding_R2,Pine_Siding_R3,Mean,Std. Dev.
0.0,9.3,7.3,18.7,11.8,6.1
2.5,74.8,62.7,63.7,67.1,6.7
5.0,214.2,193.0,162.7,190.0,25.9
7.5,306.1,292.7,277.6,292.2,14.3
10.0,360.4,339.7,342.5,347.5,11.2
12.5,369.7,364.1,373.6,369.1,4.8
15.0,379.6,362.8,369.9,370.8,8.4
17.5,341.4,358.8,352.1,350.8,8.8
20.0,313.7,344.5,332.8,330.3,15.6
22.5,293.2,334.9,307.4,311.8,21.2
25.0,281.4,321.8,291.6,298.3,21.0
27.5,261.1,313.4,282.8,285.8,26.3
30.0,250.2,310.5,272.9,277.8,30.4
32.5,239.6,297.3,254.4,263.8,30.0
35.0,228.5,278.4,242.7,249.9,25.7
37.5,219.2,279.8,233.6,244.2,31.7
40.0,206.4,272.0,221.9,233.5,34.3
42.5,200.3,266.0,217.0,227.8,34.2
45.0,191.8,259.8,211.1,220.9,35.0
47.5,184.6,253.4,203.0,213.7,35.6
50.0,182.5,251.5,199.2,211.1,36.0
52.5,179.7,247.7,198.1,208.5,35.2
55.0,173.2,242.5,192.1,202.6,35.8
57.5,167.5,237.1,191.8,198.8,35.3
60.0,164.2,230.0,187.2,193.8,33.4
62.5,161.4,230.5,187.6,193.2,34.9
65.0,161.1,227.5,185.2,191.2,33.6
67.5,153.6,222.6,178.7,185.0,34.9
70.0,154.3,220.1,177.3,183.9,33.4
72.5,148.6,218.5,175.5,180.9,35.2
75.0,145.7,213.8,170.2,176.6,34.5
77.5,144.5,207.2,169.8,173.8,31.5
80.0,143.4,205.4,167.4,172.1,31.3
82.5,143.8,201.8,167.6,171.1,29.1
85.0,142.9,198.1,165.0,168.6,27.8
87.5,140.1,193.3,163.4,165.6,26.7
90.0,137.7,195.3,158.9,164.0,29.1
92.5,139.7,190.2,160.2,163.4,25.4
95.0,136.2,191.0,160.9,162.7,27.5
97.5,139.7,187.1,159.3,162.0,23.8
100.0,136.1,186.1,156.4,159.5,25.2
102.5,137.1,181.1,152.9,157.0,22.3
105.0,135.7,183.1,152.7,157.2,24.0
107.5,135.2,179.0,149.7,154.6,22.3
110.0,132.4,180.9,149.3,154.2,24.6
112.5,132.5,182.3,148.5,154.4,25.5
115.0,132.1,179.7,148.5,153.4,24.1
117.5,132.8,177.8,148.5,153.0,22.9
120.0,131.8,179.8,147.5,153.0,24.5
122.5,133.9,176.0,144.3,151.4,21.9
125.0,132.3,174.5,144.2,150.3,21.8
127.5,132.6,171.0,141.8,148.5,20.1
130.0,130.3,170.8,141.6,147.6,20.9
132.5,128.7,170.4,141.3,146.8,21.4
135.0,129.5,169.6,141.0,146.7,20.7
137.5,126.7,168.5,138.0,144.4,21.6
140.0,131.2,164.6,137.5,144.4,17.8
142.5,126.8,162.5,136.0,141.7,18.5
145.0,123.9,164.5,134.8,141.1,21.0
147.5,124.8,164.8,134.9,141.5,20.8
150.0,125.9,162.5,133.1,140.5,19.4
152.5,126.7,165.3,134.8,142.3,20.3
155.0,126.9,159.2,132.0,139.4,17.4
157.5,126.3,159.5,130.0,138.6,18.2
160.0,126.1,159.7,129.3,138.4,18.5
162.5,126.9,157.8,128.9,137.9,17.3
165.0,123.5,158.0,129.9,137.1,18.3
167.5,122.8,157.8,129.4,136.7,18.6
170.0,122.5,159.1,131.0,137.5,19.2
172.5,122.3,158.5,132.4,137.7,18.6
175.0,118.3,158.4,129.6,135.4,20.7
177.5,118.6,154.2,127.9,133.6,18.5
180.0,121.1,156.0,126.8,134.6,18.8
182.5,118.3,156.9,127.9,134.4,20.1
185.0,118.9,156.3,126.9,134.0,19.7
187.5,119.5,156.0,125.4,133.7,19.6
190.0,119.0,153.0,126.7,132.9,17.9
192.5,120.3,153.0,124.0,132.4,17.9
195.0,118.6,151.7,124.6,131.6,17.6
197.5,120.4,152.3,125.4,132.7,17.2
200.0,120.6,151.7,127.2,133.2,16.4
202.5,118.6,150.4,126.1,131.7,16.6
205.0,121.2,150.4,126.8,132.8,15.5
207.5,119.9,152.8,124.5,132.4,17.8
210.0,120.5,151.2,124.6,132.1,16.7
212.5,121.8,151.9,123.6,132.4,16.9
215.0,121.4,150.7,124.1,132.1,16.2
217.5,122.5,152.7,124.0,133.1,17.0
220.0,120.6,152.3,125.5,132.8,17.0
222.5,119.7,150.0,123.7,131.1,16.5
225.0,118.4,147.6,124.7,130.2,15.4
227.5,118.0,149.4,122.8,130.1,16.9
230.0,118.3,147.5,124.9,130.2,15.3
232.5,114.0,148.9,126.9,129.9,17.7
235.0,116.2,146.5,125.2,129.3,15.6
237.5,115.8,149.5,124.5,129.9,17.5
240.0,114.4,148.6,124.7,129.2,17.5
242.5,113.3,149.6,127.2,130.0,18.3
245.0,115.6,147.5,126.3,129.8,16.2
247.5,116.1,150.0,125.5,130.5,17.5
250.0,116.6,147.7,126.2,130.2,15.9
252.5,115.9,147.5,126.3,129.9,16.1
255.0,113.5,148.6,124.8,129.0,17.9
257.5,116.4,148.0,126.8,130.4,16.1
260.0,117.8,145.7,125.5,129.7,14.4
262.5,116.2,149.1,125.8,130.4,16.9
265.0,117.3,149.6,124.2,130.3,17.0
267.5,116.3,149.3,127.3,131.0,16.8
270.0,116.9,149.5,126.6,131.0,16.8
272.5,118.2,150.5,126.7,131.8,16.8
275.0,117.8,148.9,126.2,131.0,16.1
277.5,116.9,147.9,124.5,129.8,16.2
280.0,117.9,146.6,124.4,129.6,15.0
282.5,117.5,145.4,125.5,129.5,14.4
285.0,119.1,147.9,124.5,130.5,15.3
287.5,119.7,151.4,127.6,132.9,16.5
290.0,120.9,150.8,124.9,132.2,16.2
292.5,121.6,150.7,123.7,132.0,16.2
295.0,120.1,148.6,126.0,131.6,15.1
297.5,118.9,151.0,124.5,131.5,17.2
300.0,121.3,148.2,126.0,131.9,14.4
302.5,120.4,150.6,127.2,132.7,15.8
305.0,118.8,151.4,126.0,132.1,17.1
307.5,118.4,152.1,125.7,132.1,17.7
310.0,118.5,150.7,127.6,132.3,16.6
312.5,121.3,150.5,126.4,132.7,15.6
315.0,121.4,150.3,127.3,133.0,15.3
317.5,120.3,149.4,125.7,131.8,15.5
320.0,121.9,151.4,123.3,132.2,16.6
322.5,121.2,151.4,125.5,132.7,16.3
325.0,122.4,150.2,126.3,132.9,15.0
327.5,122.1,150.5,125.6,132.7,15.5
330.0,122.6,150.2,128.0,133.6,14.7
332.5,120.5,151.7,129.4,133.9,16.1
335.0,121.9,151.5,129.1,134.1,15.4
337.5,119.1,148.5,128.3,132.0,15.0
340.0,119.4,148.3,129.0,132.2,14.7
342.5,121.4,149.6,133.0,134.7,14.2
345.0,124.1,150.9,130.1,135.0,14.1
347.5,120.4,149.2,127.7,132.4,15.0
350.0,124.4,149.4,129.6,134.5,13.2
352.5,123.5,150.1,129.0,134.2,14.1
355.0,125.1,149.5,127.8,134.2,13.4
357.5,123.3,151.0,130.3,134.9,14.4
360.0,123.7,150.8,128.6,134.3,14.4
362.5,122.8,150.7,129.2,134.3,14.6
365.0,122.2,151.5,129.3,134.4,15.3
367.5,124.9,153.3,130.9,136.4,15.0
370.0,126.6,151.7,131.0,136.4,13.4
372.5,124.8,154.0,133.6,137.5,15.0
375.0,124.0,154.9,131.2,136.7,16.1
377.5,125.7,153.3,132.7,137.2,14.4
380.0,124.4,155.4,134.1,138.0,15.9
382.5,125.1,154.8,135.0,138.3,15.1
385.0,125.2,156.4,133.1,138.2,16.3
387.5,125.3,157.3,135.5,139.4,16.3
390.0,126.6,152.3,134.3,137.7,13.2
392.5,125.7,153.9,137.9,139.2,14.2
395.0,126.8,156.4,132.9,138.7,15.6
397.5,126.1,157.2,136.6,140.0,15.8
400.0,127.3,158.0,136.1,140.5,15.8
402.5,126.2,157.6,137.2,140.4,15.9
405.0,127.6,157.9,136.1,140.5,15.6
407.5,128.5,159.3,134.9,140.9,16.2
410.0,128.4,157.5,133.1,139.7,15.6
412.5,128.9,159.9,137.1,142.0,16.0
415.0,130.4,161.0,137.6,143.0,16.0
417.5,130.9,162.1,139.2,144.1,16.2
420.0,131.0,159.8,141.5,144.1,14.6
422.5,130.5,159.0,140.1,143.2,14.5
425.0,131.1,159.2,139.8,143.4,14.4
427.5,130.0,162.4,139.2,143.9,16.7
430.0,131.8,159.7,139.1,143.5,14.5
432.5,135.0,158.8,140.2,144.7,12.5
435.0,134.7,161.4,141.7,145.9,13.8
437.5,136.6,163.5,141.3,147.1,14.3
440.0,135.7,161.2,143.1,146.7,13.1
442.5,135.4,160.0,142.3,145.9,12.7
445.0,137.0,159.2,143.9,146.7,11.4
447.5,138.7,158.9,144.2,147.3,10.5
450.0,138.7,160.8,141.6,147.0,12.0
452.5,136.4,163.1,143.2,147.6,13.9
455.0,139.4,159.0,144.2,147.5,10.2
457.5,141.4,161.8,145.3,149.5,10.8
460.0,138.6,162.0,144.2,148.3,12.2
462.5,139.1,163.3,146.1,149.5,12.4
465.0,140.6,164.2,146.8,150.5,12.2
467.5,138.7,162.0,146.1,148.9,11.9
470.0,141.4,164.3,149.2,151.6,11.6
472.5,141.1,162.6,150.1,151.3,10.8
475.0,138.9,165.5,149.1,151.2,13.4
477.5,140.2,164.8,151.0,152.0,12.4
480.0,143.5,163.9,147.5,151.6,10.8
482.5,140.0,163.0,149.9,151.0,11.5
485.0,141.4,168.8,147.1,152.5,14.5
487.5,142.5,166.6,150.5,153.2,12.3
490.0,141.2,166.0,154.6,153.9,12.4
492.5,143.1,167.7,157.9,156.2,12.4
495.0,145.7,167.3,155.8,156.3,10.8
497.5,144.9,165.0,158.2,156.0,10.2
500.0,146.1,162.8,160.1,156.4,9.0
502.5,146.9,165.1,159.0,157.0,9.3
505.0,145.5,162.3,161.0,156.3,9.3
507.5,152.1,163.5,161.9,159.2,6.2
510.0,146.9,163.6,159.4,156.6,8.7
512.5,148.0,167.0,158.5,157.8,9.5
515.0,148.4,166.2,155.9,156.8,8.9
517.5,149.2,165.8,157.5,157.5,8.3
520.0,147.2,164.9,158.6,156.9,9.0
522.5,146.7,161.4,157.1,155.1,7.6
525.0,143.1,164.8,160.2,156.0,11.5
527.5,145.8,165.6,157.2,156.2,9.9
530.0,146.4,164.2,160.2,156.9,9.3
532.5,147.2,164.5,159.2,157.0,8.9
535.0,146.0,164.4,160.4,156.9,9.7
537.5,146.6,163.2,157.3,155.7,8.5
540.0,146.8,166.3,158.2,157.1,9.8
542.5,146.0,164.6,157.5,156.1,9.4
545.0,146.2,167.6,158.3,157.4,10.7
547.5,144.3,168.2,153.2,155.2,12.0
550.0,145.2,166.4,155.9,155.9,10.6
552.5,147.4,165.9,155.9,156.4,9.3
555.0,146.9,166.8,155.9,156.5,10.0
557.5,143.7,163.7,155.4,154.3,10.0
560.0,142.6,162.4,153.1,152.7,9.9
562.5,144.2,163.7,151.7,153.2,9.8
565.0,145.0,163.7,152.3,153.7,9.4
567.5,144.8,165.0,153.6,154.5,10.1
570.0,141.7,159.3,151.2,150.8,8.8
572.5,142.4,162.1,148.6,151.0,10.1
575.0,140.1,162.7,148.2,150.3,11.5
577.5,139.8,161.8,143.7,148.4,11.7
580.0,139.5,158.4,144.9,147.6,9.7
582.5,138.1,158.0,141.2,145.8,10.7
585.0,135.0,155.9,141.1,144.0,10.7
587.5,134.6,153.7,134.1,140.8,11.1
590.0,133.4,150.2,133.8,139.2,9.6
592.5,133.3,149.6,131.5,138.1,10.0
595.0,132.6,149.5,130.6,137.6,10.4
597.5,130.1,149.0,131.1,136.7,10.7
600.0,128.5,144.3,126.4,133.1,9.8
602.5,126.9,147.1,119.9,131.3,14.1
605.0,123.7,145.5,119.7,129.6,13.9
607.5,120.6,145.7,115.2,127.2,16.2
610.0,118.5,144.5,113.3,125.4,16.7
612.5,119.9,143.9,112.1,125.3,16.6
615.0,116.8,141.6,108.4,122.3,17.3
617.5,114.1,143.8,106.5,121.5,19.7
620.0,111.9,139.2,103.5,118.2,18.7
622.5,108.9,142.0,101.3,117.4,21.6
625.0,105.9,138.9,98.7,114.5,21.4
627.5,100.7,137.0,95.8,111.2,22.5
630.0,99.3,136.4,92.6,109.4,23.6
632.5,97.5,134.1,88.2,106.6,24.3
635.0,96.0,133.9,84.5,104.8,25.9
637.5,93.7,130.8,80.7,101.7,26.0
640.0,89.2,128.8,78.0,98.7,26.7
642.5,85.4,129.4,74.0,96.3,29.3
645.0,82.3,127.0,70.1,93.1,30.0
647.5,81.4,124.6,66.7,90.9,30.1
650.0,77.5,126.3,64.1,89.3,32.7
652.5,74.8,123.8,60.5,86.4,33.2
655.0,71.0,121.6,58.5,83.7,33.4
657.5,69.4,121.3,55.4,82.0,34.7
660.0,65.8,118.1,54.1,79.3,34.1
662.5,62.0,119.4,51.6,77.7,36.5
665.0,59.6,114.8,51.3,75.2,34.5
667.5,55.6,113.8,50.8,73.4,35.1
670.0,54.5,113.0,50.0,72.5,35.1
672.5,52.9,109.6,49.7,70.7,33.7
675.0,51.2,107.0,48.8,69.0,33.0
677.5,50.3,106.1,49.1,68.5,32.6
680.0,50.3,104.9,49.6,68.3,31.7
682.5,49.3,104.6,,77.0,39.1
685.0,50.0,103.3,,76.7,37.7
687.5,48.8,102.7,,75.7,38.1