Folder: fsri_materials_database/01_Data/Nylon/Cone (part 2)

File: Nylon_HRRPUA_75.csv
Time after Ignition,Nylon_R1,Nylon_R2,Nylon_R3,Mean,Std. Dev.
0.0,22.9,13.5,13.3,16.6,5.5
0.5,29.8,17.8,17.3,21.7,7.1
1.0,38.2,23.1,22.4,27.9,8.9
1.5,47.3,27.0,28.4,34.2,11.3
2.0,57.7,36.0,37.6,43.8,12.1
2.5,69.0,47.2,44.8,53.7,13.3
3.0,77.7,60.0,52.3,63.3,13.0
3.5,86.7,71.1,63.8,73.9,11.7
4.0,93.7,83.2,72.6,83.1,10.5
4.5,105.7,97.2,86.4,96.4,9.7
5.0,117.0,115.8,95.7,109.5,12.0
5.5,129.1,124.7,104.8,119.5,12.9
6.0,137.0,135.5,116.3,129.6,11.6
6.5,143.7,146.6,127.8,139.4,10.1
7.0,156.0,159.1,140.0,151.7,10.3
7.5,175.5,169.1,148.3,164.3,14.2
8.0,177.3,182.6,161.4,173.7,11.0
8.5,200.3,192.4,174.5,189.1,13.2
9.0,212.4,205.1,188.4,202.0,12.3
9.5,230.6,218.7,201.2,216.8,14.8
10.0,247.8,238.7,222.0,236.1,13.1
10.5,250.3,249.3,227.8,242.5,12.7
11.0,270.8,262.2,247.8,260.3,11.6
11.5,277.3,283.6,266.3,275.7,8.7
12.0,292.4,296.0,275.8,288.1,10.8
12.5,312.7,311.8,287.3,303.9,14.4
13.0,330.9,319.0,297.7,315.9,16.8
13.5,338.0,338.7,315.9,330.9,12.9
14.0,348.8,346.9,316.5,337.4,18.1
14.5,354.8,365.0,338.4,352.7,13.4
15.0,376.9,364.6,352.0,364.5,12.5
15.5,384.6,392.7,365.7,381.0,13.9
16.0,403.0,398.6,371.7,391.1,16.9
16.5,387.7,419.8,377.4,395.0,22.1
17.0,416.6,443.3,383.7,414.5,29.9
17.5,419.1,447.0,400.4,422.2,23.4
18.0,427.2,458.2,427.5,437.6,17.8
18.5,441.3,466.0,435.8,447.7,16.1
19.0,450.3,481.3,445.4,459.0,19.5
19.5,449.3,478.6,436.3,454.7,21.7
20.0,456.6,488.8,462.8,469.4,17.1
20.5,460.0,507.7,461.2,476.3,27.2
21.0,473.0,526.9,476.5,492.1,30.2
21.5,484.5,537.8,482.0,501.4,31.5
22.0,486.7,544.5,513.7,515.0,28.9
22.5,489.6,571.4,509.9,523.6,42.6
23.0,514.8,560.5,514.2,529.8,26.6
23.5,506.9,569.6,527.8,534.8,31.9
24.0,542.5,589.3,579.1,570.3,24.6
24.5,534.0,611.9,559.5,568.5,39.7
25.0,547.1,618.2,577.4,580.9,35.7
25.5,557.6,614.8,581.1,584.5,28.7
26.0,547.3,638.4,591.1,592.3,45.5
26.5,560.1,651.1,602.7,604.6,45.5
27.0,565.1,658.2,617.7,613.7,46.7
27.5,573.7,658.4,625.0,619.0,42.7
28.0,576.7,692.8,606.7,625.4,60.2
28.5,607.9,657.4,631.6,632.3,24.7
29.0,610.6,720.5,639.6,656.9,57.0
29.5,630.7,717.9,632.1,660.2,49.9
30.0,664.3,715.1,657.3,678.9,31.5
30.5,622.0,715.5,658.1,665.2,47.2
31.0,668.9,754.2,676.6,699.9,47.2
31.5,676.4,763.4,689.6,709.8,46.9
32.0,688.4,756.2,702.7,715.8,35.8
32.5,691.8,763.7,729.5,728.4,36.0
33.0,705.1,759.0,707.7,724.0,30.4
33.5,730.6,742.8,738.1,737.2,6.2
34.0,720.1,767.6,731.1,739.6,24.9
34.5,741.9,796.2,723.1,753.8,38.0
35.0,693.2,780.9,747.1,740.4,44.3
35.5,725.8,761.2,718.8,735.2,22.8
36.0,694.5,778.4,735.2,736.0,41.9
36.5,723.6,788.0,725.1,745.6,36.8
37.0,741.2,778.6,724.7,748.1,27.6
37.5,784.0,761.5,720.6,755.3,32.2
38.0,732.2,757.7,712.7,734.2,22.6
38.5,752.9,766.1,704.8,741.3,32.2
39.0,772.8,771.0,723.2,755.7,28.2
39.5,783.5,757.4,686.7,742.5,50.1
40.0,774.8,765.5,693.8,744.7,44.3
40.5,775.3,771.3,727.1,757.9,26.7
41.0,783.6,748.1,734.0,755.2,25.5
41.5,800.2,746.0,716.9,754.4,42.3
42.0,789.5,758.7,731.0,759.7,29.3
42.5,790.9,751.9,719.9,754.2,35.6
43.0,761.8,774.7,717.8,751.4,29.8
43.5,806.1,774.5,747.4,776.0,29.4
44.0,785.2,796.7,727.4,769.8,37.1
44.5,793.1,780.4,716.4,763.3,41.1
45.0,794.0,801.5,740.7,778.8,33.2
45.5,845.0,786.2,719.3,783.5,62.9
46.0,788.1,816.1,742.5,782.2,37.1
46.5,809.6,793.5,752.2,785.1,29.6
47.0,789.0,780.9,767.9,779.3,10.7
47.5,806.7,832.1,777.0,805.3,27.6
48.0,854.5,784.0,783.7,807.4,40.8
48.5,851.9,813.5,791.0,818.8,30.8
49.0,858.8,836.4,785.1,826.8,37.8
49.5,878.9,817.1,777.1,824.4,51.3
50.0,909.4,863.9,800.9,858.1,54.5
50.5,1005.8,806.2,794.5,868.8,118.8
51.0,930.3,871.6,832.4,878.1,49.2
51.5,998.1,864.8,827.4,896.8,89.7
52.0,928.3,966.1,818.8,904.4,76.5
52.5,960.3,930.1,843.2,911.2,60.8
53.0,978.0,954.8,882.8,938.5,49.6
53.5,1011.1,981.3,883.2,958.5,66.9
54.0,1016.2,953.9,888.3,952.8,64.0
54.5,1030.6,906.1,883.9,940.2,79.1
55.0,1087.8,933.4,899.0,973.4,100.6
55.5,1026.0,894.3,910.8,943.7,71.8
56.0,1139.7,949.5,913.2,1000.8,121.6
56.5,1135.0,944.4,905.0,994.8,123.0
57.0,1092.3,970.8,900.6,987.9,97.0
57.5,1107.9,1009.4,923.2,1013.5,92.4
58.0,1118.5,1003.7,962.1,1028.1,81.0
58.5,1105.5,1037.9,985.6,1043.0,60.1
59.0,1197.5,1016.0,970.9,1061.4,119.9
59.5,1255.4,1047.6,1051.1,1118.0,119.0
60.0,1150.2,1080.5,1031.7,1087.5,59.6
60.5,1227.5,1062.0,955.0,1081.5,137.3
61.0,1288.4,1114.5,1009.1,1137.4,141.0
61.5,1317.6,1108.2,1064.4,1163.4,135.3
62.0,1269.2,1165.6,1071.1,1168.6,99.1
62.5,1275.7,1142.2,1035.4,1151.1,120.4
63.0,1280.5,1165.2,1092.4,1179.4,94.8
63.5,1364.9,1132.0,1093.2,1196.7,146.9
64.0,1257.2,1192.0,1076.5,1175.2,91.5
64.5,1321.0,1162.3,1118.3,1200.5,106.6
65.0,1338.5,1160.4,1064.0,1187.6,139.3
65.5,1368.9,1299.7,1167.0,1278.5,102.6
66.0,1341.1,1294.4,1121.4,1252.3,115.7
66.5,1378.9,1130.1,1074.9,1194.6,161.9
67.0,1433.3,1201.6,1195.1,1276.6,135.7
67.5,1332.1,1236.1,1170.5,1246.2,81.3
68.0,1343.6,1252.8,1173.2,1256.5,85.3
68.5,1369.2,1198.9,1130.7,1232.9,122.9
69.0,1431.1,1266.8,1177.0,1291.6,128.9
69.5,1457.9,1282.9,1174.4,1305.1,143.1
70.0,1334.1,1255.4,1177.9,1255.8,78.1
70.5,1333.9,1323.2,1255.2,1304.1,42.7
71.0,1690.0,1278.9,1282.9,1417.3,236.2
71.5,1457.5,1323.7,1165.6,1315.6,146.1
72.0,1395.1,1316.4,1280.4,1330.6,58.6
72.5,1446.2,1439.2,1201.0,1362.1,139.6
73.0,1552.6,1399.2,1290.6,1414.2,131.6
73.5,1628.6,1466.7,1254.4,1449.9,187.7
74.0,1393.7,1414.7,1306.8,1371.7,57.2
74.5,1537.7,1397.4,1316.4,1417.2,112.0
75.0,1409.7,1473.3,1350.9,1411.3,61.2
75.5,1541.7,1478.9,1376.6,1465.7,83.3
76.0,1621.9,1532.4,1425.6,1526.7,98.3
76.5,1601.1,1405.8,1447.5,1484.8,102.9
77.0,1436.6,1442.2,1423.0,1434.0,9.9
77.5,1628.4,1531.2,1425.9,1528.5,101.3
78.0,1655.0,1489.4,1405.3,1516.6,127.1
78.5,1654.1,1545.8,1436.3,1545.4,108.9
79.0,1518.3,1474.8,1470.9,1488.0,26.3
79.5,1664.3,1677.9,1522.3,1621.5,86.2
80.0,1644.8,1545.5,1430.9,1540.4,107.0
80.5,1593.6,1631.5,1524.3,1583.1,54.4
81.0,1629.2,1725.3,1499.6,1618.0,113.3
81.5,1729.6,1493.5,1465.8,1562.9,145.0
82.0,1547.5,1603.2,1605.0,1585.2,32.6
82.5,1633.5,1492.2,1515.4,1547.1,75.8
83.0,1599.0,1593.1,1586.9,1593.0,6.0
83.5,1722.4,1699.3,1562.1,1661.3,86.6
84.0,1587.0,1692.1,1617.0,1632.0,54.2
84.5,1803.0,1834.8,1596.3,1744.7,129.5
85.0,1811.0,1679.1,1633.7,1707.9,92.1
85.5,1641.1,1747.6,1523.2,1637.3,112.2
86.0,1652.3,1881.4,1594.3,1709.3,151.8
86.5,1747.2,1843.2,1553.2,1714.5,147.7
87.0,1775.9,1840.7,1590.3,1735.6,130.0
87.5,1716.4,1775.8,1593.5,1695.3,93.0
88.0,1829.6,1713.8,1669.5,1737.6,82.6
88.5,1733.4,1580.7,1732.8,1682.3,88.0
89.0,1766.3,1628.7,1723.6,1706.2,70.4
89.5,1754.2,1701.2,1660.3,1705.3,47.1
90.0,1795.8,1722.9,1672.7,1730.5,61.9
90.5,1650.8,1700.8,1606.0,1652.5,47.5
91.0,1809.3,1794.8,1573.6,1725.9,132.1
91.5,1667.4,1803.1,1653.9,1708.1,82.5
92.0,1804.2,1846.1,1672.7,1774.3,90.5
92.5,1686.3,1770.7,1669.6,1708.9,54.2
93.0,1808.1,1657.0,1642.6,1702.6,91.7
93.5,1700.1,1702.4,1553.6,1652.0,85.3
94.0,1554.8,1780.2,1673.5,1669.5,112.7
94.5,1635.7,1581.0,1648.3,1621.7,35.8
95.0,1687.6,1682.2,1707.2,1692.4,13.2
95.5,1656.2,1667.0,1625.0,1649.4,21.8
96.0,1584.3,1738.4,1568.5,1630.4,93.9
96.5,1702.4,1610.6,1662.2,1658.4,46.0
97.0,1711.3,1720.4,1503.9,1645.2,122.5
97.5,1581.1,1756.1,1687.4,1674.9,88.2
98.0,1662.8,1658.1,1601.8,1640.9,34.0
98.5,1610.2,1698.5,1614.1,1640.9,49.9
99.0,1588.5,1642.5,1557.0,1596.0,43.2
99.5,1615.3,1714.8,1499.7,1609.9,107.6
100.0,1532.4,1715.5,1659.1,1635.7,93.8
100.5,1623.6,1606.6,1529.5,1586.6,50.1
101.0,1506.9,1581.4,1674.7,1587.7,84.0
101.5,1571.8,1555.5,1519.5,1548.9,26.8
102.0,1470.4,1534.0,1545.5,1516.7,40.5
102.5,1446.9,1473.9,1586.3,1502.4,74.0
103.0,1431.8,1502.6,1447.7,1460.7,37.1
103.5,1365.2,1443.6,1559.6,1456.1,97.8
104.0,1374.0,1405.0,1467.1,1415.4,47.4
104.5,1334.6,1488.7,1534.7,1452.7,104.8
105.0,1290.6,1422.6,1480.9,1398.0,97.5
105.5,1263.9,1427.5,1472.2,1387.9,109.7
106.0,1166.3,1360.8,1547.5,1358.2,190.6
106.5,1146.6,1358.7,1430.2,1311.9,147.5
107.0,1122.0,1242.2,1398.8,1254.3,138.8
107.5,1079.0,1270.6,1493.5,1281.1,207.4
108.0,1093.3,1226.0,1368.8,1229.4,137.8
108.5,1062.4,1220.6,1485.3,1256.1,213.7
109.0,1063.1,1215.0,1398.0,1225.4,167.7
109.5,1012.8,1235.9,1341.8,1196.8,168.0
110.0,993.5,1179.4,1372.9,1182.0,189.7
110.5,969.6,1161.4,1378.6,1169.9,204.6
111.0,957.9,1141.5,1333.9,1144.4,188.1
111.5,915.3,1165.3,1343.7,1141.4,215.2
112.0,915.3,1169.4,1313.1,1132.6,201.4
112.5,875.5,1142.3,1255.2,1091.0,195.0
113.0,830.2,1137.8,1340.6,1102.9,257.0
113.5,819.2,1131.9,1210.5,1053.8,207.0
114.0,778.1,1100.1,1300.3,1059.5,263.5
114.5,762.6,1050.6,1233.8,1015.7,237.5
115.0,711.7,1056.6,1220.9,996.4,259.9
115.5,690.7,1022.1,1141.4,951.4,233.5
116.0,667.9,996.7,1151.6,938.7,247.0
116.5,658.1,976.1,1126.2,920.1,239.0
117.0,632.0,976.8,1053.9,887.5,224.7
117.5,589.1,930.8,1039.6,853.2,235.1
118.0,560.2,907.2,1035.0,834.1,245.7
118.5,545.0,903.7,990.0,812.9,236.0
119.0,510.3,864.3,1001.8,792.1,253.6
119.5,477.4,847.0,966.9,763.8,255.2
120.0,451.6,817.6,934.7,734.6,252.0
120.5,415.1,790.9,914.6,706.9,260.1
121.0,390.1,781.3,888.7,686.7,262.5
121.5,354.9,728.8,852.2,645.3,258.9
122.0,334.0,710.4,816.1,620.2,253.4
122.5,307.3,692.0,796.9,598.7,257.8
123.0,280.3,664.4,765.0,569.9,255.8
123.5,252.4,637.9,720.4,536.9,249.8
124.0,228.3,594.8,694.5,505.9,245.5
124.5,207.1,591.5,673.1,490.6,248.8
125.0,187.1,557.8,631.4,458.7,238.1
125.5,169.0,537.3,627.7,444.7,243.0
126.0,152.9,496.4,594.0,414.4,231.7
126.5,137.7,467.7,574.5,393.3,227.7
127.0,126.3,439.0,554.5,373.3,221.5
127.25,119.2,419.3,536.1,358.2,215.0