Folder: fsri_materials_database/01_Data/Wool_Rug/Cone

Note: README.md
# Materials and Products Database
### Repository of materials and products properties and fire test data to improve fire modeling and fire investigation.

This project was supported in part by Award No. 2019-DU-BX-0018, awarded by the National Institute of Justice, Office of Justice Programs, U.S. Department of Justice. The opinions, findings, and conclusions or recommendations expressed in this publication / program / exhibition are those of the author(s) and do not necessarily reflect those of the Department of Justice.

***
***

__Cite this database:__ "McKinnon, M., Weinschenk, C., Dow, N., DiDomizio, M., and Madrzykowski, D. Materials and Products Database (Version 1.0.0), Fire Safety Research Institute, UL Research Institutes. Columbia, MD 21045, 2023."

__Cite the Technical Reference Guide:__ "McKinnon, M., Weinschenk, C., and Madrzykowski, D. Materials and Products Database - Technical Reference Guide, Fire Safety Research Institute, UL Research Institutes. Columbia, MD 21045, 2023."

__Cite the User Guide:__ "McKinnon, M., and Weinschenk, C. Materials and Products Database - User Guide, Fire Safety Research Institute, UL Research Institutes. Columbia, MD 21045, 2023."

***
***

## Database Structure

## 01_Data/
Raw data generated from each apparatus are included here in plain-text format. The data is organized first by material, next by the short name of test apparatus used, and where applicable additional filtering by test settings.

### Test Apparatus and Data File Structure
- __Cone Calorimeter__ (Cone)
    + Data file structure includes the material, the short name for the apparatus, heat flux setting and scan/scalar, date of test, and replicate number. Scan is for the raw output data and scalar is for the initial conditions and high-level test parameters. 
        * Example: __MDF_Cone_HF25scalar_210323_R1__ stands for the first replicate of scalar data generated from a medium density fiber board test in cone calorimeter exposed to 25 kW/m<sup>2</sup> on March 23, 2021.
    + A _Cone_Notes.csv_ is generated for each material from the __plot_Cone_data.py__ script. For materials whose experiments deviated from typical behavior relevant pictures are included in the respective material directory.
- __Fourier Transform Infrared Spectrometer__ (FTIR)
    + The FTIR directory contains subdirectories for the Attenuated Total Reflectance method (ATR) and the Integrating Sphere (IS)
    + Data file structure for the ATR experiment files includes the material, the abbreviated name for the apparatus, date of test, and replicate number. 
        * Example: __MDF_ATR_210323_R5__ stands for the fifth replicate of data collected with the ATR accessory conducted on June 8, 2021.
    + Data file structure for the IS experiment files includes the material, the abbreviated name for the apparatus, the measurand, whether the test is a sample measurement or standard reference, date of test, and replicate number.
        * Example: __OSB_IS_REFLECT_MEAS_2

File: Wool_Rug_HRRPUA_25.csv
Time after Ignition,Wool_Rug_R1,Wool_Rug_R2,Wool_Rug_R3,Wool_Rug_R4,Mean,Std. Dev.
0.0,104.4,23.8,30.6,20.6,44.9,39.9
1.75,109.4,64.8,72.9,66.9,78.5,20.9
3.5,114.4,107.2,114.4,113.5,112.4,3.5
5.25,119.5,131.1,140.7,145.7,134.2,11.5
7.0,123.0,136.7,144.5,159.0,140.8,15.0
8.75,122.9,127.3,148.0,169.3,141.9,21.3
10.5,127.1,114.2,136.2,159.8,134.3,19.3
12.25,128.1,99.5,119.4,145.4,123.1,19.1
14.0,128.4,85.4,99.1,130.9,110.9,22.4
15.75,130.7,71.1,82.2,117.3,100.3,28.2
17.5,131.9,61.3,65.1,104.1,90.6,33.7
19.25,132.7,52.9,50.4,92.9,82.2,38.9
21.0,130.7,46.5,37.7,83.4,74.6,42.3
22.75,131.8,40.6,29.7,75.9,69.5,45.9
24.5,131.7,36.1,21.8,68.3,64.5,48.9
26.25,130.7,32.1,15.7,61.8,60.1,50.8
28.0,132.5,29.0,10.2,55.8,56.9,53.8
29.75,130.5,27.3,6.9,52.7,54.3,54.1
31.5,128.3,25.6,3.7,48.9,51.6,54.3
33.25,124.3,25.0,2.5,44.3,49.0,53.0
35.0,124.1,24.3,1.5,42.2,48.0,53.4
36.75,123.9,22.8,1.0,39.1,46.7,53.8
38.5,123.6,21.8,0.8,36.7,45.7,54.0
40.25,122.4,21.5,0.1,34.4,44.6,53.7
42.0,121.5,20.9,-0.4,32.2,43.5,53.7
43.75,121.9,19.9,-0.7,29.4,42.6,54.3
45.5,118.5,19.5,-0.8,27.5,41.2,52.9
47.25,118.7,17.9,-0.8,26.2,40.5,53.3
49.0,118.1,15.6,-0.8,24.9,39.5,53.5
50.75,115.9,14.0,-1.1,24.0,38.2,52.8
52.5,117.1,13.1,-0.8,23.3,38.2,53.5
54.25,116.4,12.8,-0.4,23.2,38.0,53.1
56.0,112.2,11.4,0.3,23.4,36.8,51.1
57.75,112.7,9.7,0.4,23.8,36.7,51.6
59.5,112.5,8.2,0.6,24.4,36.4,51.7
61.25,111.0,7.6,0.8,24.4,36.0,51.0
63.0,111.5,6.6,0.9,24.4,35.9,51.4
64.75,109.8,5.4,1.5,23.5,35.1,50.8
66.5,109.5,4.9,2.5,23.3,35.0,50.5
68.25,109.8,4.6,3.2,23.7,35.3,50.6
70.0,107.7,4.5,3.5,23.3,34.8,49.5
71.75,107.4,4.4,3.7,24.3,35.0,49.3
73.5,107.2,4.3,4.1,25.3,35.2,49.0
75.25,103.3,4.3,4.7,25.8,34.5,46.9
77.0,103.3,4.7,4.9,25.7,34.6,46.8
78.75,102.5,5.3,5.1,25.9,34.7,46.2
80.5,100.4,5.9,4.8,25.9,34.3,45.2
82.25,97.7,6.6,5.0,26.7,34.0,43.6
84.0,98.0,7.8,6.5,28.0,35.1,43.1
85.75,97.9,8.5,8.0,29.3,35.9,42.5
87.5,96.3,9.3,10.4,30.0,36.5,41.0
89.25,95.2,10.1,13.7,30.9,37.5,39.5
91.0,92.5,10.8,16.3,31.2,37.7,37.5
92.75,90.4,12.4,18.8,32.3,38.5,35.6
94.5,91.2,13.5,24.5,33.5,40.7,34.7
96.25,91.7,14.4,29.1,34.5,42.4,33.9
98.0,90.3,15.0,33.6,35.6,43.6,32.5
99.75,89.9,15.9,36.0,37.3,44.8,31.6
101.5,88.2,17.6,37.9,39.1,45.7,30.0
103.25,87.2,19.5,40.1,39.8,46.6,28.7
105.0,85.3,20.4,40.8,41.4,47.0,27.3
106.75,84.5,21.3,43.0,41.9,47.7,26.5
108.5,83.3,23.0,43.8,43.6,48.4,25.2
110.25,82.7,25.9,45.3,44.3,49.6,23.8
112.0,80.2,28.0,44.1,43.9,49.1,22.1
113.75,80.6,30.0,43.2,45.1,49.7,21.7
115.5,79.8,31.0,42.8,45.0,49.6,21.0
117.25,76.9,30.7,41.1,45.0,48.4,19.9
119.0,76.6,31.5,39.3,46.4,48.5,19.7
120.75,76.4,31.0,37.8,46.7,48.0,20.0
122.5,77.1,31.1,36.0,47.5,48.0,20.6
124.25,76.8,30.6,34.4,48.2,47.5,20.9
126.0,76.8,30.1,32.3,48.7,47.0,21.5
127.75,76.3,31.2,31.0,48.4,46.8,21.3
129.5,75.4,32.9,29.2,47.0,46.1,21.0
131.25,76.2,33.8,27.2,46.1,45.8,21.7
133.0,75.1,34.1,25.5,44.2,44.7,21.6
134.75,76.5,33.3,23.7,43.7,44.3,23.0
136.5,76.9,34.5,23.4,42.1,44.2,23.1
138.25,75.5,34.8,22.6,41.0,43.5,22.7
140.0,76.9,35.1,22.6,40.4,43.8,23.3
141.75,76.8,35.4,22.4,39.2,43.4,23.4
143.5,79.0,35.8,22.4,38.3,43.9,24.5
145.25,77.9,35.5,23.0,37.5,43.5,23.9
147.0,77.8,35.6,23.4,36.5,43.3,23.7
148.75,76.3,35.1,23.9,35.6,42.7,23.0
150.5,74.8,34.4,23.4,35.0,41.9,22.6
152.25,74.3,33.9,23.9,34.5,41.6,22.3
154.0,73.6,32.9,24.0,34.8,41.3,22.0
155.75,72.7,32.7,24.8,33.8,41.0,21.5
157.5,71.7,31.6,25.0,33.9,40.5,21.1
159.25,71.6,31.5,26.0,33.3,40.6,20.9
161.0,70.2,30.5,26.0,33.3,40.0,20.4
162.75,70.1,30.1,26.5,35.0,40.4,20.1
164.5,70.2,29.1,26.8,34.1,40.1,20.3
166.25,69.0,28.8,27.3,34.6,39.9,19.6
168.0,69.6,28.7,27.6,34.5,40.1,19.9
169.75,66.8,28.6,28.1,34.5,39.5,18.4
171.5,65.3,27.0,26.9,34.5,38.4,18.3
173.25,65.3,26.2,26.6,35.4,38.4,18.4
175.0,63.2,25.5,26.7,34.7,37.5,17.6
176.75,61.8,25.1,26.9,35.3,37.3,17.0
178.5,61.4,24.6,26.8,34.6,36.9,16.9
180.25,60.8,24.3,26.5,33.8,36.3,16.8
182.0,61.0,23.7,26.2,34.1,36.3,17.1
183.75,61.7,22.0,26.0,34.1,36.0,17.9
185.5,61.7,21.8,25.3,34.2,35.7,18.1
187.25,61.0,21.5,25.7,34.0,35.6,17.7
189.0,60.8,21.5,26.1,33.9,35.6,17.6
190.75,62.0,21.0,26.5,33.7,35.8,18.3
192.5,60.6,20.4,26.9,33.9,35.5,17.7
194.25,61.5,20.5,26.3,34.2,35.6,18.1
196.0,61.6,21.1,26.0,34.5,35.8,18.1
197.75,59.7,21.7,25.7,34.1,35.3,17.1
199.5,59.7,21.9,25.0,34.6,35.3,17.2
201.25,58.4,21.7,24.2,34.3,34.7,16.7
203.0,58.0,21.4,24.3,34.5,34.5,16.6
204.75,57.7,21.1,24.1,34.8,34.4,16.6
206.5,57.5,20.4,24.2,34.4,34.1,16.7
208.25,57.9,19.6,24.3,34.5,34.1,17.1
210.0,58.2,19.3,24.3,34.0,33.9,17.3
211.75,58.7,19.6,24.1,33.4,34.0,17.5
213.5,58.6,19.6,24.1,33.1,33.9,17.4
215.25,60.1,19.8,24.4,32.8,34.3,18.0
217.0,60.2,19.5,24.6,32.4,34.2,18.2
218.75,62.1,19.9,24.3,32.4,34.7,19.0
220.5,62.1,21.0,24.1,32.0,34.8,18.8
222.25,61.2,21.6,24.2,32.3,34.8,18.2
224.0,61.5,21.8,23.8,32.9,35.0,18.3
225.75,60.6,21.8,24.0,31.8,34.5,17.9
227.5,61.3,21.1,24.0,31.3,34.4,18.4
229.25,60.5,20.6,23.4,31.3,34.0,18.3
231.0,61.0,20.9,23.3,31.3,34.1,18.4
232.75,62.8,20.4,22.9,31.9,34.5,19.5
234.5,64.3,20.4,22.3,31.5,34.6,20.4
236.25,65.6,19.8,21.9,31.8,34.8,21.2
238.0,65.0,20.4,21.9,31.3,34.7,20.8
239.75,65.3,20.6,21.9,30.4,34.5,20.9
241.5,64.6,21.0,21.7,30.6,34.5,20.5
243.25,64.4,20.8,22.2,31.0,34.6,20.4
245.0,64.4,20.9,22.3,30.5,34.5,20.4
246.75,62.1,20.5,21.2,31.2,33.8,19.5
248.5,61.4,20.2,17.8,31.6,32.8,20.0
250.25,60.5,21.2,13.5,31.4,31.7,20.6
252.0,60.7,21.5,11.0,31.4,31.2,21.4
253.75,59.7,21.8,8.7,30.8,30.2,21.6
255.5,59.4,22.0,7.1,30.2,29.7,22.0
257.25,59.2,22.3,6.2,29.9,29.4,22.2
259.0,58.6,22.6,5.2,30.0,29.1,22.2
260.75,59.2,23.0,4.6,29.7,29.1,22.7
262.5,58.8,22.8,3.7,29.5,28.7,22.9
264.25,58.6,23.3,2.6,29.6,28.5,23.1
266.0,57.2,22.4,1.5,30.3,27.8,23.0
267.75,56.5,22.0,1.0,30.9,27.6,23.0
269.5,54.3,22.2,0.7,30.2,26.9,22.1
271.25,55.3,22.5,0.6,29.6,27.0,22.5
273.0,53.7,23.2,0.4,28.0,26.3,21.9
274.75,53.3,24.1,0.2,27.2,26.2,21.7
276.5,53.2,25.2,0.8,26.8,26.5,21.4
278.25,53.3,25.4,1.1,26.5,26.6,21.3
280.0,52.2,25.8,1.9,25.9,26.4,20.5
281.75,52.5,25.7,2.4,25.5,26.5,20.5
283.5,52.0,24.7,2.9,24.3,25.9,20.1
285.25,50.9,23.7,3.6,23.2,25.3,19.5
287.0,49.9,23.3,3.9,22.5,24.9,18.9
288.75,48.4,22.8,4.5,21.5,24.3,18.1
290.5,46.5,22.3,4.8,21.4,23.8,17.2
292.25,44.3,22.0,5.0,21.0,23.1,16.2
294.0,43.7,21.5,5.2,20.9,22.8,15.8
295.75,42.7,21.3,4.5,21.0,22.4,15.7
297.5,42.0,21.6,3.3,21.1,22.0,15.8
299.25,41.3,21.8,2.3,21.1,21.6,15.9
301.0,40.8,20.9,1.8,21.6,21.3,15.9
302.75,40.5,21.6,2.2,21.5,21.5,15.7
304.5,39.6,21.2,3.2,21.0,21.2,14.8
306.25,39.0,20.8,3.8,20.9,21.1,14.4
308.0,38.1,20.8,4.0,20.1,20.8,13.9
309.75,38.2,19.9,4.1,19.7,20.5,13.9
311.5,37.5,19.0,3.7,19.7,20.0,13.8
313.25,37.7,17.8,4.1,20.0,19.9,13.8
315.0,36.3,16.8,4.4,20.7,19.6,13.2
316.75,36.9,15.8,5.1,21.5,19.8,13.2
318.5,35.7,15.5,5.7,22.0,19.7,12.6
320.25,35.1,14.9,5.8,22.1,19.5,12.4
322.0,35.4,15.1,6.4,21.9,19.7,12.2
323.75,35.5,15.1,7.0,20.2,19.5,12.0
325.5,35.9,14.4,7.2,18.8,19.1,12.2
327.25,35.9,13.3,7.5,17.7,18.6,12.3
329.0,36.1,12.7,6.9,16.7,18.1,12.7
330.75,35.8,12.5,6.4,15.7,17.6,12.7
332.5,34.6,12.7,6.2,15.3,17.2,12.2
334.25,34.8,13.1,6.9,14.4,17.3,12.1
336.0,32.8,13.4,7.4,13.4,16.8,11.1
337.75,31.2,12.9,7.7,12.4,16.1,10.4
339.5,29.7,12.7,7.7,11.8,15.5,9.7
341.25,29.0,12.7,7.9,11.5,15.3,9.4
343.0,28.5,12.5,7.9,11.3,15.1,9.2
344.75,28.1,12.9,7.2,11.2,14.8,9.2
346.5,27.7,12.7,6.9,10.4,14.4,9.2
348.25,27.7,12.8,6.6,10.0,14.3,9.3
350.0,27.8,12.6,6.1,9.8,14.1,9.5
351.75,29.0,12.7,5.6,9.1,14.1,10.4
353.5,30.5,12.7,5.3,8.4,14.2,11.2
355.25,32.4,12.7,5.2,8.1,14.6,12.2
357.0,33.6,12.7,5.1,8.1,14.9,12.9
358.75,34.3,12.4,5.1,8.1,15.0,13.2
360.5,33.3,12.1,5.1,8.1,14.7,12.7
362.25,32.4,11.1,5.1,8.0,14.2,12.4
364.0,32.6,10.6,5.1,8.1,14.1,12.5
365.75,30.3,10.2,5.1,8.1,13.4,11.5
367.5,29.0,10.1,5.1,8.2,13.1,10.8
369.25,27.7,10.0,3.6,8.1,12.4,10.6
371.0,26.8,10.0,3.0,7.4,11.8,10.4
372.75,26.0,9.8,2.6,7.0,11.4,10.2
374.5,25.8,10.0,2.4,6.2,11.1,10.3
376.25,25.0,10.0,2.4,5.4,10.7,10.0
378.0,24.2,10.1,2.5,4.5,10.3,9.8
379.75,23.3,10.6,2.6,4.5,10.3,9.4
381.5,23.0,10.5,2.5,4.5,10.1,9.2
383.25,22.8,10.5,2.4,4.4,10.0,9.2
385.0,22.4,10.7,2.4,4.8,10.1,9.0
386.75,22.7,10.7,2.3,5.5,10.3,8.9
388.5,22.6,10.6,2.3,6.0,10.4,8.8
390.25,21.8,10.7,2.0,6.2,10.2,8.5
392.0,21.4,10.6,1.5,6.3,10.0,8.5
393.75,20.8,10.7,1.2,6.3,9.8,8.3
395.5,20.7,10.4,1.0,6.4,9.6,8.3
397.25,20.1,9.9,1.0,6.4,9.3,8.0
399.0,19.8,9.6,0.9,6.4,9.2,7.9
400.75,18.3,10.0,0.9,6.9,9.0,7.2
402.5,17.2,10.6,1.0,7.6,9.1,6.8
404.25,16.6,11.6,1.1,8.8,9.5,6.5
406.0,16.3,12.2,0.7,10.0,9.8,6.6
407.75,15.9,12.5,0.3,10.7,9.9,6.7
409.5,16.3,12.6,0.7,11.9,10.4,6.8
411.25,16.7,12.8,1.2,12.6,10.8,6.7
413.0,17.2,12.8,1.9,13.6,11.4,6.6
414.75,17.9,12.6,3.1,13.9,11.9,6.3
416.5,17.3,12.8,3.4,14.4,11.9,6.0
418.25,17.6,12.9,3.0,14.5,12.0,6.3
420.0,17.4,12.7,2.7,14.3,11.8,6.4
421.75,16.7,12.8,2.4,15.2,11.8,6.4
423.5,16.1,12.8,3.0,16.0,12.0,6.2
425.25,15.6,12.6,3.6,17.2,12.2,6.1
427.0,15.5,12.4,4.5,18.2,12.6,5.9
428.75,15.1,12.3,4.6,19.0,12.8,6.1
430.5,15.1,12.4,4.6,20.4,13.1,6.6
432.25,14.6,12.3,4.6,21.3,13.2,6.9
434.0,14.7,12.4,4.6,22.2,13.5,7.3
435.75,13.8,12.3,5.1,23.4,13.6,7.5
437.5,12.9,12.3,5.5,23.9,13.7,7.6
439.25,12.5,12.2,5.7,24.8,13.8,7.9
441.0,12.5,12.3,5.8,24.8,13.9,7.9
442.75,12.6,12.3,5.9,25.3,14.1,8.1
444.5,12.6,12.5,5.9,25.0,14.0,8.0
446.25,12.6,12.5,6.6,25.2,14.2,7.8
448.0,12.8,12.3,6.9,26.1,14.5,8.2
449.75,12.8,11.6,6.7,27.7,14.7,9.1
451.5,12.6,11.5,6.3,28.8,14.8,9.7
453.25,12.7,11.4,6.3,30.3,15.2,10.4
455.0,12.7,11.4,6.3,31.4,15.4,11.0
456.75,12.8,11.4,6.8,33.2,16.0,11.7
458.5,12.6,12.1,6.8,34.1,16.4,12.1
460.25,13.2,12.2,6.4,35.4,16.8,12.7
462.0,13.6,12.7,6.3,35.2,16.9,12.6
463.75,13.9,12.5,6.3,36.3,17.2,13.1
465.5,12.8,12.4,7.7,36.0,17.2,12.7
465.75,12.6,12.5,7.8,36.1,17.3,12.8

File: Wool_Rug_HRRPUA_50.csv
Time after Ignition,Wool_Rug_R1,Wool_Rug_R2,Wool_Rug_R3,Mean,Std. Dev.
0.0,7.8,9.1,11.3,9.4,1.8
1.5,50.7,33.1,49.4,44.4,9.8
3.0,131.8,122.7,125.5,126.7,4.7
4.5,207.9,211.5,217.1,212.2,4.6
6.0,261.1,286.4,285.6,277.7,14.4
7.5,296.1,326.0,317.5,313.2,15.4
9.0,324.2,340.9,339.9,335.0,9.4
10.5,338.2,348.6,353.1,346.6,7.6
12.0,333.8,347.1,343.9,341.6,7.0
13.5,323.9,346.2,334.4,334.8,11.1
15.0,319.0,333.6,329.0,327.2,7.5
16.5,300.5,325.2,315.2,313.6,12.4
18.0,293.6,307.2,304.4,301.7,7.2
19.5,281.6,295.5,296.4,291.2,8.3
21.0,278.1,293.2,288.8,286.7,7.8
22.5,271.8,285.2,284.6,280.5,7.6
24.0,262.8,274.5,277.0,271.4,7.5
25.5,258.3,263.3,268.1,263.2,4.9
27.0,250.0,262.6,265.4,259.3,8.2
28.5,245.5,259.4,249.1,251.3,7.2
30.0,244.4,253.0,245.7,247.7,4.6
31.5,239.8,246.6,236.2,240.9,5.3
33.0,231.2,239.5,234.8,235.2,4.2
34.5,225.9,235.1,230.8,230.6,4.6
36.0,220.7,226.9,222.1,223.2,3.2
37.5,215.9,222.8,215.2,218.0,4.2
39.0,212.7,220.1,205.9,212.9,7.1
40.5,211.7,216.0,202.3,210.0,7.0
42.0,203.3,213.3,200.0,205.5,6.9
43.5,197.2,208.6,194.7,200.2,7.4
45.0,198.2,207.6,194.5,200.1,6.7
46.5,196.1,203.6,192.2,197.3,5.8
48.0,195.2,195.6,184.8,191.9,6.2
49.5,189.6,193.6,187.5,190.2,3.1
51.0,180.4,189.6,185.5,185.2,4.6
52.5,179.7,186.8,183.4,183.3,3.6
54.0,175.1,183.2,182.0,180.1,4.4
55.5,176.4,182.6,179.9,179.6,3.1
57.0,172.1,179.3,173.3,174.9,3.9
58.5,169.4,180.1,173.1,174.2,5.4
60.0,169.3,175.9,169.9,171.7,3.6
61.5,168.3,172.0,166.9,169.1,2.6
63.0,165.5,174.3,165.5,168.4,5.1
64.5,161.5,171.6,164.7,165.9,5.2
66.0,157.2,168.8,158.6,161.6,6.3
67.5,155.4,168.6,159.0,161.0,6.8
69.0,152.6,168.2,154.9,158.6,8.5
70.5,151.2,165.0,151.6,155.9,7.8
72.0,148.8,165.0,151.3,155.0,8.7
73.5,147.4,164.0,149.7,153.7,9.0
75.0,145.5,163.8,149.0,152.8,9.7
76.5,143.8,161.7,146.7,150.7,9.6
78.0,144.0,161.6,146.2,150.6,9.6
79.5,143.6,159.2,145.7,149.5,8.5
81.0,142.4,159.5,146.1,149.3,9.0
82.5,141.3,160.2,146.5,149.3,9.8
84.0,140.0,160.6,144.5,148.4,10.8
85.5,139.3,164.0,144.8,149.3,13.0
87.0,135.7,159.8,148.1,147.9,12.1
88.5,133.7,159.3,149.4,147.5,12.9
90.0,131.4,159.4,151.1,147.3,14.4
91.5,134.0,158.7,151.8,148.2,12.7
93.0,131.8,160.1,150.9,147.6,14.4
94.5,133.8,158.0,153.8,148.6,12.9
96.0,130.6,155.8,153.2,146.5,13.8
97.5,133.6,156.4,154.9,148.3,12.8
99.0,131.8,155.5,155.4,147.6,13.7
100.5,131.4,153.6,153.5,146.2,12.8
102.0,129.8,152.9,153.9,145.5,13.6
103.5,132.9,154.4,148.7,145.3,11.1
105.0,132.1,152.9,149.5,144.8,11.2
106.5,130.8,153.9,149.1,144.6,12.2
108.0,131.0,153.2,147.6,143.9,11.5
109.5,130.8,151.6,146.1,142.9,10.8
111.0,129.8,152.1,143.4,141.8,11.2
112.5,130.3,152.7,142.9,142.0,11.2
114.0,131.2,153.0,142.8,142.3,10.9
115.5,129.0,150.5,142.1,140.5,10.8
117.0,127.5,150.7,141.9,140.0,11.7
118.5,125.7,147.2,139.8,137.6,10.9
120.0,123.8,144.8,135.5,134.7,10.5
121.5,123.6,143.0,139.6,135.4,10.4
123.0,123.3,144.6,138.0,135.3,10.9
124.5,124.7,142.7,137.8,135.1,9.3
126.0,122.8,144.7,137.8,135.1,11.2
127.5,123.2,142.2,138.5,134.7,10.1
129.0,120.1,141.5,136.1,132.6,11.1
130.5,120.4,139.3,135.4,131.7,10.0
132.0,121.4,138.2,136.7,132.1,9.3
133.5,118.1,141.3,134.9,131.4,12.0
135.0,119.5,138.8,136.1,131.5,10.5
136.5,117.4,139.5,133.6,130.2,11.4
138.0,115.5,136.5,134.7,128.9,11.6
139.5,116.2,138.1,133.0,129.1,11.5
141.0,113.0,133.5,130.0,125.5,11.0
142.5,112.8,134.7,129.7,125.7,11.5
144.0,116.8,135.2,129.5,127.2,9.4
145.5,114.2,134.3,128.8,125.8,10.4
147.0,116.2,130.6,127.2,124.7,7.5
148.5,114.8,130.5,126.9,124.1,8.2
150.0,115.3,131.3,126.6,124.4,8.2
151.5,114.2,126.5,126.7,122.5,7.2
153.0,116.6,129.5,126.1,124.1,6.7
154.5,113.2,127.9,125.5,122.2,7.9
156.0,111.6,127.5,126.2,121.8,8.8
157.5,113.7,128.4,126.4,122.8,8.0
159.0,112.1,129.9,126.3,122.7,9.4
160.5,111.7,128.2,123.7,121.2,8.5
162.0,112.7,127.7,125.0,121.8,8.0
163.5,111.6,130.3,126.0,122.6,9.8
165.0,113.2,127.3,126.1,122.2,7.8
166.5,112.2,130.3,123.4,121.9,9.2
168.0,109.6,129.9,123.7,121.1,10.4
169.5,110.7,126.1,122.2,119.7,8.0
171.0,109.6,127.4,120.9,119.3,9.0
172.5,110.1,129.2,122.6,120.6,9.7
174.0,109.6,128.5,122.0,120.0,9.6
175.5,109.6,129.0,123.5,120.7,10.0
177.0,109.1,130.2,120.9,120.0,10.6
178.5,111.9,132.6,120.1,121.5,10.4
180.0,111.6,130.4,120.0,120.6,9.4
181.5,111.5,129.7,120.5,120.6,9.1
183.0,111.5,130.8,121.0,121.1,9.6
184.5,112.8,130.9,122.0,121.9,9.0
186.0,112.7,129.9,120.9,121.2,8.6
187.5,112.8,131.5,119.6,121.3,9.5
189.0,111.6,131.3,120.9,121.3,9.8
190.5,111.6,129.4,121.0,120.7,9.0
192.0,110.5,132.4,120.4,121.1,11.0
193.5,111.1,133.5,121.4,122.0,11.2
195.0,111.5,133.3,119.1,121.3,11.1
196.5,110.6,132.0,119.4,120.7,10.8
198.0,112.6,132.7,119.1,121.5,10.2
199.5,111.2,132.4,118.2,120.6,10.8
201.0,114.3,132.6,119.9,122.3,9.4
202.5,112.0,132.0,118.5,120.8,10.2
204.0,112.9,133.9,116.0,120.9,11.4
205.5,110.6,134.4,117.5,120.8,12.2
207.0,111.1,135.2,114.1,120.1,13.1
208.5,112.3,134.8,116.8,121.3,11.9
210.0,113.4,133.4,114.3,120.4,11.3
211.5,113.1,133.0,115.3,120.5,10.9
213.0,111.7,134.4,112.7,119.6,12.8
214.5,110.9,134.4,110.3,118.5,13.7
216.0,110.2,132.9,112.4,118.5,12.5
217.5,113.0,135.0,112.6,120.2,12.8
219.0,111.4,131.4,112.7,118.5,11.2
220.5,111.8,132.4,113.7,119.3,11.4
222.0,114.4,135.5,111.5,120.5,13.1
223.5,113.5,134.0,111.0,119.5,12.6
225.0,112.9,132.4,111.1,118.8,11.8
226.5,114.0,136.5,111.0,120.5,13.9
228.0,113.7,132.3,111.4,119.1,11.4
229.5,112.3,128.5,112.2,117.7,9.4
231.0,113.1,130.0,113.5,118.9,9.6
232.5,113.9,128.4,112.9,118.4,8.7
234.0,114.1,129.1,113.3,118.8,8.9
235.5,114.1,128.3,115.0,119.2,8.0
237.0,114.5,128.0,116.7,119.7,7.3
238.5,114.1,126.0,117.0,119.0,6.2
240.0,114.0,126.5,116.3,119.0,6.6
241.5,116.0,125.8,115.5,119.1,5.8
243.0,113.4,124.2,113.9,117.2,6.1
244.5,114.0,124.4,114.0,117.5,6.0
246.0,113.0,122.3,115.0,116.8,4.9
247.5,112.7,121.8,115.2,116.6,4.7
249.0,112.1,121.3,113.6,115.7,4.9
250.5,111.1,120.5,113.7,115.1,4.9
252.0,110.0,119.7,111.9,113.9,5.1
253.5,108.5,118.2,113.2,113.3,4.9
255.0,109.9,116.4,111.4,112.6,3.4
256.5,109.3,117.6,109.5,112.1,4.7
258.0,109.0,114.6,106.9,110.2,4.0
259.5,109.6,115.6,108.8,111.3,3.7
261.0,110.7,112.9,106.5,110.0,3.2
262.5,108.5,116.5,105.7,110.2,5.6
264.0,107.3,115.9,105.6,109.6,5.5
265.5,107.5,115.1,103.7,108.8,5.8
267.0,107.4,115.2,102.1,108.2,6.6
268.5,108.2,116.3,103.6,109.4,6.5
270.0,107.6,116.8,102.9,109.1,7.1
271.5,104.9,116.0,102.5,107.8,7.2
273.0,104.3,116.6,98.6,106.5,9.2
274.5,104.8,117.1,98.3,106.8,9.5
276.0,105.9,117.0,97.1,106.7,10.0
277.5,105.3,115.6,96.3,105.8,9.7
279.0,104.9,116.9,96.4,106.1,10.3
280.5,105.7,115.8,97.5,106.4,9.1
282.0,104.4,111.0,99.5,105.0,5.8
283.5,105.7,113.6,99.0,106.1,7.3
285.0,106.5,111.1,99.3,105.6,6.0
286.5,105.0,108.0,99.6,104.2,4.2
288.0,104.3,105.0,98.3,102.5,3.6
289.5,104.6,102.4,99.4,102.1,2.6
291.0,105.7,100.6,97.3,101.2,4.2
292.5,105.0,99.0,98.0,100.6,3.8
294.0,103.9,97.0,99.1,100.0,3.5
295.5,104.4,92.2,98.3,98.3,6.1
297.0,104.8,87.2,99.6,97.2,9.0
298.5,102.6,87.4,98.4,96.1,7.8
300.0,100.8,82.7,98.8,94.1,9.9
301.5,101.3,79.4,97.2,92.6,11.7
303.0,98.9,74.0,97.9,90.3,14.1
304.5,97.8,71.6,96.1,88.5,14.6
306.0,97.8,69.1,95.3,87.4,15.9
307.5,96.2,66.6,94.5,85.8,16.6
309.0,96.4,62.7,92.7,83.9,18.5
310.5,93.3,59.6,89.0,80.6,18.3
312.0,92.4,56.3,86.7,78.5,19.4
313.5,90.3,53.5,84.1,76.0,19.7
315.0,90.4,50.8,82.1,74.5,20.9
316.5,89.3,48.3,79.0,72.2,21.3
318.0,88.6,47.0,76.9,70.8,21.5
319.5,85.2,45.3,74.6,68.4,20.7
321.0,83.1,43.5,71.9,66.2,20.4
322.5,82.1,41.7,68.0,63.9,20.5
324.0,82.4,40.0,66.9,63.1,21.4
325.5,79.1,38.4,63.2,60.2,20.5
327.0,81.1,37.4,62.6,60.4,21.9
328.5,78.7,36.4,59.6,58.3,21.2
330.0,76.8,35.4,57.1,56.4,20.7
331.5,74.9,35.3,55.4,55.2,19.8
333.0,73.8,34.7,52.0,53.5,19.6
334.5,74.0,34.7,50.6,53.1,19.8
336.0,72.0,34.3,49.5,51.9,18.9
337.5,71.9,34.1,47.7,51.2,19.1
339.0,70.3,33.3,45.1,49.6,18.9
340.5,69.2,32.7,42.8,48.2,18.9
342.0,69.0,32.3,42.3,47.9,19.0
343.5,68.3,32.0,40.0,46.8,19.1
345.0,67.6,30.8,38.6,45.7,19.4
346.5,65.9,31.5,37.7,45.0,18.3
348.0,64.5,31.5,36.8,44.2,17.7
349.5,62.9,31.0,36.6,43.5,17.0
351.0,62.4,30.8,36.3,43.2,16.9
352.5,59.7,30.6,35.7,42.0,15.5
354.0,59.1,30.1,34.6,41.3,15.6
355.5,57.9,30.6,34.6,41.0,14.8
357.0,55.8,30.2,33.6,39.9,13.9
358.5,55.4,,33.0,44.2,15.8
360.0,54.1,,31.7,42.9,15.9
361.5,53.0,,31.2,42.1,15.3
363.0,51.4,,30.5,41.0,14.8
364.5,50.9,,30.1,40.5,14.7
366.0,49.2,,28.9,39.1,14.3
367.5,50.3,,28.4,39.4,15.5
369.0,50.4,,28.4,39.4,15.5
370.5,50.1,,28.0,39.1,15.6
372.0,49.9,,27.9,38.9,15.5
373.5,48.7,,27.3,38.0,15.2
375.0,48.9,,26.8,37.9,15.6
376.5,46.7,,26.4,36.6,14.4
378.0,44.8,,,44.8,
379.5,43.8,,,43.8,
381.0,41.8,,,41.8,
382.5,40.0,,,40.0,
384.0,38.1,,,38.1,
385.5,37.3,,,37.3,
387.0,36.0,,,36.0,
388.5,35.1,,,35.1,
390.0,34.9,,,34.9,
391.5,34.9,,,34.9,
393.0,34.9,,,34.9,
394.5,34.5,,,34.5,
396.0,33.7,,,33.7,
397.5,33.4,,,33.4,
399.0,32.6,,,32.6,
400.5,31.9,,,31.9,
402.0,31.9,,,31.9,
403.5,31.7,,,31.7,
405.0,32.1,,,32.1,
406.5,32.4,,,32.4,
408.0,32.4,,,32.4,
409.5,31.7,,,31.7,
411.0,31.9,,,31.9,
412.5,31.7,,,31.7,
414.0,31.4,,,31.4,
415.5,30.9,,,30.9,
417.0,30.9,,,30.9,
418.5,30.5,,,30.5,
419.25,30.6,,,30.6,