Folder: fsri_materials_database/01_Data/Wool_Rug/Cone (part 2)

File: Wool_Rug_HRRPUA_75.csv
Time after Ignition,Wool_Rug_R1,Wool_Rug_R2,Wool_Rug_R3,Mean,Std. Dev.
0.0,50.3,94.5,45.3,63.4,27.1
1.25,105.4,161.5,105.9,124.3,32.2
2.5,187.4,250.6,176.9,205.0,39.9
3.75,284.9,346.4,256.0,295.8,46.2
5.0,358.3,392.7,340.3,363.7,26.6
6.25,400.2,445.0,391.2,412.1,28.8
7.5,421.8,454.6,416.1,430.8,20.8
8.75,443.6,456.8,423.4,441.3,16.8
10.0,441.2,442.4,438.8,440.8,1.8
11.25,426.1,450.8,430.6,435.8,13.2
12.5,416.0,426.4,413.1,418.5,7.0
13.75,411.9,418.7,409.2,413.3,4.9
15.0,400.5,418.8,392.1,403.8,13.6
16.25,392.5,393.9,382.4,389.6,6.2
17.5,376.3,374.4,372.8,374.5,1.8
18.75,367.5,365.3,363.7,365.5,1.9
20.0,356.9,351.6,341.8,350.1,7.7
21.25,345.0,340.3,330.3,338.5,7.5
22.5,347.4,339.7,329.7,338.9,8.9
23.75,335.4,333.9,325.0,331.4,5.6
25.0,317.9,316.7,317.2,317.3,0.6
26.25,316.1,317.8,313.8,315.9,2.0
27.5,300.6,311.3,303.7,305.2,5.5
28.75,297.5,304.1,291.8,297.8,6.2
30.0,287.0,293.7,298.7,293.1,5.9
31.25,287.1,293.0,278.7,286.3,7.2
32.5,272.4,287.2,278.3,279.3,7.5
33.75,266.5,278.5,271.7,272.2,6.0
35.0,262.1,274.9,263.1,266.7,7.1
36.25,258.4,267.9,260.6,262.3,5.0
37.5,255.9,262.2,256.1,258.1,3.6
38.75,248.8,259.8,255.0,254.6,5.5
40.0,248.8,252.9,244.6,248.8,4.2
41.25,242.8,247.9,239.6,243.4,4.2
42.5,238.6,241.6,233.5,237.9,4.1
43.75,239.7,234.7,233.6,236.0,3.3
45.0,238.8,229.4,229.2,232.5,5.5
46.25,232.7,229.3,226.3,229.4,3.2
47.5,236.6,227.3,222.2,228.7,7.3
48.75,230.3,226.6,222.2,226.4,4.0
50.0,231.7,225.3,222.9,226.6,4.5
51.25,227.7,219.5,219.0,222.1,4.9
52.5,221.3,217.0,215.3,217.9,3.1
53.75,222.1,213.4,213.1,216.2,5.1
55.0,219.8,213.0,211.2,214.7,4.5
56.25,219.7,210.3,209.6,213.2,5.7
57.5,216.4,209.0,206.4,210.6,5.2
58.75,211.2,211.1,206.1,209.5,2.9
60.0,210.5,208.2,204.6,207.7,3.0
61.25,209.0,207.0,204.8,206.9,2.1
62.5,209.2,207.2,201.9,206.1,3.8
63.75,208.5,205.8,198.6,204.3,5.1
65.0,207.2,204.4,199.3,203.6,4.0
66.25,204.7,203.3,196.4,201.5,4.4
67.5,206.5,200.4,195.4,200.8,5.6
68.75,206.2,198.7,198.7,201.2,4.3
70.0,202.0,194.9,196.5,197.8,3.7
71.25,203.6,197.0,193.7,198.1,5.0
72.5,201.1,193.4,189.9,194.8,5.7
73.75,195.3,189.6,191.2,192.1,2.9
75.0,198.1,189.2,190.2,192.5,4.9
76.25,193.6,190.3,188.9,191.0,2.4
77.5,192.5,189.3,187.0,189.6,2.7
78.75,189.7,186.4,184.0,186.7,2.9
80.0,187.1,188.1,184.1,186.4,2.1
81.25,185.7,183.7,183.3,184.2,1.3
82.5,182.4,184.0,180.8,182.4,1.6
83.75,184.5,183.0,180.9,182.8,1.8
85.0,182.6,183.0,180.0,181.8,1.6
86.25,181.3,182.8,178.0,180.7,2.5
87.5,178.5,182.7,178.5,179.9,2.5
88.75,175.2,178.2,178.7,177.4,1.9
90.0,176.6,180.1,175.1,177.3,2.6
91.25,174.5,176.7,172.9,174.7,1.9
92.5,172.7,175.4,172.0,173.4,1.8
93.75,172.1,172.7,172.2,172.4,0.3
95.0,171.4,172.8,172.8,172.3,0.8
96.25,169.5,168.7,167.8,168.7,0.8
97.5,170.9,167.4,168.7,169.0,1.8
98.75,165.5,170.2,169.7,168.5,2.5
100.0,163.0,168.6,167.1,166.2,2.9
101.25,165.8,164.4,165.0,165.1,0.7
102.5,162.8,163.9,163.7,163.5,0.6
103.75,163.8,162.4,161.4,162.5,1.2
105.0,163.8,160.0,159.1,160.9,2.5
106.25,158.0,161.2,159.0,159.4,1.6
107.5,157.2,156.2,160.0,157.8,2.0
108.75,156.9,152.7,157.4,155.7,2.6
110.0,157.5,153.5,156.6,155.9,2.1
111.25,156.1,154.0,152.4,154.1,1.9
112.5,154.6,151.4,150.8,152.3,2.1
113.75,157.0,148.5,152.4,152.6,4.2
115.0,153.0,145.5,151.5,150.0,4.0
116.25,155.6,147.5,150.1,151.1,4.2
117.5,152.8,145.5,153.4,150.6,4.4
118.75,153.7,145.8,149.1,149.5,4.0
120.0,154.3,144.2,150.2,149.6,5.1
121.25,152.2,143.2,148.5,148.0,4.5
122.5,151.7,143.1,145.1,146.7,4.5
123.75,149.4,142.9,147.8,146.7,3.4
125.0,151.8,141.1,146.0,146.3,5.4
126.25,149.8,138.4,147.9,145.4,6.1
127.5,150.4,139.0,146.5,145.3,5.8
128.75,150.0,140.3,145.5,145.3,4.9
130.0,150.7,138.1,144.1,144.3,6.3
131.25,149.7,140.1,142.8,144.2,4.9
132.5,146.9,139.3,143.7,143.3,3.8
133.75,149.8,136.0,143.1,143.0,6.9
135.0,144.7,136.6,142.6,141.3,4.2
136.25,147.4,141.2,142.4,143.7,3.3
137.5,145.6,139.1,144.5,143.1,3.5
138.75,145.7,138.8,144.0,142.8,3.6
140.0,146.4,139.7,144.5,143.5,3.4
141.25,144.5,140.1,142.3,142.3,2.2
142.5,145.5,142.2,142.0,143.2,2.0
143.75,143.9,141.0,142.2,142.4,1.5
145.0,143.9,143.7,140.7,142.7,1.8
146.25,145.8,140.2,141.1,142.4,3.0
147.5,143.2,138.4,139.7,140.4,2.5
148.75,141.2,141.0,141.0,141.1,0.1
150.0,140.7,137.4,135.9,138.0,2.5
151.25,139.6,137.0,140.0,138.8,1.6
152.5,137.5,139.6,138.8,138.6,1.1
153.75,136.9,135.2,137.5,136.5,1.2
155.0,133.0,136.9,138.8,136.2,3.0
156.25,134.8,133.0,136.8,134.9,1.9
157.5,132.6,135.6,139.3,135.8,3.4
158.75,133.2,135.4,136.0,134.9,1.4
160.0,133.1,133.5,134.1,133.5,0.5
161.25,131.8,132.7,135.1,133.2,1.7
162.5,131.2,131.8,132.9,132.0,0.8
163.75,130.7,135.2,138.4,134.8,3.9
165.0,129.6,132.7,131.8,131.4,1.6
166.25,129.3,132.2,132.2,131.2,1.7
167.5,125.8,134.1,132.4,130.8,4.4
168.75,128.0,133.8,131.1,131.0,2.9
170.0,125.4,131.3,133.2,130.0,4.1
171.25,128.4,131.3,132.1,130.6,2.0
172.5,121.8,131.6,131.5,128.3,5.6
173.75,123.3,130.7,130.2,128.1,4.2
175.0,122.8,133.0,131.3,129.1,5.5
176.25,120.5,134.3,132.3,129.0,7.4
177.5,121.1,133.3,130.8,128.4,6.5
178.75,119.6,135.2,128.7,127.8,7.8
180.0,117.3,132.7,129.1,126.3,8.1
181.25,116.0,133.9,127.7,125.9,9.1
182.5,115.0,131.4,128.5,124.9,8.7
183.75,113.4,129.8,127.5,123.6,8.9
185.0,109.6,132.5,126.6,122.9,11.9
186.25,109.1,133.2,129.7,124.0,13.0
187.5,108.6,129.7,126.1,121.5,11.3
188.75,106.3,129.2,126.6,120.7,12.6
190.0,105.6,129.2,123.8,119.5,12.4
191.25,106.5,130.0,126.0,120.8,12.6
192.5,104.4,128.8,125.4,119.5,13.2
193.75,103.6,131.0,123.2,119.3,14.1
195.0,104.1,127.1,122.7,118.0,12.2
196.25,102.3,129.1,123.5,118.3,14.1
197.5,101.4,128.1,122.0,117.1,14.0
198.75,100.5,126.2,123.1,116.6,14.1
200.0,97.8,128.5,122.0,116.1,16.2
201.25,99.2,126.9,122.7,116.3,14.9
202.5,98.0,127.6,120.3,115.3,15.4
203.75,99.8,126.3,118.2,114.8,13.6
205.0,97.6,124.9,117.0,113.2,14.0
206.25,96.6,121.3,116.9,111.6,13.2
207.5,96.8,122.5,115.8,111.7,13.3
208.75,96.5,122.0,116.5,111.7,13.4
210.0,95.3,121.7,112.4,109.8,13.4
211.25,93.8,122.0,112.2,109.4,14.3
212.5,93.0,119.9,110.2,107.7,13.7
213.75,92.4,119.6,109.1,107.1,13.7
215.0,91.1,120.7,110.2,107.4,15.0
216.25,88.8,121.0,108.6,106.1,16.2
217.5,88.1,121.6,108.7,106.1,16.9
218.75,86.3,120.5,107.3,104.7,17.2
220.0,85.2,118.0,104.5,102.6,16.5
221.25,82.9,117.3,103.8,101.3,17.3
222.5,81.6,117.3,103.7,100.8,18.0
223.75,80.4,116.0,102.4,99.6,18.0
225.0,77.5,114.9,101.6,98.0,18.9
226.25,75.9,113.5,101.1,96.8,19.2
227.5,74.1,114.4,99.7,96.0,20.4
228.75,72.2,112.8,99.0,94.6,20.6
230.0,71.6,113.5,98.4,94.5,21.2
231.25,71.0,113.2,100.1,94.8,21.6
232.5,68.4,113.7,98.7,93.6,23.0
233.75,66.4,113.8,98.7,92.9,24.2
235.0,64.1,109.3,96.1,89.8,23.2
236.25,61.9,113.2,96.5,90.6,26.2
237.5,59.5,111.6,95.2,88.8,26.6
238.75,58.7,111.0,93.1,87.6,26.6
240.0,57.1,109.5,92.3,86.3,26.7
241.25,55.2,107.1,90.7,84.4,26.5
242.5,52.6,106.0,88.4,82.3,27.2
243.75,51.9,104.5,86.7,81.0,26.8
245.0,50.0,103.4,82.9,78.7,26.9
246.25,50.4,98.5,83.3,77.4,24.6
247.5,48.6,97.2,78.3,74.7,24.5
248.75,46.5,94.2,75.7,72.1,24.1
250.0,45.9,91.4,74.1,70.5,22.9
251.25,44.9,89.7,71.6,68.7,22.5
252.5,43.9,87.8,69.7,67.1,22.1
253.75,43.3,85.4,66.7,65.1,21.1
255.0,42.5,81.9,65.6,63.3,19.8
256.25,41.7,82.6,63.0,62.5,20.5
257.5,41.1,80.7,61.1,61.0,19.8
258.75,40.3,79.6,59.5,59.8,19.7
260.0,39.7,79.0,56.3,58.3,19.8
261.25,39.3,78.1,53.5,57.0,19.7
262.5,39.0,77.0,53.0,56.4,19.2
263.75,38.3,75.0,50.4,54.5,18.7
265.0,38.1,75.4,47.8,53.8,19.3
266.25,38.5,73.0,45.8,52.4,18.2
267.5,38.5,72.4,44.2,51.7,18.1
268.75,38.9,70.7,43.1,50.9,17.3
270.0,39.3,69.3,42.0,50.2,16.6
271.25,38.6,67.1,40.2,48.6,16.0
272.5,38.2,66.1,39.1,47.8,15.9
273.75,38.5,64.3,38.2,47.0,15.0
275.0,38.1,62.7,37.0,45.9,14.6
276.25,37.5,61.1,36.9,45.2,13.8
277.5,37.6,60.0,35.8,44.5,13.5
278.75,36.8,59.4,35.3,43.8,13.5
280.0,36.3,57.5,35.3,43.0,12.5
281.25,36.1,55.6,34.6,42.1,11.7
282.5,35.6,55.0,34.2,41.6,11.7
283.75,35.2,53.3,33.4,40.6,11.0
285.0,35.1,52.2,32.9,40.1,10.6
286.25,34.8,51.4,32.2,39.5,10.4
287.5,33.8,48.9,31.9,38.2,9.3
288.75,34.2,47.7,31.5,37.8,8.7
290.0,33.1,46.2,31.8,37.0,8.0
291.25,33.0,45.3,31.6,36.6,7.5
292.5,33.1,45.2,31.3,36.5,7.5
293.75,32.2,44.4,31.3,36.0,7.3
295.0,32.3,44.0,31.5,35.9,7.0
296.25,32.5,42.6,30.9,35.3,6.3
297.5,32.0,42.8,30.5,35.1,6.7
298.75,31.1,42.5,30.9,34.8,6.6