Folder: fsri_materials_database/01_Data/Engineered_Wood_Furniture/Cone (part 2)

File: Engineered_Wood_Furniture_HRRPUA_75.csv
Time after Ignition,Engineered_Wood_Furniture_R1,Engineered_Wood_Furniture_R2,Engineered_Wood_Furniture_R3,Mean,Std. Dev.
0.0,21.9,17.1,17.2,18.7,2.8
3.25,142.8,185.6,56.7,128.4,65.7
6.5,346.9,496.3,201.9,348.4,147.2
9.75,491.0,611.0,439.8,513.9,87.9
13.0,448.0,481.9,544.3,491.4,48.9
16.25,414.4,381.8,468.4,421.6,43.7
19.5,445.3,365.5,352.4,387.7,50.3
22.75,472.5,385.7,321.5,393.2,75.8
26.0,478.0,403.3,356.3,412.5,61.4
29.25,490.0,417.3,398.4,435.2,48.4
32.5,445.1,415.3,417.4,426.0,16.6
35.75,434.0,401.6,424.7,420.1,16.7
39.0,398.1,381.0,411.8,397.0,15.4
42.25,381.6,365.1,399.4,382.0,17.1
45.5,350.9,355.8,390.8,365.8,21.8
48.75,340.9,341.4,385.6,356.0,25.7
52.0,325.9,322.3,356.5,334.9,18.8
55.25,303.5,312.0,340.8,318.7,19.5
58.5,294.1,302.0,318.9,305.0,12.7
61.75,280.0,286.9,311.5,292.8,16.6
65.0,272.6,283.8,296.4,284.2,11.9
68.25,264.5,271.1,281.2,272.3,8.4
71.5,258.1,262.1,273.3,264.5,7.9
74.75,251.8,251.1,266.5,256.4,8.7
78.0,248.5,246.0,257.9,250.8,6.3
81.25,243.7,243.6,249.6,245.6,3.4
84.5,237.7,243.4,245.4,242.1,4.0
87.75,238.7,239.4,239.8,239.3,0.6
91.0,236.4,237.0,237.1,236.8,0.4
94.25,231.2,234.8,233.6,233.2,1.8
97.5,233.0,237.5,230.0,233.5,3.8
100.75,222.4,224.8,232.6,226.6,5.3
104.0,226.2,223.6,222.4,224.1,2.0
107.25,223.5,222.4,224.9,223.6,1.3
110.5,221.9,218.9,219.9,220.3,1.5
113.75,220.3,218.2,221.2,219.9,1.5
117.0,213.1,215.7,210.6,213.1,2.5
120.25,214.4,212.2,214.2,213.6,1.2
123.5,208.3,208.9,211.8,209.7,1.9
126.75,208.6,209.7,203.0,207.1,3.6
130.0,207.2,207.8,204.9,206.7,1.5
133.25,203.4,204.2,202.7,203.4,0.7
136.5,200.5,204.1,201.7,202.1,1.8
139.75,196.4,204.4,196.6,199.2,4.6
143.0,196.8,198.0,190.3,195.1,4.1
146.25,194.6,198.2,188.9,193.9,4.7
149.5,193.6,196.6,192.9,194.3,2.0
152.75,191.9,195.8,191.3,193.0,2.4
156.0,188.9,192.9,180.4,187.4,6.4
159.25,189.6,193.9,185.9,189.8,4.0
162.5,187.5,191.6,182.9,187.3,4.4
165.75,189.5,187.3,179.4,185.4,5.3
169.0,189.0,186.6,175.8,183.8,7.0
172.25,183.1,185.1,175.3,181.2,5.2
175.5,183.5,183.9,175.2,180.9,4.9
178.75,179.1,181.8,173.3,178.1,4.3
182.0,181.2,180.0,176.1,179.1,2.7
185.25,179.6,182.4,173.2,178.4,4.7
188.5,176.2,180.0,169.4,175.2,5.4
191.75,176.2,182.4,166.0,174.8,8.3
195.0,176.9,181.1,165.7,174.6,8.0
198.25,174.9,179.1,168.0,174.0,5.6
201.5,177.4,177.0,163.9,172.8,7.7
204.75,173.6,176.1,166.6,172.1,4.9
208.0,175.0,176.9,164.9,172.3,6.4
211.25,175.6,180.7,161.0,172.4,10.3
214.5,173.2,174.8,161.1,169.7,7.5
217.75,172.4,173.4,164.1,170.0,5.2
221.0,172.7,176.8,163.1,170.8,7.0
224.25,173.4,175.3,160.0,169.5,8.4
227.5,170.7,175.8,158.1,168.2,9.1
230.75,169.3,174.1,157.1,166.8,8.8
234.0,171.1,172.6,157.6,167.1,8.2
237.25,171.2,172.1,156.1,166.5,9.0
240.5,173.0,172.7,159.4,168.4,7.8
243.75,169.3,168.8,157.5,165.2,6.7
247.0,171.9,172.5,158.7,167.7,7.8
250.25,172.0,171.7,161.4,168.4,6.0
253.5,174.3,172.5,157.0,168.0,9.5
256.75,169.9,172.4,156.8,166.4,8.4
260.0,170.3,171.5,158.0,166.6,7.5
263.25,171.1,169.8,156.5,165.8,8.1
266.5,171.4,176.3,155.7,167.8,10.7
269.75,172.6,174.4,156.6,167.9,9.8
273.0,176.3,174.6,155.9,169.0,11.3
276.25,174.5,174.7,156.0,168.4,10.7
279.5,177.9,175.8,158.2,170.6,10.8
282.75,176.2,177.1,159.5,170.9,10.0
286.0,180.1,181.5,159.9,173.8,12.1
289.25,177.4,176.5,161.9,171.9,8.7
292.5,176.7,174.5,164.0,171.7,6.8
295.75,178.3,180.4,162.0,173.6,10.1
299.0,180.0,181.5,162.7,174.7,10.5
302.25,179.8,178.9,163.3,174.0,9.3
305.5,180.1,179.7,166.2,175.3,7.9
308.75,182.9,181.7,164.6,176.4,10.2
312.0,183.4,178.3,165.1,175.6,9.5
315.25,182.2,182.6,165.9,176.9,9.5
318.5,187.5,186.8,167.9,180.7,11.1
321.75,183.4,186.1,169.7,179.7,8.8
325.0,187.5,190.6,169.6,182.6,11.4
328.25,188.0,189.0,170.0,182.3,10.7
331.5,191.4,187.1,170.2,182.9,11.2
334.75,188.6,187.9,171.7,182.7,9.5
338.0,186.0,191.2,172.2,183.2,9.9
341.25,191.2,188.0,174.2,184.5,9.1
344.5,193.9,194.9,177.4,188.7,9.8
347.75,192.7,193.4,176.9,187.7,9.3
351.0,195.4,195.7,174.7,188.6,12.0
354.25,191.8,199.6,178.6,190.0,10.6
357.5,192.7,192.9,181.3,189.0,6.6
360.75,191.9,191.8,180.1,187.9,6.8
364.0,190.0,194.2,180.7,188.3,6.9
367.25,193.5,192.2,186.5,190.7,3.7
370.5,194.7,197.4,187.8,193.3,5.0
373.75,193.1,198.0,188.1,193.1,5.0
377.0,197.7,194.7,189.3,193.9,4.3
380.25,194.8,199.5,190.2,194.8,4.7
383.5,194.8,194.3,193.0,194.0,0.9
386.75,195.1,192.3,190.7,192.7,2.2
390.0,195.7,193.4,192.2,193.8,1.8
393.25,198.2,194.4,195.5,196.0,2.0
396.5,195.6,195.5,200.9,197.3,3.1
399.75,194.5,196.0,196.5,195.7,1.0
403.0,192.5,194.9,194.1,193.8,1.2
406.25,193.0,195.1,194.2,194.1,1.1
409.5,195.7,197.9,190.1,194.6,4.0
412.75,192.6,193.3,196.8,194.3,2.2
416.0,191.5,195.4,199.4,195.4,4.0
419.25,192.9,192.4,197.6,194.3,2.9
422.5,190.8,190.3,202.2,194.4,6.7
425.75,188.3,191.6,200.9,193.6,6.5
429.0,190.3,192.2,201.0,194.5,5.7
432.25,189.8,192.7,203.2,195.2,7.0
435.5,189.3,190.9,200.4,193.5,6.0
438.75,188.8,190.5,196.3,191.8,3.9
442.0,189.0,191.1,194.9,191.7,3.0
445.25,190.5,187.2,199.7,192.5,6.5
448.5,198.0,189.9,195.8,194.6,4.2
451.75,189.3,188.8,194.8,191.0,3.3
455.0,190.6,188.3,196.6,191.8,4.3
458.25,191.7,190.4,195.4,192.5,2.6
461.5,194.0,189.0,198.6,193.9,4.8
464.75,194.7,191.7,200.5,195.6,4.5
468.0,191.1,189.0,202.6,194.2,7.3
471.25,191.5,187.8,202.7,194.0,7.8
474.5,188.6,186.8,198.2,191.2,6.2
477.75,191.2,190.7,195.7,192.5,2.7
481.0,194.3,188.4,197.9,193.6,4.8
484.25,193.7,186.3,189.6,189.9,3.7
487.5,190.9,191.3,196.8,193.0,3.3
490.75,194.4,193.0,198.9,195.4,3.1
494.0,191.2,191.1,199.5,193.9,4.8
497.25,193.2,194.9,202.8,197.0,5.2
500.5,193.7,191.6,200.5,195.3,4.6
503.75,192.5,191.8,201.9,195.4,5.6
507.0,191.7,189.9,203.3,195.0,7.3
510.25,191.4,189.3,203.6,194.8,7.7
513.5,194.6,190.8,203.7,196.3,6.6
516.75,194.5,190.0,202.6,195.7,6.4
520.0,195.9,190.8,203.3,196.7,6.3
523.25,195.4,187.2,208.1,196.9,10.6
526.5,199.9,185.4,209.4,198.2,12.1
529.75,199.7,189.1,207.0,198.6,9.0
533.0,200.1,189.5,211.7,200.4,11.1
536.25,199.9,193.7,209.0,200.9,7.7
539.5,204.8,190.6,212.2,202.5,11.0
542.75,206.0,191.9,212.7,203.5,10.6
546.0,203.4,189.3,213.6,202.1,12.2
549.25,203.2,197.5,218.2,206.3,10.7
552.5,203.5,190.7,217.1,203.8,13.2
555.75,203.7,191.8,221.4,205.6,14.9
559.0,202.2,192.3,217.3,204.0,12.6
562.25,200.4,190.6,218.3,203.1,14.0
565.5,197.8,190.4,218.8,202.3,14.7
568.75,195.3,194.4,221.7,203.8,15.5
572.0,194.5,189.0,221.9,201.8,17.6
575.25,190.8,190.9,222.5,201.4,18.3
578.5,192.5,188.3,219.3,200.0,16.8
581.75,197.1,187.6,222.4,202.4,18.0
585.0,187.9,183.9,220.1,197.3,19.8
588.25,186.6,188.0,217.6,197.4,17.5
591.5,186.7,186.1,215.9,196.2,17.1
594.75,184.6,185.0,216.0,195.2,18.0
598.0,181.1,180.3,212.0,191.1,18.1
601.25,177.2,180.4,211.1,189.6,18.7
604.5,176.6,179.7,209.7,188.6,18.3
607.75,171.4,179.9,209.6,187.0,20.1
611.0,165.4,179.6,212.0,185.7,23.9
614.25,160.7,176.2,202.5,179.8,21.1
617.5,148.3,176.3,201.9,175.5,26.8
620.75,136.8,177.2,201.3,171.8,32.6
624.0,127.8,174.1,195.4,165.7,34.5
627.25,114.9,174.5,188.4,159.3,39.0
630.5,106.1,168.7,186.5,153.8,42.2
633.75,98.2,174.3,182.7,151.7,46.6
637.0,91.2,174.4,175.9,147.2,48.4
640.25,87.2,171.9,172.2,143.8,49.0
643.5,82.1,174.4,166.9,141.1,51.3
646.75,77.9,175.1,161.7,138.2,52.7
650.0,73.7,170.1,153.6,132.5,51.5
653.25,71.2,167.9,147.5,128.8,51.0
656.5,68.5,164.0,139.8,124.1,49.7
659.75,66.0,158.4,132.0,118.8,47.6
663.0,64.9,149.1,128.2,114.1,43.8
666.25,64.0,144.4,118.9,109.1,41.1
669.5,63.7,132.1,113.0,102.9,35.3
672.75,61.7,126.6,105.0,97.8,33.1
676.0,60.2,120.3,96.4,92.3,30.3
679.25,60.5,119.8,91.5,90.6,29.7
682.5,59.4,116.3,87.3,87.7,28.4
685.75,59.7,113.1,83.1,85.3,26.8
689.0,58.1,109.5,82.6,83.4,25.7
692.25,57.6,105.9,82.3,81.9,24.1
695.5,57.3,106.6,80.4,81.4,24.7
698.75,57.1,104.2,80.3,80.5,23.6
702.0,58.8,100.7,81.3,80.3,20.9
705.25,58.4,95.5,81.4,78.5,18.7
708.5,59.3,93.2,82.5,78.4,17.3
711.75,57.3,88.9,81.8,76.0,16.6
715.0,55.8,87.7,84.6,76.1,17.6
718.25,56.8,84.9,84.8,75.5,16.2
721.5,56.4,83.4,84.3,74.7,15.8
724.75,55.5,82.4,85.6,74.5,16.5
728.0,55.8,81.9,87.9,75.2,17.1
731.25,55.8,79.6,88.0,74.5,16.7
734.5,54.9,79.6,88.3,74.3,17.3
737.75,55.0,78.9,86.9,73.6,16.6
741.0,55.1,,85.1,70.1,21.2
744.25,55.8,,83.9,69.9,19.9
747.5,54.8,,82.1,68.5,19.3
750.75,54.3,,82.3,68.3,19.8
754.0,54.7,,82.2,68.5,19.4
757.25,54.1,,81.8,68.0,19.6
760.5,53.7,,81.9,67.8,20.0
763.75,53.5,,83.5,68.5,21.3
767.0,54.4,,82.0,68.2,19.5
770.25,54.2,,81.5,67.9,19.3
773.5,55.3,,81.9,68.6,18.8
776.75,56.4,,79.6,68.0,16.4
780.0,56.5,,79.1,67.8,16.0
783.25,56.3,,79.5,67.9,16.4
786.5,56.4,,79.7,68.1,16.4
789.75,57.0,,79.4,68.2,15.8
793.0,57.1,,81.5,69.3,17.2
796.25,56.7,,81.9,69.3,17.8
799.5,57.6,,81.2,69.4,16.7
802.75,57.2,,80.3,68.8,16.3
806.0,56.0,,79.3,67.7,16.5
809.25,56.3,,79.9,68.1,16.7
812.5,55.8,,79.9,67.8,17.1
815.75,54.4,,78.6,66.5,17.1
819.0,55.2,,78.0,66.6,16.1
822.25,54.2,,78.0,66.1,16.8
825.5,54.9,,77.1,66.0,15.7
828.75,55.8,,76.2,66.0,14.5
832.0,55.6,,77.7,66.7,15.6
835.25,54.7,,82.2,68.4,19.5
838.5,54.5,,81.7,68.1,19.2
841.75,55.6,,82.5,69.1,19.1
845.0,57.0,,81.3,69.1,17.2
848.25,57.0,,81.1,69.0,17.1
851.5,55.2,,80.0,67.6,17.5
854.75,54.0,,79.3,66.7,17.9
858.0,54.5,,80.3,67.4,18.2
861.25,54.2,,79.9,67.0,18.2
864.5,54.9,,80.4,67.6,18.0
867.75,56.0,,83.5,69.7,19.4
871.0,56.8,,81.9,69.3,17.7
874.25,57.5,,80.2,68.8,16.1
877.5,56.9,,80.3,68.6,16.6
880.75,56.3,,79.2,67.7,16.2
884.0,57.1,,,57.1,
887.25,57.3,,,57.3,
890.5,56.0,,,56.0,
893.75,54.4,,,54.4,
897.0,54.0,,,54.0,
900.25,54.3,,,54.3,
903.5,55.2,,,55.2,
906.75,54.8,,,54.8,
910.0,55.5,,,55.5,
913.25,55.2,,,55.2,
916.5,54.3,,,54.3,
919.75,55.1,,,55.1,
923.0,56.4,,,56.4,
926.25,57.3,,,57.3,
929.5,56.8,,,56.8,
932.75,56.5,,,56.5,
936.0,56.5,,,56.5,
939.25,57.5,,,57.5,
942.5,56.2,,,56.2,
945.75,57.7,,,57.7,
946.25,58.1,,,58.1,