Folder: fsri_materials_database/01_Data/Engineered_Wood_Furniture/Cone

Note: README.md
# Materials and Products Database
### Repository of materials and products properties and fire test data to improve fire modeling and fire investigation.

This project was supported in part by Award No. 2019-DU-BX-0018, awarded by the National Institute of Justice, Office of Justice Programs, U.S. Department of Justice. The opinions, findings, and conclusions or recommendations expressed in this publication / program / exhibition are those of the author(s) and do not necessarily reflect those of the Department of Justice.

***
***

__Cite this database:__ "McKinnon, M., Weinschenk, C., Dow, N., DiDomizio, M., and Madrzykowski, D. Materials and Products Database (Version 1.0.0), Fire Safety Research Institute, UL Research Institutes. Columbia, MD 21045, 2023."

__Cite the Technical Reference Guide:__ "McKinnon, M., Weinschenk, C., and Madrzykowski, D. Materials and Products Database - Technical Reference Guide, Fire Safety Research Institute, UL Research Institutes. Columbia, MD 21045, 2023."

__Cite the User Guide:__ "McKinnon, M., and Weinschenk, C. Materials and Products Database - User Guide, Fire Safety Research Institute, UL Research Institutes. Columbia, MD 21045, 2023."

***
***

## Database Structure

## 01_Data/
Raw data generated from each apparatus are included here in plain-text format. The data is organized first by material, next by the short name of test apparatus used, and where applicable additional filtering by test settings.

### Test Apparatus and Data File Structure
- __Cone Calorimeter__ (Cone)
    + Data file structure includes the material, the short name for the apparatus, heat flux setting and scan/scalar, date of test, and replicate number. Scan is for the raw output data and scalar is for the initial conditions and high-level test parameters. 
        * Example: __MDF_Cone_HF25scalar_210323_R1__ stands for the first replicate of scalar data generated from a medium density fiber board test in cone calorimeter exposed to 25 kW/m<sup>2</sup> on March 23, 2021.
    + A _Cone_Notes.csv_ is generated for each material from the __plot_Cone_data.py__ script. For materials whose experiments deviated from typical behavior relevant pictures are included in the respective material directory.
- __Fourier Transform Infrared Spectrometer__ (FTIR)
    + The FTIR directory contains subdirectories for the Attenuated Total Reflectance method (ATR) and the Integrating Sphere (IS)
    + Data file structure for the ATR experiment files includes the material, the abbreviated name for the apparatus, date of test, and replicate number. 
        * Example: __MDF_ATR_210323_R5__ stands for the fifth replicate of data collected with the ATR accessory conducted on June 8, 2021.
    + Data file structure for the IS experiment files includes the material, the abbreviated name for the apparatus, the measurand, whether the test is a sample measurement or standard reference, date of test, and replicate number.
        * Example: __OSB_IS_REFLECT_MEAS_2

File: Engineered_Wood_Furniture_HRRPUA_25.csv
Time after Ignition,Engineered_Wood_Furniture_R1,Engineered_Wood_Furniture_R2,Engineered_Wood_Furniture_R3,Mean,Std. Dev.
0.0,18.9,35.8,16.6,23.8,10.5
4.0,146.0,164.3,118.4,142.9,23.1
8.0,257.3,234.9,267.4,253.2,16.7
12.0,282.4,256.4,303.3,280.7,23.5
16.0,234.0,246.4,263.2,247.9,14.7
20.0,203.3,182.6,210.4,198.8,14.4
24.0,185.8,136.0,172.3,164.7,25.8
28.0,180.9,118.1,162.5,153.8,32.3
32.0,185.3,108.8,164.2,152.8,39.5
36.0,193.4,110.7,182.2,162.1,44.9
40.0,199.1,122.9,200.6,174.2,44.4
44.0,210.6,138.2,215.9,188.2,43.4
48.0,214.7,146.2,224.5,195.2,42.6
52.0,217.6,147.2,222.9,195.9,42.3
56.0,218.1,154.9,219.7,197.6,36.9
60.0,216.7,155.6,214.2,195.5,34.5
64.0,204.4,155.1,211.5,190.3,30.7
68.0,198.5,159.3,209.1,189.0,26.2
72.0,194.3,159.5,199.0,184.3,21.6
76.0,190.6,160.8,192.8,181.4,17.9
80.0,183.9,160.2,187.5,177.2,14.9
84.0,176.7,155.1,175.2,169.0,12.1
88.0,164.7,157.0,170.8,164.2,6.9
92.0,160.4,152.2,166.3,159.6,7.1
96.0,151.7,150.7,156.3,152.9,3.0
100.0,143.6,151.8,149.6,148.3,4.2
104.0,139.0,149.1,138.7,142.2,5.9
108.0,133.4,153.8,136.5,141.2,11.0
112.0,129.6,149.9,133.7,137.7,10.7
116.0,126.6,147.9,131.3,135.3,11.2
120.0,124.9,148.5,130.3,134.6,12.4
124.0,122.8,144.4,126.0,131.1,11.7
128.0,122.3,144.0,123.7,130.0,12.1
132.0,120.5,143.0,122.4,128.6,12.5
136.0,115.8,139.1,122.8,125.9,11.9
140.0,113.0,133.9,121.1,122.7,10.5
144.0,113.5,135.3,118.4,122.4,11.4
148.0,110.0,131.1,115.6,118.9,10.9
152.0,109.4,131.0,116.6,119.0,11.0
156.0,108.2,127.3,116.3,117.3,9.6
160.0,105.6,124.7,112.9,114.4,9.7
164.0,102.9,124.0,110.1,112.3,10.7
168.0,101.8,122.9,109.2,111.3,10.7
172.0,97.7,120.3,106.2,108.1,11.4
176.0,98.2,117.3,105.3,106.9,9.6
180.0,96.1,117.7,102.3,105.4,11.2
184.0,99.1,114.3,102.5,105.3,8.0
188.0,98.9,114.9,98.7,104.2,9.3
192.0,97.7,113.4,96.4,102.5,9.4
196.0,95.7,112.5,94.8,101.0,10.0
200.0,94.6,109.0,92.8,98.8,8.9
204.0,96.2,108.1,90.8,98.4,8.8
208.0,96.5,106.7,90.1,97.8,8.3
212.0,93.6,108.0,88.3,96.6,10.2
216.0,91.7,106.4,86.9,95.0,10.1
220.0,88.0,105.6,85.8,93.1,10.9
224.0,87.2,103.4,87.4,92.7,9.3
228.0,86.3,100.7,85.6,90.9,8.5
232.0,85.9,99.1,86.5,90.5,7.5
236.0,84.3,95.3,85.5,88.3,6.0
240.0,83.4,93.0,83.8,86.7,5.4
244.0,80.6,95.1,83.8,86.5,7.6
248.0,80.0,93.7,81.4,85.0,7.5
252.0,80.3,91.6,80.5,84.1,6.5
256.0,77.7,90.8,78.2,82.2,7.4
260.0,76.5,89.0,76.6,80.7,7.2
264.0,76.4,88.4,73.8,79.6,7.8
268.0,72.8,85.2,72.2,76.8,7.3
272.0,70.6,83.6,70.5,74.9,7.6
276.0,71.0,82.0,69.8,74.3,6.7
280.0,69.4,79.0,68.7,72.4,5.8
284.0,69.0,77.4,68.0,71.5,5.1
288.0,67.9,75.2,66.3,69.8,4.7
292.0,66.5,74.8,65.0,68.7,5.3
296.0,67.9,73.4,63.3,68.2,5.1
300.0,66.2,70.6,63.7,66.8,3.5
304.0,64.9,71.5,63.5,66.6,4.3
308.0,64.0,72.9,63.2,66.7,5.4
312.0,63.4,72.5,61.6,65.9,5.8
316.0,63.0,69.4,62.0,64.8,4.0
320.0,62.2,66.9,60.0,63.0,3.5
324.0,62.5,64.7,59.9,62.4,2.4
328.0,61.6,62.6,59.8,61.3,1.4
332.0,60.4,62.4,59.0,60.6,1.7
336.0,59.1,62.9,58.1,60.0,2.5
340.0,60.5,60.8,58.1,59.8,1.4
344.0,60.0,62.0,58.6,60.2,1.7
348.0,62.0,60.1,57.9,60.0,2.0
352.0,61.8,59.2,59.8,60.3,1.3
356.0,61.8,57.7,59.5,59.6,2.1
360.0,61.5,58.3,59.2,59.7,1.6
364.0,63.1,58.7,58.7,60.2,2.5
368.0,63.1,57.8,57.3,59.4,3.2
372.0,64.0,58.0,57.0,59.7,3.8
376.0,63.5,58.7,58.2,60.2,2.9
380.0,63.0,57.1,58.0,59.4,3.1
384.0,64.3,56.0,58.2,59.5,4.3
388.0,63.7,55.1,58.0,58.9,4.3
392.0,64.3,55.0,56.9,58.7,4.9
396.0,65.2,55.1,55.3,58.5,5.8
400.0,64.9,53.9,56.8,58.6,5.7
404.0,65.5,54.2,56.9,58.9,5.9
408.0,66.6,54.9,54.6,58.7,6.8
412.0,68.3,55.2,55.7,59.7,7.4
416.0,69.2,55.2,56.3,60.2,7.8
420.0,68.7,54.8,56.7,60.1,7.6
424.0,70.3,54.2,57.3,60.6,8.5
428.0,69.9,54.8,57.4,60.7,8.1
432.0,70.6,53.9,57.0,60.5,8.9
436.0,70.7,52.6,57.4,60.2,9.4
440.0,72.4,52.7,59.0,61.4,10.0
444.0,72.0,52.4,59.2,61.2,10.0
448.0,71.6,51.7,59.8,61.0,10.0
452.0,71.4,52.2,60.2,61.3,9.6
456.0,71.1,51.1,60.1,60.8,10.0
460.0,72.7,50.9,61.4,61.7,10.9
464.0,73.4,50.1,62.3,61.9,11.7
468.0,71.6,51.6,63.8,62.3,10.1
472.0,72.0,50.7,62.4,61.7,10.7
476.0,73.1,51.1,62.9,62.4,11.0
480.0,73.1,52.9,63.8,63.3,10.1
484.0,74.1,54.1,66.7,65.0,10.1
488.0,74.4,53.3,67.7,65.2,10.8
492.0,74.9,53.3,68.4,65.6,11.1
496.0,75.5,53.1,69.3,66.0,11.6
500.0,75.1,54.7,70.3,66.7,10.7
504.0,75.9,54.0,71.7,67.2,11.6
508.0,76.3,54.1,72.4,67.6,11.9
512.0,77.1,53.8,74.3,68.4,12.7
516.0,77.3,54.5,74.9,68.9,12.5
520.0,75.7,55.5,78.3,69.8,12.5
524.0,76.9,56.3,76.2,69.8,11.7
528.0,77.7,57.4,75.8,70.3,11.2
532.0,78.8,56.8,75.9,70.5,12.0
536.0,77.1,57.7,76.5,70.4,11.0
540.0,77.5,57.8,77.7,71.0,11.4
544.0,76.6,58.8,78.6,71.3,10.9
548.0,77.4,59.1,79.8,72.1,11.3
552.0,78.9,59.9,79.7,72.8,11.2
556.0,77.5,59.9,78.9,72.1,10.6
560.0,78.3,61.7,80.9,73.6,10.4
564.0,78.1,63.0,82.5,74.5,10.2
568.0,79.3,63.9,82.9,75.4,10.1
572.0,77.8,64.7,83.3,75.3,9.6
576.0,79.8,66.2,86.2,77.4,10.3
580.0,81.5,65.1,85.4,77.3,10.8
584.0,82.7,65.3,85.3,77.8,10.9
588.0,82.3,68.2,86.3,79.0,9.5
592.0,82.5,68.6,85.7,78.9,9.1
596.0,84.0,68.2,88.0,80.1,10.4
600.0,84.3,67.3,88.2,80.0,11.1
604.0,85.2,69.0,88.6,80.9,10.5
608.0,85.2,71.1,89.6,82.0,9.7
612.0,85.7,72.1,90.8,82.8,9.7
616.0,87.1,72.2,90.9,83.4,9.9
620.0,89.5,72.8,91.6,84.6,10.3
624.0,91.3,73.9,91.8,85.7,10.2
628.0,90.7,75.8,92.3,86.3,9.1
632.0,93.5,74.8,95.2,87.8,11.3
636.0,93.6,76.4,95.1,88.4,10.4
640.0,94.6,77.8,95.5,89.3,10.0
644.0,96.9,78.8,95.4,90.4,10.1
648.0,99.6,79.7,96.3,91.9,10.6
652.0,101.4,80.6,97.3,93.1,11.0
656.0,101.7,81.6,97.0,93.4,10.5
660.0,102.1,81.7,98.5,94.1,10.9
664.0,103.8,81.9,100.3,95.3,11.7
668.0,106.1,82.4,104.2,97.6,13.2
672.0,107.8,83.5,102.7,98.0,12.8
676.0,111.5,83.2,105.8,100.2,15.0
680.0,112.2,86.6,109.1,102.6,14.0
684.0,116.1,86.6,108.4,103.7,15.3
688.0,120.7,86.6,110.4,105.9,17.5
692.0,120.5,86.0,111.7,106.1,17.9
696.0,124.8,86.2,112.4,107.8,19.7
700.0,126.9,87.3,113.5,109.2,20.1
704.0,129.0,89.4,117.2,111.9,20.3
708.0,133.2,90.0,118.0,113.7,21.9
712.0,133.7,90.7,118.3,114.2,21.8
716.0,137.1,91.9,124.1,117.7,23.3
720.0,139.7,93.5,126.4,119.9,23.8
724.0,140.6,94.6,126.8,120.7,23.6
728.0,143.8,97.5,128.5,123.2,23.6
732.0,144.2,97.5,131.0,124.2,24.1
736.0,149.1,98.9,131.9,126.7,25.5
740.0,150.5,102.2,133.9,128.9,24.5
744.0,151.2,101.8,137.0,130.0,25.4
748.0,155.2,105.7,139.9,133.6,25.4
752.0,157.0,105.7,141.2,134.7,26.3
756.0,159.2,107.4,145.2,137.3,26.8
760.0,161.1,108.7,145.6,138.5,26.9
764.0,165.1,110.0,148.9,141.3,28.3
768.0,166.4,112.4,148.8,142.5,27.5
772.0,167.6,115.5,151.4,144.8,26.7
776.0,169.6,119.6,156.5,148.6,25.9
780.0,171.2,118.9,157.3,149.2,27.1
784.0,176.2,124.4,157.8,152.8,26.2
788.0,175.2,125.9,162.6,154.6,25.6
792.0,178.6,130.3,161.2,156.7,24.5
796.0,176.5,135.4,168.6,160.2,21.8
800.0,180.4,136.2,170.7,162.5,23.2
804.0,180.6,136.8,170.7,162.7,23.0
808.0,185.8,141.8,171.6,166.4,22.5
812.0,186.0,145.8,177.4,169.7,21.1
816.0,188.1,153.1,177.5,172.9,18.0
820.0,186.7,158.1,179.6,174.8,14.9
824.0,185.9,162.3,185.8,178.0,13.6
828.0,188.1,163.0,181.1,177.4,13.0
832.0,191.4,169.3,182.7,181.1,11.2
836.0,189.4,174.9,186.3,183.5,7.6
840.0,193.1,179.7,185.2,186.0,6.7
844.0,191.3,180.6,186.7,186.2,5.4
848.0,190.6,187.7,188.4,188.9,1.5
852.0,190.8,189.2,186.2,188.7,2.3
856.0,192.3,194.6,186.7,191.2,4.0
860.0,191.0,197.8,184.6,191.2,6.6
864.0,191.5,198.2,187.7,192.5,5.3
868.0,192.7,202.7,187.0,194.1,7.9
872.0,195.8,203.6,189.3,196.3,7.2
876.0,192.8,206.6,183.0,194.1,11.8
880.0,195.8,202.5,181.9,193.4,10.5
884.0,192.5,203.4,184.0,193.3,9.8
888.0,194.6,204.7,179.4,192.9,12.7
892.0,192.7,207.3,179.1,193.1,14.1
896.0,193.6,211.0,181.2,195.3,14.9
900.0,191.2,210.3,179.8,193.7,15.4
904.0,192.2,209.1,176.8,192.7,16.2
908.0,186.6,214.0,174.9,191.8,20.0
912.0,186.4,209.4,177.9,191.2,16.3
916.0,178.9,210.6,173.5,187.7,20.0
920.0,180.9,210.4,174.5,188.6,19.1
924.0,178.4,214.0,173.2,188.5,22.2
928.0,171.4,211.9,177.4,186.9,21.9
932.0,172.1,209.5,176.4,186.0,20.5
936.0,167.9,209.8,176.0,184.6,22.2
940.0,166.9,213.0,177.1,185.6,24.2
944.0,163.9,208.1,176.0,182.6,22.9
948.0,166.4,208.6,178.8,184.6,21.7
952.0,161.5,207.2,171.9,180.2,24.0
956.0,160.8,207.6,175.9,181.4,23.9
960.0,155.9,209.4,173.6,179.6,27.3
964.0,149.9,205.3,174.1,176.4,27.8
968.0,145.5,205.7,176.7,176.0,30.1
972.0,139.5,205.2,173.6,172.8,32.9
976.0,133.3,198.5,171.3,167.7,32.7
980.0,123.3,194.1,172.7,163.4,36.3
984.0,115.1,190.4,170.9,158.8,39.1
988.0,102.1,183.7,163.2,149.7,42.4
992.0,90.8,178.0,162.4,143.8,46.5
996.0,85.2,171.8,146.2,134.4,44.5
1000.0,79.1,164.7,138.2,127.3,43.8
1004.0,76.5,156.7,127.6,120.3,40.6
1008.0,74.5,146.8,117.2,112.8,36.4
1012.0,71.0,137.7,103.1,104.0,33.4
1016.0,67.0,126.3,94.8,96.0,29.7
1020.0,65.6,113.7,85.7,88.3,24.1
1024.0,65.6,103.3,79.2,82.7,19.1
1028.0,63.6,91.9,75.3,76.9,14.3
1032.0,62.7,83.7,70.7,72.4,10.6
1036.0,62.2,80.9,66.6,69.9,9.8
1040.0,61.7,74.7,62.9,66.5,7.2
1044.0,62.5,69.2,59.8,63.9,4.8
1048.0,64.7,64.0,56.5,61.7,4.6
1052.0,67.3,60.0,54.8,60.7,6.2
1056.0,67.3,58.3,54.5,60.0,6.5
1060.0,65.5,55.4,52.6,57.8,6.8
1064.0,63.6,52.8,51.8,56.1,6.5
1068.0,63.5,51.6,50.3,55.1,7.3
1072.0,62.8,50.6,49.3,54.2,7.5
1076.0,63.4,49.6,48.7,53.9,8.2
1080.0,63.5,48.6,47.9,53.3,8.8
1084.0,64.0,49.2,46.7,53.3,9.4
1088.0,64.2,48.6,47.1,53.3,9.5
1092.0,65.0,48.1,47.1,53.4,10.1
1096.0,63.4,47.7,45.8,52.3,9.6
1100.0,63.5,46.4,46.1,52.0,10.0
1104.0,63.6,43.5,43.3,50.1,11.6
1108.0,64.2,42.3,,53.3,15.5
1112.0,63.1,40.8,,51.9,15.8
1116.0,61.7,38.7,,50.2,16.3
1120.0,61.6,,,61.6,
1124.0,60.7,,,60.7,
1128.0,59.8,,,59.8,
1132.0,61.0,,,61.0,
1136.0,59.3,,,59.3,
1140.0,54.0,,,54.0,
1144.0,52.2,,,52.2,
1148.0,50.8,,,50.8,
1149.25,51.2,,,51.2,

File: Engineered_Wood_Furniture_HRRPUA_50.csv
Time after Ignition,Engineered_Wood_Furniture_R1,Engineered_Wood_Furniture_R2,Engineered_Wood_Furniture_R3,Mean,Std. Dev.
0.0,11.9,11.7,6.2,9.9,3.3
4.0,157.2,134.6,44.1,112.0,59.8
8.0,395.9,335.3,215.5,315.6,91.8
12.0,498.1,499.0,414.7,470.6,48.4
16.0,383.0,465.4,417.7,422.1,41.4
20.0,265.2,366.8,323.5,318.5,51.0
24.0,238.1,336.5,219.4,264.7,62.9
28.0,258.7,340.9,209.3,269.6,66.5
32.0,279.3,329.4,239.3,282.7,45.1
36.0,305.7,313.5,277.6,299.0,18.9
40.0,322.0,301.4,293.5,305.6,14.7
44.0,317.2,292.1,312.7,307.3,13.4
48.0,311.1,277.7,304.5,297.8,17.6
52.0,313.6,268.1,304.1,295.2,24.0
56.0,301.8,252.3,291.5,281.9,26.1
60.0,293.6,242.1,293.5,276.4,29.7
64.0,275.7,235.5,279.2,263.5,24.3
68.0,259.3,223.0,266.1,249.4,23.2
72.0,249.5,208.8,258.5,238.9,26.5
76.0,239.9,204.8,247.0,230.6,22.6
80.0,228.9,200.9,237.9,222.6,19.3
84.0,215.0,193.7,234.4,214.4,20.3
88.0,206.5,192.3,221.9,206.9,14.8
92.0,197.1,186.8,209.2,197.7,11.2
96.0,193.8,184.2,202.5,193.5,9.2
100.0,192.0,183.3,198.9,191.4,7.8
104.0,189.2,179.2,196.8,188.4,8.8
108.0,178.7,180.4,189.8,183.0,6.0
112.0,176.2,177.1,188.8,180.7,7.0
116.0,176.6,172.9,183.0,177.5,5.1
120.0,174.4,172.5,181.5,176.1,4.7
124.0,172.2,170.6,176.8,173.2,3.2
128.0,172.1,167.7,174.7,171.5,3.5
132.0,172.9,167.5,174.3,171.6,3.6
136.0,166.3,165.9,170.1,167.5,2.3
140.0,163.6,162.3,168.6,164.8,3.3
144.0,161.9,162.8,163.2,162.6,0.7
148.0,161.1,163.2,161.9,162.1,1.1
152.0,159.2,154.4,162.2,158.6,4.0
156.0,156.4,154.9,160.9,157.4,3.1
160.0,154.3,154.7,160.1,156.4,3.3
164.0,154.2,154.9,157.3,155.5,1.6
168.0,149.3,153.6,157.6,153.5,4.1
172.0,148.9,150.8,154.4,151.3,2.8
176.0,146.3,151.3,154.1,150.6,3.9
180.0,146.5,148.3,154.4,149.7,4.2
184.0,144.7,148.5,150.3,147.8,2.9
188.0,143.4,144.6,148.5,145.5,2.7
192.0,143.1,143.7,145.0,143.9,1.0
196.0,141.6,144.1,144.6,143.4,1.6
200.0,141.6,143.0,145.9,143.5,2.2
204.0,138.4,138.8,142.8,140.0,2.4
208.0,138.6,141.0,141.8,140.5,1.6
212.0,137.8,140.0,137.8,138.6,1.3
216.0,136.1,138.6,138.2,137.6,1.3
220.0,135.1,136.7,137.1,136.3,1.1
224.0,133.6,137.7,137.5,136.3,2.3
228.0,131.4,134.6,136.6,134.2,2.6
232.0,128.5,132.6,134.0,131.7,2.9
236.0,127.5,131.1,133.1,130.6,2.8
240.0,129.3,133.1,130.8,131.1,1.9
244.0,126.2,128.2,131.6,128.7,2.7
248.0,126.2,132.7,128.8,129.2,3.3
252.0,125.4,132.6,128.8,128.9,3.6
256.0,126.7,131.7,129.3,129.2,2.5
260.0,124.8,130.3,127.3,127.5,2.7
264.0,124.6,127.8,126.7,126.3,1.6
268.0,127.8,126.2,128.9,127.6,1.4
272.0,123.7,127.5,126.5,125.9,2.0
276.0,124.1,124.1,124.8,124.3,0.4
280.0,123.1,123.3,125.9,124.1,1.6
284.0,118.2,125.4,123.1,122.2,3.7
288.0,122.7,126.7,121.9,123.7,2.6
292.0,119.4,125.2,123.0,122.5,2.9
296.0,120.3,126.3,120.0,122.2,3.6
300.0,120.0,125.7,121.8,122.5,2.9
304.0,120.5,124.2,121.9,122.2,1.9
308.0,120.8,124.8,121.4,122.3,2.2
312.0,120.7,123.4,120.4,121.5,1.7
316.0,119.1,126.3,122.2,122.5,3.6
320.0,119.0,126.2,121.8,122.3,3.6
324.0,119.4,126.3,121.7,122.5,3.5
328.0,121.7,123.2,124.7,123.2,1.5
332.0,118.8,123.8,123.5,122.0,2.8
336.0,119.0,127.9,124.7,123.9,4.5
340.0,123.9,127.5,128.1,126.5,2.3
344.0,123.4,127.3,125.9,125.5,1.9
348.0,123.8,128.9,126.9,126.5,2.6
352.0,123.2,128.6,130.8,127.5,3.9
356.0,123.2,131.0,129.2,127.8,4.1
360.0,120.6,132.3,127.5,126.8,5.9
364.0,124.3,133.1,129.5,129.0,4.4
368.0,126.4,135.5,128.6,130.2,4.7
372.0,125.8,134.7,129.0,129.8,4.5
376.0,127.5,137.3,131.5,132.1,4.9
380.0,126.3,137.6,132.3,132.1,5.7
384.0,128.1,143.3,133.4,134.9,7.7
388.0,130.0,139.8,135.0,134.9,4.9
392.0,130.3,143.3,133.3,135.6,6.8
396.0,127.5,144.6,138.9,137.0,8.7
400.0,133.1,143.7,138.2,138.3,5.3
404.0,133.6,146.9,141.2,140.5,6.7
408.0,137.9,148.0,138.4,141.4,5.7
412.0,136.0,150.3,141.6,142.6,7.2
416.0,137.5,151.6,140.2,143.1,7.4
420.0,138.0,154.9,142.0,145.0,8.8
424.0,141.5,154.1,143.7,146.4,6.7
428.0,141.9,156.0,145.5,147.8,7.3
432.0,145.0,160.9,148.1,151.3,8.5
436.0,145.6,162.5,150.5,152.9,8.7
440.0,146.9,162.0,149.9,152.9,8.0
444.0,150.4,164.8,153.1,156.1,7.7
448.0,147.9,164.8,151.9,154.9,8.8
452.0,150.0,168.8,153.2,157.3,10.1
456.0,151.8,167.5,155.0,158.1,8.3
460.0,153.8,167.5,153.7,158.3,7.9
464.0,153.6,174.1,158.1,161.9,10.8
468.0,156.8,173.6,159.0,163.1,9.1
472.0,158.2,173.3,160.0,163.8,8.3
476.0,160.2,175.7,163.0,166.3,8.3
480.0,158.9,174.7,160.5,164.7,8.7
484.0,164.6,175.6,166.0,168.7,6.0
488.0,161.3,177.9,168.1,169.1,8.4
492.0,164.7,179.5,167.7,170.7,7.8
496.0,164.2,179.1,165.3,169.5,8.3
500.0,165.6,174.1,167.5,169.1,4.5
504.0,166.6,177.7,171.5,172.0,5.5
508.0,165.7,175.6,169.8,170.4,5.0
512.0,168.2,177.8,168.9,171.6,5.3
516.0,168.4,178.0,168.2,171.5,5.6
520.0,171.8,177.9,170.9,173.5,3.8
524.0,170.6,179.3,172.6,174.2,4.6
528.0,170.3,178.1,169.9,172.8,4.6
532.0,170.6,177.2,172.7,173.5,3.4
536.0,174.4,178.5,170.7,174.5,3.9
540.0,172.8,177.5,172.6,174.3,2.8
544.0,175.4,176.2,171.2,174.3,2.7
548.0,174.1,178.1,176.5,176.2,2.0
552.0,176.0,177.8,175.5,176.4,1.2
556.0,178.7,176.3,176.1,177.0,1.4
560.0,180.5,178.3,177.2,178.7,1.7
564.0,182.1,178.9,180.6,180.5,1.6
568.0,185.3,177.2,180.3,181.0,4.1
572.0,180.1,176.5,180.7,179.1,2.2
576.0,182.4,175.7,179.3,179.1,3.4
580.0,184.5,175.3,183.7,181.2,5.1
584.0,185.8,176.5,185.1,182.5,5.2
588.0,183.4,176.8,182.5,180.9,3.6
592.0,183.6,174.1,180.8,179.5,4.9
596.0,183.9,171.2,181.5,178.9,6.8
600.0,184.4,175.7,185.2,181.8,5.2
604.0,182.5,176.6,177.1,178.7,3.3
608.0,183.3,174.5,177.1,178.3,4.5
612.0,184.9,174.0,177.6,178.8,5.5
616.0,186.9,177.2,176.9,180.4,5.7
620.0,188.9,172.3,180.0,180.4,8.3
624.0,187.2,173.3,180.9,180.5,7.0
628.0,191.0,172.4,178.3,180.5,9.5
632.0,188.9,171.5,179.3,179.9,8.7
636.0,186.5,173.1,180.0,179.9,6.7
640.0,189.6,171.1,180.4,180.4,9.2
644.0,195.1,174.2,185.4,184.9,10.5
648.0,193.0,172.6,184.4,183.3,10.3
652.0,194.9,173.6,186.6,185.0,10.8
656.0,194.6,172.3,183.1,183.3,11.2
660.0,198.9,170.1,185.4,184.8,14.4
664.0,193.5,172.7,183.5,183.2,10.4
668.0,193.1,170.2,186.2,183.1,11.8
672.0,192.9,170.7,185.2,182.9,11.3
676.0,192.4,171.2,185.5,183.0,10.8
680.0,186.7,168.8,188.2,181.2,10.8
684.0,188.6,169.8,183.6,180.7,9.7
688.0,187.9,166.7,186.9,180.5,12.0
692.0,184.3,166.0,185.5,178.6,10.9
696.0,183.0,172.2,180.2,178.4,5.6
700.0,181.8,168.4,181.7,177.3,7.7
704.0,178.6,167.5,181.8,176.0,7.5
708.0,179.4,168.6,174.1,174.0,5.4
712.0,178.5,165.7,170.0,171.4,6.5
716.0,175.8,165.4,171.6,171.0,5.2
720.0,175.0,162.6,166.6,168.1,6.3
724.0,171.0,162.0,165.4,166.1,4.6
728.0,171.2,159.0,161.2,163.8,6.5
732.0,167.9,162.0,158.6,162.9,4.7
736.0,168.4,156.3,155.4,160.0,7.3
740.0,167.0,158.2,157.8,161.0,5.2
744.0,166.7,156.4,153.5,158.9,6.9
748.0,159.8,150.5,154.5,154.9,4.6
752.0,156.0,147.1,150.9,151.3,4.5
756.0,154.1,138.4,147.7,146.7,7.9
760.0,148.3,129.8,144.4,140.8,9.8
764.0,145.2,115.4,141.7,134.1,16.3
768.0,141.3,103.0,137.9,127.4,21.2
772.0,133.8,89.5,134.4,119.2,25.7
776.0,131.0,81.3,128.3,113.5,28.0
780.0,123.6,78.0,127.3,109.6,27.4
784.0,118.4,73.6,121.4,104.4,26.8
788.0,110.3,67.9,113.9,97.4,25.6
792.0,106.0,66.1,109.4,93.8,24.1
796.0,100.4,64.2,104.0,89.5,22.0
800.0,95.4,61.9,95.2,84.2,19.3
804.0,94.3,59.2,89.5,81.0,19.0
808.0,93.3,58.0,86.0,79.1,18.6
812.0,95.0,58.4,80.4,77.9,18.5
816.0,95.5,57.2,77.5,76.7,19.2
820.0,95.2,56.3,74.2,75.2,19.5
824.0,93.0,56.1,69.4,72.8,18.7
828.0,92.9,54.3,68.5,71.9,19.6
832.0,90.2,53.0,67.9,70.4,18.7
836.0,86.7,52.6,68.2,69.2,17.1
840.0,85.3,51.7,66.1,67.7,16.8
844.0,83.1,51.9,65.9,67.0,15.6
848.0,81.1,51.9,66.4,66.5,14.6
852.0,79.6,51.7,65.6,65.7,14.0
856.0,77.6,50.7,64.7,64.4,13.4
860.0,77.3,50.6,63.5,63.8,13.4
864.0,75.8,48.4,63.1,62.4,13.7
868.0,73.3,48.0,62.8,61.4,12.7
872.0,71.6,47.7,64.0,61.1,12.2
876.0,70.6,47.4,63.9,60.6,11.9
880.0,71.0,47.6,62.2,60.3,11.9
884.0,70.3,48.3,62.6,60.4,11.2
888.0,68.0,48.2,61.6,59.3,10.1
892.0,67.1,47.3,60.3,58.2,10.0
896.0,67.6,45.8,60.6,58.0,11.1
900.0,67.2,45.9,60.5,57.9,10.9
904.0,67.9,45.6,59.7,57.7,11.3
908.0,65.4,45.7,59.6,56.9,10.1
912.0,64.5,45.8,59.7,56.7,9.7
916.0,65.2,46.9,59.8,57.3,9.4
920.0,64.3,47.1,59.7,57.1,8.9
924.0,63.1,44.8,59.8,55.9,9.8
928.0,62.8,43.9,60.3,55.6,10.3
932.0,62.4,42.2,59.8,54.8,11.0
936.0,60.8,42.2,59.2,54.1,10.3
940.0,61.9,43.4,60.5,55.3,10.3
944.0,62.6,43.4,59.7,55.2,10.4
948.0,62.3,43.9,59.0,55.1,9.8
952.0,61.3,43.5,58.4,54.4,9.6
956.0,60.7,43.2,58.6,54.2,9.6
960.0,59.7,43.7,58.6,54.0,8.9
964.0,59.9,43.7,59.9,54.5,9.3
968.0,62.1,43.5,60.8,55.5,10.4
972.0,61.5,43.0,61.2,55.2,10.6
976.0,59.2,42.9,61.1,54.4,10.0
980.0,58.1,42.1,61.3,53.8,10.3
984.0,57.1,43.8,62.2,54.3,9.5
988.0,56.9,42.3,60.3,53.2,9.6
992.0,57.3,42.2,59.4,53.0,9.4
996.0,58.1,42.3,58.8,53.1,9.3
1000.0,58.0,43.4,59.0,53.5,8.7
1004.0,56.0,43.0,59.1,52.7,8.6
1008.0,54.8,41.6,59.7,52.0,9.4
1012.0,53.5,40.6,59.0,51.0,9.4
1016.0,52.0,40.6,60.9,51.2,10.2
1020.0,52.8,40.4,60.5,51.2,10.1
1024.0,53.5,41.1,60.2,51.6,9.7
1028.0,54.2,41.6,60.8,52.2,9.7
1032.0,53.2,40.1,59.7,51.0,10.0
1036.0,51.9,40.5,57.7,50.0,8.8
1040.0,52.4,40.2,58.2,50.3,9.2
1044.0,51.8,39.5,57.1,49.5,9.0
1048.0,51.4,38.9,55.7,48.7,8.8
1052.0,50.6,39.2,57.2,49.0,9.1
1056.0,51.1,39.9,57.1,49.4,8.7
1060.0,51.9,41.0,56.3,49.7,7.8
1064.0,52.1,40.3,56.6,49.7,8.4
1068.0,53.2,40.3,55.9,49.8,8.3
1072.0,51.6,41.1,54.5,49.1,7.1
1076.0,51.7,41.0,55.1,49.3,7.4
1080.0,54.6,39.5,54.7,49.6,8.7
1084.0,55.1,38.5,54.1,49.2,9.3
1088.0,52.8,39.0,54.6,48.8,8.5
1092.0,51.0,39.1,55.2,48.4,8.4
1096.0,50.0,38.9,56.6,48.5,8.9
1100.0,49.3,38.3,56.2,47.9,9.0
1104.0,50.0,36.7,55.0,47.2,9.5
1108.0,49.4,36.9,54.7,47.0,9.2
1112.0,48.1,36.9,55.7,46.9,9.4
1116.0,48.5,37.2,54.0,46.6,8.6
1120.0,48.2,36.4,55.3,46.6,9.5
1124.0,49.0,37.6,56.4,47.7,9.4
1128.0,49.2,37.5,56.1,47.6,9.4
1132.0,48.9,37.5,55.8,47.4,9.2
1136.0,49.7,36.9,54.6,47.0,9.1
1140.0,48.6,37.4,55.1,47.0,9.0
1144.0,49.9,36.9,54.6,47.1,9.2
1148.0,48.6,37.4,56.6,47.5,9.6
1152.0,47.8,36.5,57.4,47.2,10.5
1156.0,49.0,37.4,56.2,47.5,9.5
1160.0,48.6,38.2,55.7,47.5,8.8
1164.0,49.4,,54.0,51.7,3.2
1168.0,49.4,,54.6,52.0,3.7
1172.0,48.5,,52.8,50.7,3.1
1176.0,47.5,,52.5,50.0,3.5
1180.0,47.2,,51.1,49.2,2.7
1184.0,47.0,,52.9,49.9,4.2
1188.0,48.0,,53.6,50.8,4.0
1192.0,46.0,,53.0,49.5,5.0
1196.0,46.3,,,46.3,
1198.5,45.4,,,45.4,