Folder: fsri_materials_database/01_Data/Polyester_Bed_Skirt/Cone (part 2)

File: Polyester_Bed_Skirt_HRRPUA_75.csv
Time after Ignition,Polyester_Bed_Skirt_R1,Polyester_Bed_Skirt_R2,Polyester_Bed_Skirt_R3,Mean,Std. Dev.
0.0,2.9,10.5,6.0,6.5,3.9
0.5,7.2,21.6,9.6,12.8,7.7
1.0,13.5,30.0,14.2,19.2,9.4
1.5,25.9,49.2,18.3,31.1,16.1
2.0,42.1,65.5,28.0,45.2,18.9
2.5,61.3,86.2,35.3,60.9,25.5
3.0,80.1,114.7,52.5,82.4,31.2
3.5,97.3,153.4,60.6,103.8,46.7
4.0,116.4,199.7,71.2,129.1,65.2
4.5,140.0,250.0,92.4,160.8,80.8
5.0,179.0,318.1,121.6,206.3,101.1
5.5,207.7,358.6,152.8,239.7,106.5
6.0,249.3,416.1,172.7,279.4,124.4
6.5,278.8,442.4,213.2,311.5,118.0
7.0,331.9,473.1,246.4,350.5,114.5
7.5,368.2,528.4,326.4,407.7,106.6
8.0,397.2,547.7,371.5,438.8,95.2
8.5,436.6,572.6,443.4,484.2,76.7
9.0,464.8,589.4,467.7,507.3,71.1
9.5,495.6,599.2,510.0,534.9,56.1
10.0,511.9,594.4,546.0,550.8,41.5
10.5,542.7,586.1,585.2,571.4,24.8
11.0,551.0,561.8,608.2,573.7,30.4
11.5,581.9,533.0,630.2,581.7,48.6
12.0,587.8,507.3,626.2,573.8,60.7
12.5,576.7,491.9,653.3,574.0,80.8
13.0,575.2,460.5,654.0,563.2,97.3
13.5,545.8,428.0,633.7,535.8,103.2
14.0,527.9,404.0,615.4,515.8,106.3
14.5,503.9,374.4,598.6,492.3,112.6
15.0,469.4,355.5,573.2,466.0,108.8
15.5,443.8,328.7,533.9,435.5,102.8
16.0,410.8,302.4,513.4,408.9,105.5
16.5,387.3,275.9,473.5,378.9,99.1
17.0,365.7,261.1,438.2,355.0,89.0
17.5,347.7,243.2,407.1,332.7,83.0
18.0,326.7,227.3,383.5,312.5,79.1
18.5,300.6,217.1,344.9,287.5,64.9
19.0,284.5,199.7,320.4,268.2,62.0
19.5,268.8,186.9,294.0,249.9,56.0
20.0,254.7,176.3,271.1,234.0,50.6
20.5,238.6,166.4,244.7,216.6,43.5
21.0,227.0,156.4,232.9,205.5,42.5
21.5,210.7,146.3,216.4,191.1,38.9
22.0,200.1,137.5,200.7,179.4,36.3
22.5,183.6,131.1,185.5,166.7,30.9
23.0,174.3,125.8,173.8,158.0,27.8
23.5,161.2,119.6,164.8,148.5,25.1
24.0,148.6,113.2,154.4,138.7,22.3
24.5,139.4,107.7,149.1,132.1,21.7
25.0,130.7,102.1,142.4,125.0,20.7
25.5,123.4,94.8,131.1,116.4,19.2
26.0,115.2,91.3,127.1,111.2,18.2
26.5,108.7,87.5,117.9,104.7,15.6
27.0,103.6,82.3,114.3,100.0,16.3
27.5,98.3,79.0,107.0,94.8,14.3
28.0,92.1,76.6,103.0,90.6,13.3
28.5,89.8,73.9,97.4,87.0,12.0
29.0,85.7,71.3,95.1,84.0,11.9
29.5,81.4,68.4,89.9,79.9,10.8
30.0,79.5,67.3,87.7,78.2,10.3
30.5,76.3,65.4,84.9,75.5,9.8
31.0,72.7,63.8,81.6,72.7,8.9
31.5,72.0,62.6,79.6,71.4,8.5
32.0,69.1,62.2,77.1,69.5,7.5
32.5,68.4,61.1,73.6,67.7,6.3
33.0,65.4,60.2,71.7,65.8,5.7
33.5,63.7,59.3,69.6,64.2,5.2
34.0,62.7,56.9,67.4,62.3,5.3
34.5,60.7,55.5,65.7,60.6,5.1
35.0,59.4,54.1,63.7,59.0,4.8
35.5,58.2,52.9,62.8,58.0,5.0
36.0,56.7,51.3,60.3,56.1,4.5
36.5,55.5,50.1,59.5,55.0,4.7
37.0,55.0,49.7,59.8,54.8,5.0
37.5,53.0,48.1,57.7,53.0,4.8
38.0,52.3,47.6,57.1,52.3,4.7
38.5,52.1,46.9,55.3,51.4,4.3
39.0,51.0,45.4,53.9,50.1,4.3
39.5,49.3,45.1,54.2,49.5,4.6
40.0,49.1,44.0,52.2,48.5,4.2
40.5,49.0,43.6,51.6,48.1,4.1
41.0,47.9,42.6,50.7,47.1,4.2
41.5,46.9,41.7,49.9,46.1,4.1
42.0,45.9,40.7,49.7,45.4,4.5
42.5,46.4,40.0,49.2,45.2,4.7
43.0,45.3,39.5,47.8,44.2,4.3
43.5,45.1,39.0,47.3,43.8,4.3
44.0,45.1,38.8,47.0,43.6,4.3
44.5,44.5,38.1,46.5,43.0,4.4
45.0,43.4,38.5,46.0,42.6,3.8
45.5,43.2,37.6,45.5,42.1,4.1
46.0,43.1,36.9,45.4,41.8,4.4
46.5,42.6,36.3,44.9,41.2,4.5
47.0,41.9,36.3,44.5,40.9,4.2
47.5,41.2,35.5,44.7,40.4,4.7
48.0,40.7,34.3,44.2,39.7,5.0
48.5,41.3,33.5,44.3,39.7,5.6
49.0,41.0,33.1,44.1,39.4,5.6
49.5,39.9,32.1,42.6,38.2,5.5
50.0,40.0,31.7,42.1,37.9,5.5
50.5,39.8,31.0,41.5,37.4,5.6
51.0,39.0,30.3,41.8,37.0,6.0
51.5,39.3,30.1,41.3,36.9,6.0
52.0,39.0,29.4,41.2,36.5,6.2
52.5,38.7,29.7,40.3,36.2,5.7
53.0,38.4,29.8,40.6,36.2,5.7
53.5,38.8,29.3,41.3,36.4,6.3
54.0,38.4,29.0,40.2,35.8,6.0
54.5,38.0,28.3,39.9,35.4,6.2
55.0,37.8,27.4,39.7,35.0,6.6
55.5,37.4,26.9,39.8,34.7,6.9
56.0,37.2,26.8,39.2,34.4,6.7
56.5,37.4,25.7,38.6,33.9,7.1
57.0,36.9,25.3,38.7,33.6,7.3
57.5,36.7,25.0,38.9,33.5,7.5
58.0,36.2,24.7,38.1,33.0,7.3
58.5,36.4,24.1,37.9,32.8,7.6
59.0,35.5,23.6,38.2,32.4,7.8
59.5,35.9,23.2,38.6,32.5,8.2
60.0,36.0,23.1,38.4,32.5,8.2
60.5,35.3,22.9,38.2,32.1,8.1
61.0,34.7,22.2,38.5,31.8,8.5
61.5,34.4,21.7,38.3,31.5,8.7
62.0,34.2,21.0,37.5,30.9,8.7
62.5,34.4,21.0,37.3,30.9,8.7
63.0,33.8,20.7,36.2,30.2,8.3
63.5,33.2,20.0,36.3,29.9,8.7
64.0,33.2,19.5,36.2,29.6,8.9
64.5,33.5,19.2,35.3,29.3,8.9
65.0,32.5,19.0,35.5,29.0,8.8
65.5,32.8,18.8,34.8,28.8,8.7
66.0,32.6,18.4,34.2,28.4,8.7
66.5,32.5,18.7,34.5,28.5,8.6
67.0,33.0,18.4,34.4,28.6,8.8
67.5,32.4,18.5,34.1,28.3,8.5
68.0,31.9,18.3,33.7,28.0,8.4
68.5,32.4,18.2,34.1,28.2,8.7
69.0,32.3,18.0,33.6,28.0,8.7
69.5,32.4,17.9,33.6,28.0,8.7
70.0,32.7,17.6,32.9,27.7,8.8
70.5,33.0,17.5,32.7,27.7,8.9
71.0,33.3,17.2,32.5,27.6,9.1
71.5,32.6,17.1,32.1,27.3,8.8
72.0,32.7,16.6,32.1,27.1,9.1
72.5,33.2,16.7,32.0,27.3,9.2
73.0,32.6,16.0,32.7,27.1,9.6
73.5,32.5,16.0,31.9,26.8,9.4
74.0,32.0,15.7,31.4,26.4,9.2
74.5,31.8,15.8,30.7,26.1,8.9
75.0,32.1,15.6,30.6,26.1,9.2
75.5,31.9,15.6,30.7,26.1,9.1
76.0,31.4,15.5,29.6,25.5,8.7
76.5,31.4,15.6,29.9,25.6,8.7
77.0,31.0,15.4,29.4,25.3,8.6
77.5,31.2,15.2,28.7,25.0,8.6
78.0,30.8,15.3,27.7,24.6,8.2
78.5,30.3,15.3,27.4,24.3,8.0
79.0,29.6,15.3,27.0,24.0,7.6
79.5,29.8,15.2,27.2,24.1,7.8
80.0,29.4,14.9,26.9,23.7,7.8
80.5,29.2,15.4,26.2,23.6,7.3
81.0,28.7,15.6,26.1,23.5,6.9
81.5,28.4,15.8,25.1,23.1,6.6
82.0,27.9,15.6,24.5,22.7,6.3
82.5,27.1,15.9,24.4,22.5,5.9
83.0,26.6,16.2,23.8,22.2,5.4
83.5,26.4,16.2,23.5,22.0,5.3
84.0,25.7,16.2,23.1,21.7,4.9
84.5,25.2,16.3,22.6,21.3,4.6
85.0,24.7,16.3,22.5,21.2,4.3
85.5,24.5,16.3,22.4,21.0,4.3
86.0,23.8,16.3,21.8,20.6,3.9
86.5,23.5,16.7,22.1,20.8,3.6
87.0,23.6,16.6,22.1,20.8,3.7
87.5,22.8,17.1,21.4,20.4,3.0
88.0,22.8,17.1,21.3,20.4,2.9
88.5,22.1,17.4,21.3,20.3,2.5
89.0,21.6,17.9,21.0,20.2,2.0
89.5,21.2,17.6,20.6,19.8,1.9
90.0,21.1,17.8,20.9,19.9,1.8
90.5,20.7,18.1,20.5,19.8,1.4
91.0,20.4,18.1,20.0,19.5,1.2
91.5,20.0,18.1,19.8,19.3,1.0
92.0,20.1,18.2,19.6,19.3,1.0
92.5,19.5,18.5,19.4,19.1,0.5
93.0,19.2,18.7,19.2,19.0,0.3
93.5,19.1,18.9,19.4,19.1,0.3
94.0,18.8,19.2,19.1,19.0,0.2
94.5,18.5,19.1,19.2,18.9,0.4
95.0,17.8,19.1,18.8,18.6,0.7
95.5,17.8,19.4,18.7,18.6,0.8
96.0,17.3,19.4,18.7,18.5,1.1
96.5,17.1,19.5,18.8,18.5,1.2
97.0,16.7,19.6,18.5,18.3,1.5
97.5,15.9,19.9,18.3,18.0,2.0
98.0,15.6,19.6,17.9,17.7,2.0
98.5,15.1,19.6,18.0,17.6,2.3
99.0,14.6,19.3,17.8,17.2,2.4
99.5,14.2,19.7,17.5,17.1,2.8
100.0,13.9,19.4,17.2,16.9,2.8
100.5,13.2,19.7,17.3,16.8,3.3
101.0,13.0,19.7,16.7,16.5,3.4
101.5,12.7,19.5,16.8,16.3,3.4
102.0,12.6,19.8,16.6,16.3,3.6
102.5,12.0,19.7,16.2,16.0,3.8
103.0,11.9,20.1,16.6,16.2,4.1
103.5,11.4,19.4,16.3,15.7,4.0
104.0,11.1,19.3,16.3,15.6,4.1
104.5,10.8,19.4,16.3,15.5,4.4
105.0,10.9,18.9,16.4,15.4,4.1
105.5,10.5,19.0,16.3,15.3,4.4
106.0,10.1,18.9,16.2,15.1,4.5
106.5,9.8,18.7,16.0,14.8,4.6
107.0,9.5,18.8,16.5,14.9,4.8
107.5,9.4,18.8,16.3,14.8,4.9
108.0,9.2,18.9,16.2,14.8,5.0
108.5,9.0,19.0,16.2,14.8,5.2
109.0,9.0,19.1,16.4,14.8,5.2
109.5,9.0,19.4,16.4,14.9,5.4
110.0,8.8,19.4,16.3,14.8,5.5
110.5,8.9,19.5,16.0,14.8,5.4
111.0,8.7,19.5,15.8,14.7,5.5
111.5,8.9,19.3,15.8,14.6,5.3
112.0,8.7,19.4,15.4,14.5,5.4
112.5,8.6,19.2,15.3,14.3,5.4
113.0,8.3,18.9,15.4,14.2,5.4
113.5,8.1,18.8,15.3,14.0,5.5
114.0,8.1,18.5,15.0,13.9,5.3
114.5,7.8,18.9,15.1,13.9,5.6
115.0,7.6,18.7,15.1,13.8,5.7
115.5,7.5,18.7,14.9,13.7,5.6
116.0,7.5,18.4,14.8,13.5,5.6
116.5,7.2,18.3,14.5,13.3,5.6
117.0,7.2,18.3,14.2,13.2,5.6
117.5,7.2,18.0,14.1,13.1,5.5
118.0,7.2,18.4,13.9,13.1,5.6
118.5,7.1,18.4,14.0,13.2,5.7
119.0,7.1,18.0,13.9,13.0,5.5
119.5,7.1,18.1,13.8,13.0,5.5
120.0,7.1,17.6,13.7,12.8,5.3
120.5,7.1,17.6,13.6,12.8,5.3
121.0,6.8,17.2,13.2,12.4,5.3
121.5,6.6,17.2,13.1,12.3,5.4
122.0,6.5,17.3,12.9,12.2,5.4
122.5,6.4,17.0,12.8,12.0,5.3
123.0,6.2,16.8,12.7,11.9,5.3
123.5,6.0,16.1,12.5,11.6,5.1
124.0,6.0,16.0,12.0,11.4,5.0
124.5,6.0,15.3,12.0,11.1,4.7
125.0,5.9,14.9,11.8,10.9,4.6
125.5,5.8,14.7,11.6,10.7,4.5
126.0,5.5,14.4,11.5,10.5,4.5
126.5,5.5,14.3,11.5,10.4,4.5
127.0,5.4,13.8,11.0,10.1,4.3
127.5,5.2,13.8,10.9,10.0,4.4
128.0,5.2,13.4,10.5,9.7,4.2
128.5,5.1,13.6,10.3,9.7,4.3
129.0,5.1,13.7,10.3,9.7,4.3
129.5,5.0,13.9,10.2,9.7,4.5
130.0,4.9,14.0,10.2,9.7,4.5