Folder: fsri_materials_database/01_Data/Overstuffed_Chair/Furniture_Calorimeter (part 2)

File: Overstuffed_Chair_R3.csv
Time (s),Convective HRR,TCPlume1,TCPlume2,TCPlume3,DPPlume1,DPPlume2,DPPlume3,HF1,HF2,HF3,HF4,HF5,HF6,RAD2,RAD1,Load Cell,Heat Release Rate,Total Heat Released
-120,0.0,-5.38529,-3.77914,16.3039,0.0381701,0.0569958,0.0374671,-0.0943957,-4.46941e-15,-0.451631,-0.28983,0.349746,-0.0332757,0.281084,1.92317,28.5837,0.0,0.0
-95,0.09058,-5.26348,-4.59094,15.2039,0.0609573,0.0266151,0.0374671,-1.69912,-0.898695,-0.451631,1.43466,0.724698,-0.0332757,0.447131,1.92317,28.5421,0.0,0.0
-70,0.0,-6.31222,-4.54717,15.0943,0.00778721,0.0569958,0.0146805,0.707968,0.898695,-0.451631,-1.15207,0.349746,0.249568,0.447131,2.88169,28.5214,0.0,0.0
-45,0.0,-6.12346,-4.94304,14.783,0.0609573,0.0494006,0.0906359,0.707968,-0.898695,-0.451631,0.572413,-0.400159,-0.0332757,0.281084,2.88169,28.8952,0.0,0.0
-20,0.0,-8.27633,-5.33356,15.1634,0.000191489,0.0494006,0.105827,-0.0943957,-4.46941e-15,0.362673,-0.28983,-0.0252069,0.108146,0.447131,0.964651,28.5214,0.0,0.0
5,0.0,-7.33702,-5.68539,14.2858,0.0305744,-0.0113609,0.0982315,0.707968,-4.46941e-15,0.362673,-0.28983,-0.400159,0.108146,0.281084,1.92317,28.7083,0.0,0.0
30,0.0,-7.76852,-6.38897,14.285,-0.0377871,0.0342103,0.0678493,-0.0943957,-0.898695,-0.451631,2.2969,-0.0252069,-0.174697,0.613177,0.964651,28.729,0.0,0.0
55,0.0,-7.43402,-6.68042,14.2676,-0.0225957,0.0190199,-0.0688705,0.707968,0.898695,0.362673,-0.28983,0.349746,0.108146,0.447131,2.88169,28.8536,0.0,0.0
80,0.0,-6.5075,-4.93646,15.9708,0.228063,-0.0189561,0.417244,1.51033,-4.46941e-15,0.362673,0.572413,-0.0252069,-0.0332757,0.281084,4.79872,28.7083,19.6526,0.0863856
105,0.0,1.33526,6.8966,24.9537,0.486318,0.915252,0.28812,3.11506,0.898695,1.17698,0.572413,0.724698,0.249568,0.613177,5.75724,28.7083,162.179,1.84281
130,80.0563,30.6397,43.9887,76.4156,0.455935,3.94573,4.54922,9.53397,3.59478,5.2485,3.15914,2.59946,1.52236,1.60946,11.5083,28.5837,467.884,9.3125
155,268.414,97.1942,128.194,175.08,8.73527,3.63433,9.98763,19.9647,8.08826,7.69141,6.60811,4.84917,3.21943,2.93783,18.218,27.7323,978.723,26.5931
180,455.799,142.127,186.462,246.518,3.8968,6.75595,6.09112,30.3954,11.683,11.7629,7.47036,7.09889,4.49222,4.43225,29.7202,26.2371,1176.79,51.3631
205,711.43,208.668,316.021,473.47,1.95989,11.2295,13.7094,48.8498,18.8726,19.906,13.5061,11.9733,7.17923,7.089,46.9735,24.3889,1740.21,87.0384
230,995.849,263.217,417.976,632.793,7.17815,7.74333,12.0764,66.5018,23.3661,25.6061,19.5418,15.3478,9.72483,9.5797,62.3097,22.25,1585.79,130.084
255,985.038,213.869,314.617,537.514,4.74752,15.2246,7.80771,65.6994,18.8726,21.5346,18.6795,12.3482,7.32066,7.089,58.4757,20.0696,1163.88,164.057
280,695.128,172.282,244.971,433.05,5.69698,11.2827,6.12909,44.0356,12.5817,15.8345,12.6438,7.09889,4.91649,4.76435,36.4298,18.2629,910.086,188.783
305,612.577,139.783,203.783,371.625,12.3205,6.50531,10.5725,33.6049,10.7843,11.7629,9.19484,5.59908,3.92653,3.93411,28.7616,16.7678,809.165,209.016
330,586.554,127.901,177.791,326.67,4.65637,5.40401,13.3752,28.7907,8.98695,9.32002,9.19484,4.84917,3.21943,3.26993,23.0105,15.418,702.663,228.325
355,474.572,113.197,161.551,286.763,5.91726,8.04714,11.6055,27.186,7.18956,8.50572,6.60811,4.47422,2.79516,2.93783,22.052,14.2966,546.848,244.117
380,342.245,94.919,131.993,253.595,3.39548,4.37106,3.83524,19.9647,4.49348,6.0628,6.60811,3.34936,2.22947,2.43969,16.3009,13.4867,438.943,256.241
405,345.6,86.2429,121.431,232.325,6.38819,8.38132,6.9722,16.7552,5.39217,3.61989,4.88363,2.59946,1.94663,1.7755,13.4254,12.7807,402.005,267.621
430,317.251,83.3117,114.802,214.391,3.0005,1.21146,3.25038,15.1505,4.49348,5.2485,4.02138,2.22451,1.80521,1.60946,11.5083,11.9915,375.002,276.929
455,301.03,72.1958,102.675,196.624,3.47903,5.23691,3.87322,11.9411,3.59478,3.61989,4.02138,2.22451,1.52236,1.44341,9.5913,11.3063,370.982,286.558
480,280.601,65.3304,93.9301,181.953,7.95291,1.87984,5.18725,12.7434,2.69609,4.4342,2.2969,2.22451,1.52236,1.60946,11.5083,10.6002,345.461,295.366
505,251.665,62.1347,86.9085,166.498,4.54243,5.04704,6.50887,10.3363,4.49348,3.61989,2.2969,1.4746,1.38094,1.44341,10.5498,10.1226,339.419,303.832
530,220.854,49.7783,72.9967,150.783,2.33967,4.75082,4.50365,11.1387,2.69609,2.80559,2.2969,2.22451,1.23952,1.27736,9.5913,9.45808,310.186,311.087
555,229.638,42.4671,63.7457,133.704,3.49422,2.22162,2.68831,9.53397,3.59478,2.80559,2.2969,1.84956,1.38094,1.44341,8.63279,8.98046,323.843,318.814
580,234.958,49.3965,68.9878,132.532,3.98795,3.78623,5.05812,11.1387,2.69609,3.61989,4.88363,1.4746,1.38094,1.44341,9.5913,8.48207,275.205,326.178
605,207.021,41.9715,60.4634,121.697,0.585062,3.14064,4.35933,10.3363,2.69609,4.4342,3.15914,1.4746,1.38094,1.60946,7.67427,7.98369,264.684,333.103
630,186.845,34.7996,53.054,110.67,1.89153,2.54062,5.92401,9.53397,5.39217,5.2485,4.02138,2.59946,1.66379,1.7755,7.67427,7.4853,282.053,340.193
655,220.01,39.1657,52.0513,106.956,0.630637,0.763348,3.30355,7.92924,4.49348,4.4342,4.02138,1.84956,1.52236,1.44341,8.63279,6.96615,239.001,347.249
680,163.206,30.4297,43.0379,95.7158,2.1194,1.89503,1.86799,8.7316,3.59478,3.61989,3.15914,1.4746,1.52236,1.44341,6.71575,6.48853,201.032,353.215
705,144.777,25.368,36.0917,89.0816,1.87634,3.64193,0.834999,7.12688,2.69609,2.80559,3.15914,1.84956,1.23952,1.44341,8.63279,6.1355,168.637,358.074
730,141.636,20.7434,29.2947,78.1376,1.64846,1.37096,0.303311,6.32451,3.59478,2.80559,3.15914,1.4746,1.0981,1.11132,5.75724,5.96938,153.024,362.573
755,137.555,15.8285,23.9248,70.5717,0.531892,3.3685,3.49344,5.52215,1.79739,3.61989,3.15914,1.4746,0.956677,1.11132,5.75724,5.65788,124.446,366.384
780,100.808,15.4685,22.1284,67.253,0.516701,0.0873766,4.67835,6.32451,1.79739,2.80559,2.2969,1.84956,1.0981,1.11132,6.71575,5.34639,152.779,369.93
805,108.834,16.2185,24.3123,69.4435,0.577466,1.1583,0.933741,6.32451,0.898695,2.80559,2.2969,1.09965,0.956677,1.11132,3.8402,5.13873,140.059,373.459
830,100.333,11.211,19.0321,62.7137,1.61048,1.4697,2.84022,3.91742,3.59478,1.99128,1.43466,1.09965,0.815255,0.945271,4.79872,4.9726,122.429,376.548
855,94.0859,11.1455,18.4165,59.1963,0.525632,3.15985,0.411809,5.85291,1.56398,2.60433,2.89145,1.00009,0.625987,0.980441,3.84774,4.80195,105.93,379.573
880,71.3001,9.31533,16.7655,55.7729,0.76736,2.55581,2.16422,4.71979,2.69609,3.61989,1.43466,1.4746,0.815255,0.945271,6.71575,4.68188,118.94,382.669
905,69.6816,7.54448,13.5152,53.2535,0.266042,0.0342103,0.0146805,5.52215,0.898695,2.80559,3.15914,0.724698,0.673833,1.27736,2.88169,4.47422,103.123,385.133
930,68.6146,8.93687,15.9699,53.4899,0.668615,1.70515,2.27056,4.71979,1.79739,2.80559,1.43466,1.4746,0.673833,1.11132,5.75724,4.32885,86.9529,387.575
955,63.9858,7.96915,14.0912,50.4125,0.524296,1.08994,0.546369,4.71979,1.79739,2.80559,3.15914,1.4746,0.815255,1.27736,5.75724,4.16272,88.2372,389.657
980,62.273,6.85359,12.1011,48.9637,0.683807,0.102567,0.272929,3.11506,1.79739,3.61989,4.02138,1.4746,0.39099,0.945271,5.75724,4.01736,68.4155,391.428
1005,51.209,4.28302,10.5291,46.216,1.57251,1.57603,0.257738,3.91742,1.79739,1.99128,2.2969,1.09965,0.956677,0.613177,5.75724,3.8097,64.0687,393.302
1030,47.0883,3.45075,8.55132,43.9613,0.266042,0.44435,0.0146805,4.71979,1.79739,2.80559,1.43466,1.09965,0.673833,0.945271,5.75724,3.83047,63.3378,395.167
1055,45.3783,3.09454,7.85124,43.058,1.12436,2.58619,2.55159,3.91742,1.79739,2.80559,2.2969,0.724698,0.673833,0.779224,5.75724,3.66434,67.5924,397.128
1080,38.7229,0.676492,5.16639,40.2601,0.159702,2.17605,0.348884,3.91742,1.79739,3.61989,3.15914,0.724698,0.532411,0.945271,4.79872,3.47744,45.4451,398.724
1105,27.1429,-0.463795,3.60675,38.4048,0.205276,0.2089,1.79204,3.11506,2.69609,1.17698,2.2969,1.4746,0.673833,0.779224,4.79872,3.29055,61.013,400.288
1130,29.1931,0.133502,4.4702,38.6867,0.0533616,1.01399,0.341289,2.31269,-4.46941e-15,2.80559,3.15914,0.349746,0.815255,1.11132,4.79872,3.35285,58.8559,401.894
1155,28.1694,-0.185011,3.96089,37.7793,0.706594,0.543088,1.02489,3.91742,0.898695,1.99128,4.02138,0.724698,0.815255,1.11132,3.8402,3.18672,67.2289,403.609
1180,25.059,-1.47908,2.75128,35.2142,0.326808,1.00639,0.683088,4.71979,1.79739,2.80559,2.2969,1.09965,0.815255,0.945271,4.79872,2.99982,53.9818,405.193
1205,22.9593,-3.93699,1.6238,34.2611,0.0229787,0.231685,0.432435,3.11506,0.898695,1.99128,2.2969,1.4746,0.673833,0.945271,3.8402,2.99982,67.7475,406.719
1230,19.2713,-3.21659,0.802711,32.7818,0.417956,0.0949718,0.128614,3.91742,1.79739,2.80559,2.2969,1.4746,0.815255,0.779224,3.8402,2.87523,40.8103,408.175
1255,12.8474,-3.04,0.823885,33.2153,0.288829,0.117757,1.35909,3.11506,3.59478,1.99128,3.15914,1.09965,0.673833,1.11132,3.8402,2.81293,54.6572,409.534
1280,12.7516,-3.06293,-0.117891,31.8043,0.425552,0.102567,0.941337,3.91742,1.79739,1.99128,1.43466,0.724698,0.532411,0.945271,4.79872,2.68833,39.605,410.692
1305,15.4703,-3.19662,-0.481154,31.487,0.585062,0.550683,0.804617,3.11506,2.69609,1.99128,1.43466,0.724698,0.532411,0.779224,3.8402,2.66756,19.4313,411.437
1330,9.09123,-3.94609,-0.954899,30.1222,0.258446,0.550683,0.204569,2.31269,1.79739,2.80559,1.43466,1.4746,0.532411,1.27736,3.8402,2.68833,9.52404,411.59
1355,5.94973,-4.99205,-1.52892,29.487,0.152106,-0.056932,0.189378,3.91742,0.898695,1.99128,1.43466,1.4746,0.673833,0.945271,4.79872,2.43914,51.1091,412.301
1380,10.0271,-4.98175,-2.52408,28.9698,0.068553,0.664611,0.212165,3.91742,1.79739,1.17698,2.2969,0.724698,0.532411,0.945271,4.79872,2.33531,51.1177,413.221
1405,5.57814,-3.70974,-1.06734,29.448,0.729381,0.155733,0.174187,3.11506,2.69609,1.17698,1.43466,1.09965,0.673833,0.613177,5.75724,2.35607,42.3347,414.39
1430,7.03883,-3.66061,-1.82914,28.5541,0.136915,-0.00376568,1.09325,3.11506,0.898695,2.80559,1.43466,1.09965,0.673833,0.779224,4.79872,2.16918,15.9056,415.08
1455,0.20277,-5.07282,-2.22748,28.1282,0.334403,0.269661,0.174187,4.71979,1.79739,1.17698,2.2969,1.09965,0.673833,0.945271,4.79872,2.14841,17.7697,415.438
1480,0.0,-6.50066,-3.06381,28.0306,0.182489,0.231685,0.447627,1.51033,2.69609,1.99128,2.2969,1.09965,0.532411,0.779224,4.79872,2.00305,26.6604,415.765
1505,0.0,-6.43992,-3.77979,26.3162,0.463531,-0.00376568,0.166591,2.31269,0.898695,1.99128,0.572413,1.09965,0.39099,0.779224,3.8402,2.02381,0.0,416.384
1510,0.0,-6.3453,-4.11318,26.2188,0.0305744,-0.0645272,-0.122039,2.31269,2.69609,1.99128,2.2969,0.349746,0.39099,0.945271,3.8402,2.00305,0.0,416.384