Folder: fsri_materials_database/01_Data/Overstuffed_Chair/Furniture_Calorimeter

Note: README.md
# Materials and Products Database
### Repository of materials and products properties and fire test data to improve fire modeling and fire investigation.

This project was supported in part by Award No. 2019-DU-BX-0018, awarded by the National Institute of Justice, Office of Justice Programs, U.S. Department of Justice. The opinions, findings, and conclusions or recommendations expressed in this publication / program / exhibition are those of the author(s) and do not necessarily reflect those of the Department of Justice.

***
***

__Cite this database:__ "McKinnon, M., Weinschenk, C., Dow, N., DiDomizio, M., and Madrzykowski, D. Materials and Products Database (Version 1.0.0), Fire Safety Research Institute, UL Research Institutes. Columbia, MD 21045, 2023."

__Cite the Technical Reference Guide:__ "McKinnon, M., Weinschenk, C., and Madrzykowski, D. Materials and Products Database - Technical Reference Guide, Fire Safety Research Institute, UL Research Institutes. Columbia, MD 21045, 2023."

__Cite the User Guide:__ "McKinnon, M., and Weinschenk, C. Materials and Products Database - User Guide, Fire Safety Research Institute, UL Research Institutes. Columbia, MD 21045, 2023."

***
***

## Database Structure

## 01_Data/
Raw data generated from each apparatus are included here in plain-text format. The data is organized first by material, next by the short name of test apparatus used, and where applicable additional filtering by test settings.

### Test Apparatus and Data File Structure
- __Cone Calorimeter__ (Cone)
    + Data file structure includes the material, the short name for the apparatus, heat flux setting and scan/scalar, date of test, and replicate number. Scan is for the raw output data and scalar is for the initial conditions and high-level test parameters. 
        * Example: __MDF_Cone_HF25scalar_210323_R1__ stands for the first replicate of scalar data generated from a medium density fiber board test in cone calorimeter exposed to 25 kW/m<sup>2</sup> on March 23, 2021.
    + A _Cone_Notes.csv_ is generated for each material from the __plot_Cone_data.py__ script. For materials whose experiments deviated from typical behavior relevant pictures are included in the respective material directory.
- __Fourier Transform Infrared Spectrometer__ (FTIR)
    + The FTIR directory contains subdirectories for the Attenuated Total Reflectance method (ATR) and the Integrating Sphere (IS)
    + Data file structure for the ATR experiment files includes the material, the abbreviated name for the apparatus, date of test, and replicate number. 
        * Example: __MDF_ATR_210323_R5__ stands for the fifth replicate of data collected with the ATR accessory conducted on June 8, 2021.
    + Data file structure for the IS experiment files includes the material, the abbreviated name for the apparatus, the measurand, whether the test is a sample measurement or standard reference, date of test, and replicate number.
        * Example: __OSB_IS_REFLECT_MEAS_2

File: Overstuffed_Chair_R1.csv
Time (s),Convective HRR,TCPlume1,TCPlume2,TCPlume3,DPPlume1,DPPlume2,DPPlume3,HF1,HF2,HF3,HF4,HF5,HF6,RAD2,RAD1,Load Cell,Heat Release Rate,Total Heat Released
-120,0.0,-8.93431,-8.61001,10.2871,-0.0640849,-0.103588,-0.0847637,-1.45639,0.188802,-0.465317,1.4419,0.258371,0.0178263,0.779224,2.88169,28.6875,0.0,0.0
-95,0.0,-9.27718,-8.59956,10.6413,0.0118723,0.0103397,-0.122741,-0.654027,-0.709894,0.348988,0.579659,-0.491534,-0.123595,0.613177,1.92317,28.729,0.0,0.0
-70,0.0,-9.32257,-8.99806,9.9091,-0.0716807,-0.00485071,-0.10755,-0.654027,-0.709894,-0.465317,-0.282584,0.633323,0.159248,0.613177,1.92317,28.7083,0.0,0.0
-45,0.0,-10.1876,-9.54828,10.2145,0.0270638,0.0407204,0.0291694,-0.654027,-0.709894,-0.465317,-2.00707,-0.491534,-0.123595,0.779224,1.92317,28.7083,0.0,0.0
-20,0.0,-10.0028,-9.28511,10.0119,-0.0261063,-0.0124459,-0.046786,-0.654027,0.188802,-0.465317,-1.14483,-0.116582,0.0178263,0.447131,2.88169,28.9159,0.0,0.0
5,0.0,-9.38585,-9.454,9.84754,0.0574466,-0.0656122,-0.00880828,0.9507,1.0875,-0.465317,0.579659,-0.491534,-0.123595,0.115037,2.88169,28.8952,0.0,0.0
30,0.0,-9.89185,-9.48848,9.92869,0.0422552,-0.058017,0.00638281,-0.654027,1.0875,1.16329,2.30414,-0.116582,0.159248,0.447131,3.8402,28.8952,0.0,0.0
55,0.0,-10.1059,-9.46665,10.0646,-0.0412978,0.0407204,-0.0239994,0.9507,-0.709894,-1.27962,1.4419,-0.116582,0.30067,0.779224,1.92317,28.8952,0.0,0.0
80,0.0,-8.9278,-7.81947,11.8602,0.0802338,0.101482,0.0671472,0.9507,0.188802,-1.27962,0.579659,0.258371,0.30067,0.945271,2.88169,28.8952,3.0026,0.0022038
105,0.0,-6.17667,-5.7368,13.9315,0.0726381,0.306552,0.0443605,0.9507,0.188802,0.348988,0.579659,-0.116582,0.30067,0.447131,4.79872,28.8536,108.437,1.05522
130,57.9272,9.04091,10.9243,25.6478,1.31834,4.21807,0.986208,7.36961,3.78358,3.60621,0.579659,1.38323,1.00778,1.44341,9.5913,28.5629,452.181,6.9559
155,272.69,68.4256,86.0777,99.6542,2.99699,1.52178,0.72796,16.1956,6.47967,6.04912,3.16639,3.63294,2.84626,2.93783,16.3009,27.8984,853.149,23.2358
180,479.413,115.878,124.511,149.379,3.01218,13.7121,5.93091,24.2192,9.17576,9.30634,5.75312,5.88266,3.69479,4.43225,23.9691,26.9016,1209.3,49.5146
205,744.323,189.596,251.902,319.047,8.23804,16.2944,3.28766,49.0925,16.3653,15.8208,10.9266,10.0071,6.24038,6.09272,44.0979,24.9288,1713.24,86.8491
230,913.202,307.654,441.118,608.924,9.40778,12.9374,10.6098,63.5351,22.6562,23.1495,16.9623,13.7567,8.9274,8.74947,57.5171,22.7069,1569.01,129.821
255,905.272,238.439,347.117,571.879,8.57985,8.09922,12.9568,57.9185,18.1627,19.8923,16.9623,11.5069,7.37176,7.089,54.6416,20.4226,1156.15,163.034
280,743.747,177.186,256.582,450.892,2.82989,19.1806,8.14881,44.2783,12.7705,15.8208,13.5133,7.75742,5.25043,5.09644,39.3053,18.429,974.504,189.774
305,626.284,145.319,206.587,369.721,12.4309,7.92453,5.99167,36.2547,10.9731,12.5636,10.0643,6.25761,4.26048,4.43225,31.6372,16.7678,905.729,212.304
330,542.481,142.969,200.138,327.564,9.61287,4.78771,9.79704,33.0452,9.17576,11.7492,10.0643,6.25761,3.97764,3.76807,29.7202,15.4387,713.722,231.894
355,483.808,131.845,176.383,296.845,4.97188,5.11431,3.27247,26.6263,7.37836,9.30634,6.61536,4.38285,3.12911,3.26993,23.9691,14.1097,586.443,247.752
380,416.198,101.904,141.311,252.938,2.84508,7.47641,7.03986,21.0098,4.68228,6.86342,6.61536,3.25799,2.70484,2.77179,18.218,13.279,500.227,261.018
405,400.281,92.2799,125.217,224.083,7.0759,6.74727,7.67788,15.3932,4.68228,6.04912,5.75312,2.13313,1.85631,1.94155,13.4254,12.4692,429.54,273.107
430,343.695,75.3605,100.324,191.101,5.18456,10.9474,4.29027,12.9862,3.78358,5.23481,4.89087,2.50808,1.71489,2.1076,13.4254,11.7839,386.337,283.922
455,317.86,60.8665,84.0637,170.064,5.23013,6.26118,1.44194,12.9862,3.78358,4.42051,4.02863,2.50808,1.85631,1.60946,11.5083,10.974,405.768,294.701
480,295.528,61.0025,80.8245,156.687,2.19944,2.4484,3.09777,13.7885,4.68228,5.23481,2.30414,2.50808,1.71489,1.94155,13.4254,10.3095,381.913,305.226
505,294.089,59.962,80.8869,146.737,5.86058,5.47888,3.85732,12.1838,2.88489,5.23481,4.89087,1.75818,1.71489,1.7755,11.5083,9.64498,351.589,314.949
530,246.853,50.5672,67.3613,130.792,2.03993,6.41308,5.58911,11.3814,3.78358,3.60621,4.89087,1.75818,1.1492,1.44341,11.5083,9.16736,335.086,323.834
555,224.173,46.7174,64.6816,123.41,5.60992,4.56745,0.416542,8.97434,2.88489,3.60621,3.16639,1.75818,1.1492,1.60946,9.5913,8.6482,329.795,332.488
580,247.956,48.4049,62.9392,115.448,3.67301,2.50916,4.47256,8.17197,2.88489,4.42051,3.16639,1.38323,1.43204,1.60946,8.63279,8.10828,325.99,340.44
605,205.4,48.7429,65.1108,112.626,3.42995,6.94475,5.23212,10.5791,1.98619,3.60621,4.02863,1.38323,1.29062,1.27736,9.5913,6.3224,316.159,347.9
630,217.988,38.4818,54.1427,105.649,4.12116,8.64607,4.42699,8.97434,2.88489,3.60621,4.02863,1.38323,1.43204,1.60946,8.63279,6.82079,360.208,356.666
655,255.98,49.4661,67.5162,114.58,6.21758,5.54723,4.07,11.3814,3.78358,4.42051,5.75312,2.50808,1.99773,2.1076,10.5498,6.67542,321.259,365.459
680,215.958,49.011,62.5858,110.073,0.695487,1.36228,1.32041,10.5791,2.88489,3.60621,5.75312,2.13313,1.99773,1.7755,10.5498,6.1355,315.378,373.173
705,206.074,39.0559,56.0739,106.922,1.94119,5.69154,2.73318,10.5791,2.88489,3.60621,4.89087,1.75818,1.57347,1.94155,9.5913,5.65788,337.2,380.706
730,200.734,35.8004,46.5351,95.0983,4.23509,4.64341,1.38877,8.97434,4.68228,3.60621,4.89087,1.75818,1.29062,1.44341,8.63279,5.13873,203.955,387.025
755,157.064,30.6893,40.4668,86.0782,2.69316,3.36741,2.78635,6.56724,1.98619,2.7919,4.02863,1.75818,1.1492,1.27736,8.63279,4.82724,246.69,392.66
780,156.919,27.5213,34.2597,75.7997,1.18161,3.04842,0.6596,7.36961,2.88489,4.42051,3.16639,2.13313,0.866357,1.44341,8.63279,4.47422,196.448,398.198
805,149.923,20.7078,27.3758,67.1741,0.19417,1.23317,1.73057,5.76488,2.88489,2.7919,3.16639,1.75818,1.00778,1.27736,7.67427,4.16272,196.241,403.087
830,128.642,18.3531,23.8249,62.5096,0.809423,0.177434,2.61925,7.36961,3.78358,4.42051,2.30414,1.38323,0.866357,1.11132,6.71575,3.83047,172.245,407.847
855,126.462,16.5214,21.6226,59.2679,1.62217,3.2231,1.23686,6.56724,2.88489,2.7919,2.30414,1.38323,1.1492,1.27736,6.71575,3.66434,126.199,411.974
880,100.919,12.8567,17.6298,53.6613,0.77904,0.785049,1.95844,6.56724,1.98619,2.7919,2.30414,0.633323,0.866357,1.27736,6.71575,3.49821,135.213,415.505
905,86.2141,9.7245,13.2105,48.523,0.118212,1.83319,0.849488,4.16015,1.0875,2.7919,1.4419,1.00828,0.866357,1.11132,6.71575,3.33208,140.285,418.688
930,74.6448,6.76256,11.2467,46.4315,0.923359,2.02306,1.25965,4.96252,2.88489,2.7919,2.30414,1.00828,0.724935,0.945271,5.75724,2.97906,119.878,421.852
955,68.4863,4.00064,7.41776,42.7863,0.239744,0.0938868,1.82172,4.16015,1.0875,2.7919,1.4419,1.00828,1.00778,1.27736,6.71575,2.83369,120.392,424.708
980,67.5639,3.37655,6.22002,39.3485,0.270127,0.731883,0.902657,5.76488,1.98619,1.9776,1.4419,1.00828,0.724935,1.27736,6.71575,2.5222,119.663,427.697
1005,63.3646,3.40886,8.66256,39.6784,1.36391,1.28633,0.72796,4.96252,1.98619,2.7919,2.30414,1.00828,0.442092,0.945271,5.75724,2.31454,113.023,430.587
1030,62.3056,3.2608,5.72157,37.9667,0.452424,0.473646,-0.0315949,6.56724,1.98619,2.7919,1.4419,1.38323,1.00778,1.27736,5.75724,2.18994,117.143,433.608
1055,50.227,2.21552,5.0976,35.7498,0.551169,0.663526,1.95844,4.16015,1.98619,1.16329,2.30414,1.38323,0.724935,1.11132,4.79872,2.02381,104.546,436.442
1080,46.2751,0.377471,3.25944,34.4763,0.771445,1.93192,1.76855,4.16015,0.188802,1.9776,2.30414,0.633323,0.866357,1.11132,5.75724,1.83692,109.458,439.655
1105,48.8662,0.95122,3.18241,33.7263,0.596743,0.253386,0.910253,4.16015,1.0875,2.7919,1.4419,0.633323,0.583513,0.779224,5.75724,1.50466,132.105,442.695
1130,46.9606,0.742759,2.89733,32.434,0.649913,2.1218,0.310205,4.16015,0.188802,1.16329,1.4419,1.00828,0.866357,0.945271,3.8402,1.33853,126.354,445.967
1155,45.2814,-0.221033,1.85756,30.6624,1.28036,0.40529,1.1685,4.16015,1.98619,2.7919,2.30414,1.38323,0.724935,1.11132,5.75724,1.15164,119.799,449.132
1180,38.5892,0.00349964,3.11508,31.3707,0.148595,1.32431,0.165889,4.96252,1.98619,3.60621,2.30414,0.633323,0.866357,1.27736,4.79872,1.00628,112.906,452.223
1205,45.8449,-1.97369,1.76346,30.3819,0.24734,0.663526,0.257036,3.35779,1.0875,1.9776,2.30414,0.633323,0.583513,1.27736,5.75724,0.840147,117.026,455.266
1230,40.2912,-0.98163,0.603394,29.0534,0.201765,0.359718,1.44194,4.16015,1.98619,2.7919,2.30414,0.633323,0.866357,1.11132,5.75724,0.674018,111.717,458.291
1255,37.4331,-2.5,0.400456,28.2132,0.0498509,0.595169,0.811511,4.16015,1.98619,2.7919,2.30414,1.00828,0.583513,1.11132,5.75724,0.507889,112.732,461.244
1280,38.8511,-0.114087,1.31323,27.9058,0.0574466,0.101482,0.0747427,4.16015,2.88489,1.9776,2.30414,1.00828,0.724935,1.27736,5.75724,0.507889,106.494,464.187
1305,31.347,-2.71142,-0.884754,26.9138,0.0802338,0.0862916,0.674791,4.16015,1.98619,0.348988,0.579659,0.633323,0.724935,1.11132,5.75724,0.175631,86.7675,466.573
1330,28.0125,-3.80386,-0.967882,26.9078,0.452424,0.526813,0.188676,4.16015,1.0875,1.9776,2.30414,0.633323,0.724935,0.779224,4.79872,0.154865,101.261,468.983
1355,30.3561,-3.10563,-0.621682,26.379,0.558764,0.443265,0.0519561,4.96252,1.0875,1.16329,1.4419,1.00828,0.442092,1.11132,5.75724,0.0302687,88.6753,471.409
1380,29.119,-1.06766,1.24534,28.5927,0.141,0.557193,0.560858,4.16015,0.188802,2.7919,2.30414,1.00828,0.866357,0.779224,5.75724,-0.13586,83.648,473.56
1405,25.4897,-3.2342,-0.941949,26.5181,0.239744,0.101482,0.553262,3.35779,1.0875,2.7919,2.30414,1.00828,0.583513,0.945271,5.75724,-0.301989,69.9975,475.389
1430,24.5862,-4.4059,-1.75841,25.4547,0.414446,0.81543,0.781128,3.35779,1.98619,2.7919,2.30414,1.00828,0.583513,0.945271,4.79872,-0.488884,68.2001,477.446
1455,23.7721,-4.64553,-1.45552,26.8459,0.148595,0.0938868,0.598835,1.75306,1.0875,1.9776,2.30414,0.633323,0.724935,1.11132,4.79872,-0.488884,70.8692,479.155
1480,19.28,-4.62964,-2.63853,24.33,0.330893,0.02553,0.363373,4.16015,2.88489,1.9776,0.579659,1.38323,0.583513,0.945271,5.75724,-0.655013,63.4768,480.953
1505,25.1408,-4.59123,-2.75527,24.859,0.163787,0.116672,0.241845,2.55543,1.98619,1.16329,3.16639,1.00828,0.583513,1.11132,3.8402,-0.800376,0.0,482.153
1511,25.2942,-4.99191,-2.65025,24.6968,0.133404,0.0103397,0.158294,2.55543,1.98619,1.16329,1.4419,1.00828,0.724935,1.11132,4.79872,-0.800376,0.0,482.153

File: Overstuffed_Chair_R2.csv
Time (s),Convective HRR,TCPlume1,TCPlume2,TCPlume3,DPPlume1,DPPlume2,DPPlume3,HF1,HF2,HF3,HF4,HF5,HF6,RAD2,RAD1,Load Cell,Heat Release Rate,Total Heat Released
-119,0.0,-14.4309,-13.9851,7.40361,-0.0119085,-0.0512997,0.0113289,0.0543975,-0.731142,-0.503765,-0.350743,-0.546541,0.154605,0.945271,3.8402,29.0821,0.0,0.0
-94,2.49984,-14.5731,-14.0085,7.15128,-0.0346957,-0.0285141,-0.0418399,0.856761,-0.731142,1.93915,0.5115,0.578316,0.0131834,0.945271,3.8402,29.0821,0.0,0.0
-69,0.0,-14.7154,-14.1111,7.31994,0.0488572,0.0474378,0.02652,1.65912,0.167553,0.31054,0.5115,-0.171588,0.0131834,0.779224,3.8402,29.0821,0.0,0.0
-44,3.59954,-14.9427,-14.0218,7.17675,0.0412615,0.12339,0.148049,-0.747966,0.167553,-0.503765,0.5115,-0.171588,0.0131834,0.613177,3.8402,29.1028,0.0,0.0
-19,1.62535,-14.5307,-13.9662,7.3454,-0.00431283,-0.00572858,-0.0114577,0.0543975,-0.731142,-0.503765,-1.21299,-0.171588,0.0131834,0.281084,3.8402,29.0405,0.0,0.0
6,1.44599,-14.5997,-13.3234,7.62316,0.056453,-0.0892757,-0.00386214,0.856761,1.06625,1.12484,-0.350743,0.203364,0.296027,0.779224,5.75724,29.1028,0.19626,0.00101883
31,0.0,-15.4491,-13.183,8.02703,0.117219,0.115794,0.186026,0.0543975,0.167553,0.31054,-1.21299,-0.921493,0.154605,0.945271,1.92317,29.0821,0.0,0.00108425
56,0.0,-13.1776,-13.325,7.5834,-0.0346957,0.0094618,0.0417111,0.0543975,0.167553,-1.31807,0.5115,-0.171588,-0.128238,0.447131,2.88169,29.0821,3.50417,0.05131589
81,4.53186,-9.9301,-9.01594,12.7211,0.0792401,0.290484,1.54563,0.856761,1.96494,1.12484,-1.21299,0.578316,0.57887,1.11132,4.79872,29.0613,50.4179,0.5888
106,47.3479,7.70486,14.5524,29.7627,2.43391,1.65762,3.14069,6.47331,1.96494,1.93915,1.37374,1.70317,1.00314,1.94155,8.63279,28.729,282.715,4.01912
131,167.236,30.5425,37.5984,50.2175,4.54553,1.5209,0.0493067,10.4851,4.66103,4.38206,2.23599,2.45308,1.4274,2.1076,11.5083,28.2722,583.017,13.022
156,328.338,65.03,67.9414,83.1563,2.24402,5.37926,2.40393,13.6946,5.55973,5.19637,2.23599,3.95289,2.55878,3.26993,16.3009,27.2546,744.148,29.1466
181,507.938,109.962,140.961,173.228,7.11288,2.91082,10.7742,33.7537,13.648,11.7108,7.40944,6.95251,4.11441,4.43225,29.7202,25.7595,1176.17,53.4548
206,714.662,195.002,264.749,354.696,4.51514,13.0504,5.89028,43.382,18.1415,15.7823,11.7207,9.20222,5.67005,5.92667,39.3053,24.1397,1681.45,87.7148
231,1126.19,280.693,383.33,560.091,9.51313,16.491,13.5694,62.6388,22.6349,23.9254,19.4808,12.5768,8.07422,8.58342,58.4757,21.8139,1750.4,131.78
256,914.081,229.348,333.928,556.96,11.921,6.87551,16.8203,61.8364,19.9389,21.4825,18.6186,11.4519,7.08427,7.42109,58.4757,19.5919,1135.53,167.723
281,716.969,162.533,238.803,430.038,5.60133,7.0502,10.6147,35.3584,9.15451,10.8965,10.8584,5.4527,3.83157,4.10016,33.5542,17.7853,847.743,191.475
306,634.14,128.92,192.498,357.714,4.63667,11.2427,12.4073,32.9513,9.15451,10.8965,9.13393,4.32784,3.26588,3.60202,26.8446,16.4355,769.942,212.309
331,570.776,117.51,175.841,311.764,6.53561,4.3767,5.10794,28.1371,8.25581,9.26789,9.13393,4.32784,3.12446,3.26993,24.9276,15.148,735.11,229.754
356,486.497,113.938,157.365,277.579,7.01414,4.98431,6.98404,24.9277,6.45842,7.63928,9.13393,2.82803,2.55878,2.77179,22.052,14.1305,537.944,245.644
381,451.119,97.8799,131.894,237.329,3.14791,4.74126,4.30281,19.3111,4.66103,6.82498,4.82271,2.45308,2.13451,2.27365,18.218,13.1337,521.888,258.831
406,383.52,85.7855,116.343,211.328,4.39361,8.82748,5.36619,16.1017,3.76233,5.19637,3.96047,2.45308,1.56882,1.94155,15.3424,12.303,448.326,269.979
431,402.242,72.1272,99.468,191.784,0.732472,3.32096,4.67499,11.2875,3.76233,4.38206,3.09823,1.70317,1.4274,1.94155,12.4669,11.6385,369.308,280.159
456,318.304,53.268,76.7169,162.546,5.79882,10.8858,8.10058,12.0899,3.76233,2.75345,3.09823,1.32822,1.14456,1.7755,11.5083,10.9948,427.287,290.355
481,341.072,64.0615,88.3947,164.69,5.35827,4.39189,3.96101,11.2875,3.76233,4.38206,3.96047,0.953269,1.28598,1.60946,12.4669,10.3303,339.573,299.627
506,293.299,58.8424,78.6342,152.863,0.504601,7.8477,6.75617,12.8922,3.76233,4.38206,2.23599,1.70317,1.28598,1.7755,11.5083,9.64498,387.576,308.525
531,302.746,58.6584,78.5242,146.345,7.17365,3.86022,5.67001,12.8922,2.86364,6.01067,2.23599,1.70317,1.4274,1.94155,12.4669,9.00123,381.532,317.683
556,311.383,48.8447,66.5333,131.449,2.71496,4.82481,5.61684,10.4851,2.86364,4.38206,2.23599,2.07813,1.14456,1.60946,9.5913,8.50284,372.069,326.482
581,286.787,53.1259,72.1763,131.706,4.84935,3.68553,2.58622,12.0899,3.76233,4.38206,3.09823,1.32822,1.28598,1.7755,11.5083,7.85909,341.975,335.19
606,284.037,46.2518,66.3865,124.102,1.00592,5.11343,1.49246,10.4851,2.86364,3.56776,3.09823,1.70317,1.4274,1.7755,10.5498,7.33994,319.877,343.881
631,300.608,49.8695,67.5131,120.541,4.21891,6.01726,4.6674,12.0899,2.86364,4.38206,3.96047,1.70317,1.14456,1.60946,11.5083,6.84155,299.485,352.267
656,240.134,37.3263,54.698,108.06,1.72751,3.19185,6.39159,8.07803,2.86364,4.38206,4.82271,1.32822,1.14456,1.27736,8.63279,5.67865,285.877,360.123
681,204.73,28.5868,43.5224,94.4309,1.50724,2.69056,2.63939,7.27567,2.86364,1.93915,3.09823,1.32822,0.861714,1.27736,8.63279,5.84478,252.222,366.978
706,194.821,23.0681,36.398,85.8956,2.64659,5.17419,5.02439,6.47331,2.86364,1.93915,3.09823,0.953269,1.00314,1.44341,6.71575,5.51252,236.241,373.704
731,190.666,19.6179,30.9628,77.5299,1.35532,3.77668,4.69778,6.47331,1.06625,1.93915,3.09823,0.578316,0.861714,1.44341,9.5913,5.20103,262.144,379.876
756,153.776,19.6995,29.9156,73.0615,1.3933,0.776576,1.68235,4.06622,1.96494,0.31054,3.09823,0.578316,0.720292,1.27736,4.79872,4.80647,210.15,385.1
781,151.284,15.1408,25.7752,68.0782,2.73774,2.06016,2.65458,5.67094,1.96494,1.12484,2.23599,0.578316,0.861714,1.27736,6.71575,4.55728,204.28,390.508
806,141.204,13.8716,22.2083,63.6982,2.14528,1.42217,2.9584,5.67094,1.06625,2.75345,3.96047,0.953269,0.720292,1.44341,7.67427,4.18349,205.907,395.353
831,140.444,12.6127,21.2608,60.3533,0.960344,1.55129,0.710119,7.27567,0.167553,1.93915,1.37374,0.953269,0.720292,1.11132,5.75724,4.01736,199.48,400.075
856,135.169,10.6539,17.5277,55.482,2.13009,1.35381,0.451871,4.86858,1.06625,1.93915,3.09823,1.32822,0.861714,1.27736,6.71575,4.84801,187.72,405.016
881,131.34,9.97174,16.6202,52.6096,2.82889,2.54626,1.52284,4.86858,0.167553,0.31054,2.23599,0.953269,0.861714,1.11132,6.71575,2.99982,181.782,409.572
906,114.627,9.01607,15.4397,50.7992,1.0439,4.08808,0.763288,4.06622,1.96494,2.75345,3.09823,0.953269,0.861714,1.44341,5.75724,3.37361,159.019,413.562
931,101.684,5.30491,11.9691,47.7646,0.29192,0.799361,1.02154,4.06622,1.06625,1.93915,3.09823,0.953269,0.861714,0.945271,4.79872,3.20748,167.846,417.402
956,105.656,5.72027,11.467,46.2022,1.23379,0.412007,2.76092,4.06622,1.06625,1.93915,2.23599,0.203364,0.720292,0.945271,6.71575,3.06212,138.627,421.089
981,90.678,4.41875,9.51836,44.2349,1.08947,0.867718,1.12028,4.06622,1.96494,1.12484,2.23599,0.578316,0.57887,0.945271,6.71575,2.89599,133.88,424.511
1006,85.0803,2.26331,7.70962,41.3229,2.13768,1.88547,1.78109,4.06622,1.06625,1.93915,3.09823,0.953269,0.57887,1.11132,6.71575,2.7091,123.944,427.761
1031,87.3467,1.11475,5.37525,39.1611,0.504601,1.88547,1.81147,4.06622,0.167553,1.93915,2.23599,0.953269,0.57887,1.11132,5.75724,2.5222,117.843,431.022
1056,67.8785,-0.0835899,4.40681,35.7125,0.200772,0.586696,0.155644,4.06622,0.167553,1.12484,2.23599,0.578316,0.720292,0.945271,5.75724,2.37684,138.052,433.874
1081,81.1489,-1.53014,3.84959,34.456,0.375473,0.829742,1.40131,3.26385,0.167553,1.12484,3.09823,0.578316,0.437449,1.11132,6.71575,2.35607,126.91,437.138
1106,77.9807,-1.22141,3.23698,32.8062,0.102027,0.662648,1.06711,4.06622,1.96494,1.93915,1.37374,0.578316,0.57887,0.945271,5.75724,2.21071,123.081,440.3
1131,66.708,-1.49727,1.54661,31.0354,0.299516,0.00186661,0.0948799,2.46149,1.96494,1.12484,2.23599,0.578316,0.437449,1.11132,5.75724,2.04458,130.479,443.264
1156,66.6669,-2.79098,0.4576,29.514,1.01351,2.35638,0.953177,3.26385,1.06625,1.12484,2.23599,0.578316,0.437449,0.779224,5.75724,2.04458,113.529,446.328
1181,64.3182,-1.74623,1.83582,30.4547,0.580558,0.419602,1.09749,3.26385,0.167553,1.93915,2.23599,0.203364,0.296027,0.945271,5.75724,1.83692,118.817,449.363
1206,63.6711,-3.44455,-0.303496,28.2013,0.162793,0.412007,1.56082,1.65912,1.06625,1.93915,1.37374,0.203364,0.57887,1.11132,4.79872,1.87845,102.232,452.172
1231,76.3684,-4.35567,-1.05227,26.94,0.299516,0.298079,0.467062,3.26385,0.167553,1.93915,1.37374,-0.171588,0.437449,1.11132,5.75724,1.67079,95.2876,454.679
1256,58.067,-4.01148,-0.980903,26.6325,0.0260701,0.776576,0.360724,3.26385,1.06625,1.12484,-0.350743,0.578316,0.296027,0.779224,5.75724,1.69156,107.334,457.185
1281,58.2184,-5.17337,-2.55933,24.1063,0.215963,0.617077,1.35574,3.26385,0.167553,1.12484,1.37374,0.578316,0.437449,0.945271,4.79872,1.54619,91.5292,459.682
1306,54.853,-4.60073,-1.68121,24.5867,0.276729,0.0930089,0.2316,0.856761,1.96494,1.12484,1.37374,0.203364,0.437449,1.11132,4.79872,1.40083,118.532,462.178
1331,58.7771,-5.50846,-3.04743,24.1594,0.0260701,0.571506,0.16324,3.26385,0.167553,0.31054,3.09823,0.578316,0.437449,1.11132,4.79872,1.19317,128.054,464.863
1356,57.7822,-5.78735,-3.01442,23.2833,0.18558,0.0474378,0.406297,2.46149,0.167553,1.12484,1.37374,0.953269,0.437449,0.945271,4.79872,1.21394,98.6507,467.391
1381,48.0643,-6.22841,-3.91884,22.9313,0.0792401,-0.00572858,1.31776,2.46149,1.96494,1.93915,0.5115,-0.546541,0.296027,0.945271,3.8402,1.1724,83.5048,469.844
1406,43.7772,-5.40308,-3.33053,22.4065,0.34509,0.12339,0.65695,3.26385,2.86364,1.12484,0.5115,0.203364,0.296027,1.27736,6.71575,1.02704,98.2248,472.178
1431,51.5164,-5.72673,-3.26446,22.0163,0.0108786,0.0550329,0.148049,2.46149,1.06625,0.31054,0.5115,0.578316,0.437449,1.11132,5.75724,1.02704,91.2569,474.692
1456,47.5844,-7.13332,-4.15787,21.2959,0.0260701,-0.142442,0.52023,1.65912,1.96494,0.31054,0.5115,0.203364,0.296027,0.779224,4.79872,0.840147,78.0533,476.777
1481,40.375,-6.51933,-5.06475,19.9943,0.367878,-0.0437045,0.550613,2.46149,1.06625,1.93915,1.37374,0.953269,0.437449,0.779224,3.8402,0.840147,0.0,478.58
1491,41.2761,-6.29072,-5.22643,19.9507,0.23875,0.206937,0.618973,3.26385,1.06625,0.31054,0.5115,0.203364,0.0131834,1.11132,4.79872,0.881679,0.0,478.58