Folder: fsri_materials_database/01_Data/Homasote/Cone (part 6)

File: Homasote_Cone_HF75Scan_230608_R3.csv
Names,Time,Stack TC,Smoke TC,Exh Press,Smoke Comp,Smoke Meas,CO Meter,CO2 Meter,O2 Meter,Sample Mass,Ext Coeff,Start Test,Flame Verif
Chan Gain,,500,500,1,1,1,1,1,1,1,1,1.0,1.0
Offset,,0,0,0.143883,0,0,0,0,0,0,0,0.0,0.0
Gain,,1,1,25.011,13.2788,13.9535,1,1,1,1.00094,1.03262,1.0,1.0
Units,sec,C,C,Pa,%,%,%,%,%,g,/m,,
Baseline,,50.5388,51.3162,148.977,100.231,100.264,0.000968865,0.0592143,20.9453,-446.987,-0.00301248,,
29,7,49.1664,47.6427,129.939,99.5603,97.7854,0.00107221,0.0677364,20.9336,106.07,0.162943,0.0,1.0
58,14.25,55.7308,53.0207,130.796,99.5316,93.9176,0.00134787,0.195144,20.9318,104.568,0.525884,0.0,0.0
87,21.5,61.3307,57.9701,133.301,99.5417,94.2557,0.00411798,0.568777,20.4599,103.347,0.494255,0.0,0.0
116,28.75,64.5472,61.3295,134.698,99.5502,94.4311,0.00604047,0.549687,20.3366,102.156,0.478186,0.0,0.0
145,36,66.3562,63.8495,133.626,99.6017,95.8555,0.00611014,0.484574,20.4074,101.085,0.347256,0.0,0.0
174,43.25,67.5111,65.5732,136.769,99.6499,96.6067,0.00523061,0.421451,20.4829,100.194,0.280935,0.0,0.0
203,50.5,67.9789,66.9603,136.252,99.6827,97.119,0.00446954,0.390784,20.5406,99.3133,0.236014,0.0,0.0
232,57.75,67.9173,68.3426,133.54,99.7253,97.429,0.00348062,0.364408,20.5759,98.4825,0.211012,0.0,0.0
261,65,68.225,68.4501,137.903,99.722,97.5742,0.00346411,0.352952,20.5922,97.6918,0.197228,0.0,0.0
290,72.25,68.3106,68.9653,137.173,99.7006,98.5838,0.00313297,0.332948,20.6182,96.831,0.10203,0.0,0.0
319,79.5,68.2066,69.0187,138.458,99.6337,98.6047,0.00293968,0.327722,20.629,96.1103,0.0940371,0.0,0.0
348,86.75,68.4161,70.184,136.931,99.6118,98.7797,0.00240848,0.319002,20.638,95.3696,0.0759846,0.0,0.0
377,94,68.0762,69.7709,138.961,99.5753,99.0233,0.00281418,0.313866,20.6435,94.6289,0.0503599,0.0,0.0
406,101.25,68.021,70.1816,138.467,99.5502,98.7567,0.00253268,0.303258,20.6532,93.9182,0.072491,0.0,0.0
435,108.5,68.1158,70.3867,133.418,99.5587,99.2553,0.00251589,0.30146,20.6582,93.2276,0.027645,0.0,0.0
464,115.75,69.0538,71.0505,137.598,99.6098,99.2013,0.00266037,0.287641,20.6665,92.4869,0.0372252,0.0,0.0
493,123,68.9139,71.2297,131.857,99.6767,99.4768,0.00242293,0.289324,20.6793,91.7462,0.0181818,0.0,0.0
522,130.25,69.0771,71.1752,139.148,99.7739,99.3933,0.00246739,0.293434,20.671,91.0355,0.0346181,0.0,0.0
551,137.5,68.9922,71.4696,138.289,99.8817,99.6752,0.00252877,0.293211,20.669,90.3949,0.0187454,0.0,0.0
580,144.75,69.521,71.8436,135.249,99.9944,100.061,0.00237828,0.290992,20.6719,89.7243,-0.00599758,0.0,0.0
609,152,69.3854,72.1694,137.711,100.152,99.9767,0.00228018,0.291158,20.6754,88.9936,0.0159045,0.0,0.0
638,159.25,70.2493,72.3068,136.184,100.294,100.239,0.00192816,0.290165,20.6742,88.343,0.00499055,0.0,0.0
667,166.5,70.0907,72.6331,130.98,100.439,100.378,0.00225814,0.290895,20.6728,87.6323,0.00550855,0.0,0.0
696,173.75,70.0052,72.8826,135.879,100.62,100.448,0.00196423,0.290541,20.6721,87.0218,0.0155671,0.0,0.0
725,181,70.569,73.0743,134.435,100.728,100.566,0.00192122,0.291662,20.6742,86.3111,0.0145979,0.0,0.0
754,188.25,70.2836,72.5614,139.19,100.758,100.555,0.00209379,0.293084,20.6741,85.6004,0.0182906,0.0,0.0
783,195.5,70.3215,73.1398,139.216,100.749,100.345,0.00205191,0.295713,20.6728,84.9798,0.0364197,0.0,0.0
812,202.75,70.2836,72.8596,140.369,100.62,100.19,0.00214377,0.293873,20.6717,84.2992,0.0387542,0.0,0.0
841,210,69.8303,72.6035,134.995,100.457,99.8566,0.00197568,0.297703,20.6691,83.6186,0.0543107,0.0,0.0
870,217.25,70.4501,73.1332,136.37,100.298,99.6373,0.00224385,0.299563,20.6671,82.9279,0.0598904,0.0,0.0
899,224.5,70.4697,73.4465,138.544,100.154,99.148,0.00235142,0.301787,20.6638,82.3273,0.0914421,0.0,0.0
928,231.75,70.5026,73.3104,140.096,100.031,98.8551,0.00200138,0.302596,20.6638,81.6567,0.107135,0.0,0.0
957,239,70.5179,73.5783,138.289,100.049,98.8938,0.00231807,0.304559,20.6627,81.0361,0.105237,0.0,0.0
986,246.25,70.8005,73.2879,137.701,100.26,99.0808,0.00226403,0.304785,20.6602,80.3155,0.107151,0.0,0.0
1015,253.5,70.4176,73.6367,139.696,100.291,98.864,0.00241721,0.303215,20.6583,79.6448,0.129807,0.0,0.0
1044,260.75,70.7345,73.5804,138.008,100.372,99.0573,0.00226106,0.306655,20.6569,79.0042,0.119428,0.0,0.0
1073,268,70.6551,73.4305,140.816,100.455,99.048,0.00246747,0.310963,20.6502,78.3336,0.127743,0.0,0.0
1102,275.25,70.971,73.9209,135.398,100.496,98.9449,0.00277374,0.311675,20.6499,77.693,0.140898,0.0,0.0
1131,282.5,71.1831,74.1725,137.198,100.449,98.9445,0.00245856,0.311808,20.6485,77.0224,0.136736,0.0,0.0
1160,289.75,71.6636,73.6613,136.336,100.319,98.9824,0.00212496,0.311141,20.6504,76.4518,0.121456,0.0,0.0
1189,297,71.5554,74.5518,135.525,100.206,98.7793,0.00262676,0.317353,20.6439,75.8112,0.129922,0.0,0.0
1218,304.25,71.8979,74.5416,137.785,100.128,98.5395,0.00229657,0.31491,20.6408,75.1506,0.144823,0.0,0.0
1247,311.5,71.6004,74.2824,140.147,100.166,98.7652,0.00207625,0.31286,20.6435,74.51,0.127547,0.0,0.0
1276,318.75,71.4754,73.852,136.693,100.22,98.9019,0.00244246,0.315242,20.6423,73.8594,0.119891,0.0,0.0
1305,326,71.5329,74.2855,139.646,100.233,99.1561,0.00254045,0.313366,20.642,73.2188,0.0978471,0.0,0.0
1334,333.25,71.7645,74.2761,137.79,100.231,99.2111,0.00239892,0.312406,20.6431,72.5982,0.092683,0.0,0.0
1363,340.5,71.7017,74.6406,135.148,100.215,98.8312,0.00251011,0.311812,20.6448,71.9676,0.125928,0.0,0.0
1392,347.75,71.7999,74.52,139.435,100.164,99.1608,0.0027216,0.306924,20.6511,71.3771,0.0911909,0.0,0.0
1421,355,72.1657,74.5802,136.453,100.133,98.8104,0.00259055,0.310763,20.6471,70.7965,0.120475,0.0,0.0
1450,362.25,71.6451,74.4124,140.273,100.299,98.8495,0.00189092,0.302195,20.6532,70.216,0.131829,0.0,0.0
1479,369.5,71.34,74.3822,139.62,100.443,99.3925,0.00199373,0.295611,20.6624,69.6855,0.0952328,0.0,0.0
1508,376.75,71.4705,74.2615,143.014,100.447,99.1365,0.00236718,0.290513,20.6664,69.1349,0.118989,0.0,0.0
1537,384,71.097,73.5123,136.002,100.391,99.1945,0.0024608,0.283364,20.6775,68.6745,0.108618,0.0,0.0
1566,391.25,70.3853,73.1082,138.49,100.275,99.125,0.00236018,0.273209,20.685,68.124,0.104495,0.0,0.0
1595,398.5,69.45,72.4147,146.884,100.115,99.2358,0.00190133,0.259821,20.705,67.6535,0.0798761,0.0,0.0
1624,405.75,69.0051,71.6618,140.924,99.9547,98.8521,0.00182255,0.24407,20.7209,67.3333,0.100471,0.0,0.0
1653,413,67.6668,71.2509,144.097,100.026,99.556,0.00202102,0.22997,20.7407,67.043,0.0426241,0.0,0.0
1682,420.25,66.233,70.0297,143.189,100.112,100.113,0.00223026,0.20839,20.7545,66.8228,-9.88024e-05,0.0,0.0
1711,427.5,65.3189,68.8011,143.143,100.218,100.343,0.00188689,0.183089,20.7825,66.6626,-0.0112418,0.0,0.0
1740,434.75,64.1334,67.5587,144.957,100.247,100.55,0.00219476,0.165196,20.8088,66.5325,-0.0273424,0.0,0.0
1769,442,62.9763,66.9355,144.346,100.32,100.562,0.00257027,0.154893,20.8208,66.3924,-0.0217896,0.0,0.0
1798,449.25,62.1485,65.4403,144.731,100.36,100.649,0.00297153,0.149513,20.8323,66.2622,-0.0260645,0.0,0.0
1827,456.5,61.2716,64.761,144.801,100.336,100.665,0.00281999,0.146971,20.8392,66.2022,-0.0296789,0.0,0.0
1856,463.75,60.2938,64.2531,143.757,100.297,100.567,0.00302936,0.144511,20.8412,66.0821,-0.0243747,0.0,0.0
1885,471,60.2107,63.4816,143.926,100.218,100.626,0.00324897,0.143304,20.8426,65.8719,-0.0368036,0.0,0.0
1914,478.25,59.9105,62.7373,148.432,100.096,100.342,0.00361839,0.143696,20.845,65.7618,-0.0222328,0.0,0.0
1943,485.5,59.0921,61.8791,148.565,100.028,100.317,0.00377604,0.143527,20.844,65.6517,-0.0261646,0.0,0.0
1972,492.75,59.1336,61.2545,143.524,100.041,100.334,0.00389586,0.144284,20.842,65.5416,-0.0264549,0.0,0.0
2001,500,59.1344,60.7974,149.641,100.274,100.477,0.00364747,0.142931,20.8423,65.4515,-0.0182887,0.0,0.0
2030,507.25,58.7014,60.4402,143.777,100.41,100.521,0.00335072,0.141891,20.8448,65.3114,-0.0100629,0.0,0.0
2059,514.5,58.529,60.3537,144.02,100.491,100.674,0.00368896,0.141335,20.8495,65.2213,-0.016483,0.0,0.0
2088,521.75,58.1343,60.2299,144.005,100.519,100.761,0.00360937,0.140874,20.8492,65.1612,-0.0218118,0.0,0.0
2117,529,58.0553,59.7726,145.728,100.359,100.649,0.0038507,0.139857,20.8503,65.0511,-0.0260991,0.0,0.0
2146,536.25,57.9499,59.5787,147.434,100.245,100.504,0.00378447,0.141783,20.8498,64.921,-0.0233819,0.0,0.0
2175,543.5,58.1919,59.3902,148.445,100.498,100.714,0.00393972,0.140929,20.8476,64.8009,-0.0194611,0.0,0.0
2204,550.75,57.6661,59.3498,144.202,100.779,100.893,0.00403644,0.140566,20.8487,64.6808,-0.0102191,0.0,0.0
2233,558,56.0444,57.1308,146.734,100.971,101.185,0.00399948,0.140319,20.8502,64.6107,-0.0191587,0.0,0.0
2262,565.25,55.2459,57.2191,143.248,101.081,101.243,0.00376046,0.13916,20.8522,64.5506,-0.0144593,0.0,0.0
2291,572.5,55.2377,56.9891,148.544,101.132,101.321,0.00388366,0.137265,20.8527,64.4706,-0.0168898,0.0,0.0
2320,579.75,55.6046,56.6408,143.907,101.108,101.33,0.00429469,0.13722,20.854,64.3805,-0.0199059,0.0,0.0
2349,587,54.923,56.3477,142.33,101.039,101.215,0.00427718,0.136273,20.855,64.2904,-0.0156853,0.0,0.0
2378,594.25,54.7508,56.322,146.673,100.945,101.167,0.00429866,0.136405,20.8551,64.1603,-0.0198853,0.0,0.0
2407,601.5,54.6351,56.2066,145.032,100.914,101.115,0.00435794,0.136556,20.8549,64.0001,-0.0179576,0.0,0.0
2436,608.75,54.8088,55.7641,145.137,100.75,101.01,0.00429567,0.135126,20.8545,63.9301,-0.0233868,0.0,0.0
2465,616,54.6754,55.81,143.666,100.508,100.671,0.00426676,0.134575,20.8567,63.86,-0.0147167,0.0,0.0
2494,623.25,55.1701,56.0453,144.067,100.233,100.475,0.00441499,0.134774,20.859,63.7499,-0.0217955,0.0,0.0
2523,630.5,54.9702,55.6974,147.27,100.027,100.255,0.00445467,0.134026,20.8604,63.6598,-0.0206607,0.0,0.0
2552,637.75,54.6956,55.4215,152.248,99.8614,99.9435,0.00409563,0.132724,20.8607,63.5697,-0.00743911,0.0,0.0
2581,645,54.4443,55.9168,143.467,99.7464,99.9882,0.0042748,0.131562,20.8621,63.4997,-0.0219363,0.0,0.0
2610,652.25,54.2529,55.4367,149.743,99.6977,99.7919,0.00473648,0.132335,20.8601,63.4496,-0.00855121,0.0,0.0
2639,659.5,53.9271,55.5571,148.263,99.6722,99.8298,0.00472467,0.130526,20.8598,63.3896,-0.0143111,0.0,0.0
2668,666.75,54.0416,55.4005,146.902,99.6791,99.7553,0.00447313,0.131823,20.8621,63.2394,-0.00692039,0.0,0.0
2697,674,54.0517,55.3439,144.988,99.7423,99.9759,0.00454868,0.129987,20.8626,63.1693,-0.0211851,0.0,0.0
2711,677.5,53.6263,54.9619,145.292,99.7727,99.9052,0.00484296,0.129729,20.8641,63.0692,-0.0120186,0.0,0.0

File: Homasote_HRRPUA_25.csv
Time after Ignition,Homasote_R1,Homasote_R2,Homasote_R3,Homasote_R4,Mean,Std. Dev.
0.0,4.6,0.0,12.7,-2.6,3.7,6.7
3.0,5.6,-0.4,9.5,-0.9,3.5,5.0
6.0,6.8,-0.0,9.3,0.7,4.2,4.6
9.0,7.0,0.9,11.1,4.0,5.7,4.4
12.0,31.0,17.6,32.8,18.0,24.9,8.2
15.0,101.8,87.7,114.9,93.5,99.5,11.8
18.0,148.7,134.4,164.3,150.5,149.5,12.3
21.0,170.9,158.5,178.4,172.0,170.0,8.3
24.0,174.9,166.1,182.7,174.1,174.5,6.8
27.0,171.8,168.8,168.6,170.2,169.9,1.5
30.0,165.6,170.9,156.4,160.6,163.4,6.3
33.0,163.2,164.9,150.4,152.7,157.8,7.3
36.0,156.0,161.4,139.7,147.8,151.2,9.5
39.0,147.1,154.8,135.3,142.3,144.9,8.2
42.0,145.9,148.2,130.3,135.7,140.0,8.5
45.0,142.6,142.0,125.4,131.3,135.3,8.4
48.0,132.0,141.5,122.7,128.5,131.2,7.9
51.0,128.7,132.3,117.9,123.0,125.5,6.4
54.0,122.9,127.7,113.3,121.7,121.4,6.0
57.0,122.6,123.9,111.9,116.2,118.6,5.6
60.0,116.9,123.2,110.0,114.8,116.2,5.5
63.0,112.0,119.0,105.7,115.5,113.0,5.7
66.0,110.0,117.5,104.4,117.6,112.4,6.4
69.0,109.4,112.5,101.0,119.1,110.5,7.5
72.0,106.6,110.2,99.2,114.0,107.5,6.3
75.0,105.0,110.2,95.1,109.7,105.0,7.0
78.0,104.3,107.9,92.8,105.6,102.7,6.7
81.0,101.8,106.6,89.6,102.7,100.2,7.4
84.0,99.5,105.0,90.0,98.2,98.2,6.2
87.0,98.7,101.9,87.1,95.2,95.7,6.4
90.0,97.2,100.4,86.5,91.3,93.9,6.2
93.0,96.9,98.2,85.5,88.8,92.3,6.2
96.0,96.1,97.8,83.9,85.7,90.9,7.1
99.0,96.2,95.1,83.2,84.9,89.9,6.7
102.0,94.5,94.7,80.8,81.9,88.0,7.7
105.0,92.1,91.9,79.9,83.6,86.9,6.1
108.0,89.1,88.9,79.3,81.2,84.6,5.1
111.0,84.9,87.8,77.9,80.8,82.8,4.4
114.0,82.2,84.1,77.9,79.9,81.0,2.7
117.0,80.0,83.0,75.8,81.2,80.0,3.1
120.0,78.3,81.3,74.8,80.3,78.6,2.9
123.0,78.3,80.6,73.8,77.4,77.5,2.8
126.0,76.1,78.6,73.4,75.1,75.8,2.2
129.0,75.8,76.1,72.6,74.3,74.7,1.6
132.0,74.3,75.4,71.4,71.4,73.1,2.0
135.0,73.0,75.3,69.4,68.9,71.7,3.1
138.0,73.8,72.6,69.3,67.2,70.7,3.0
141.0,73.9,72.2,67.0,65.2,69.6,4.1
144.0,72.3,70.8,64.5,66.9,68.6,3.5
147.0,71.9,70.6,61.9,65.9,67.6,4.6
150.0,70.1,68.4,59.3,62.8,65.1,5.0
153.0,66.7,68.3,56.9,56.9,62.2,6.1
156.0,67.5,67.2,55.5,48.2,59.6,9.4
159.0,67.5,67.0,53.8,43.9,58.1,11.4
162.0,67.0,66.9,52.1,39.8,56.5,13.1
165.0,67.2,65.9,48.5,35.5,54.3,15.1
168.0,68.0,66.0,46.9,34.8,53.9,15.9
171.0,67.4,65.6,,35.5,56.2,17.9
174.0,66.0,63.6,,36.8,55.5,16.2
177.0,64.4,62.9,,36.9,54.8,15.5
180.0,64.1,63.5,,36.3,54.7,15.9
183.0,63.0,63.5,,35.9,54.1,15.8
186.0,60.6,62.2,,37.0,53.3,14.1
189.0,59.1,61.8,,37.4,52.8,13.4
192.0,62.8,62.7,,36.8,54.1,15.0
195.0,62.7,62.5,,36.6,53.9,15.0
198.0,62.4,62.4,,34.1,53.0,16.3
201.0,60.9,63.1,,32.9,52.3,16.9
204.0,57.7,60.1,,32.6,50.1,15.2
207.0,56.4,59.0,,32.5,49.3,14.6
210.0,57.1,59.0,,31.6,49.3,15.3
213.0,58.4,59.6,,31.4,49.8,16.0
216.0,60.1,60.2,,32.3,50.9,16.1
219.0,59.7,61.2,,32.9,51.3,15.9
222.0,62.2,61.6,,32.4,52.1,17.0
225.0,61.7,61.8,,32.1,51.9,17.1
228.0,62.2,62.7,,31.6,52.1,17.8
231.0,61.4,61.0,,30.9,51.1,17.5
234.0,61.4,61.3,,31.0,51.2,17.5
237.0,62.9,60.5,,30.6,51.3,18.0
240.0,65.6,60.1,,31.5,52.4,18.3
243.0,66.9,60.7,,32.0,53.2,18.6
246.0,67.3,61.1,,31.8,53.4,19.0
249.0,69.8,61.7,,33.0,54.8,19.3
252.0,69.4,60.7,,32.9,54.3,19.1
255.0,69.0,62.5,,32.9,54.8,19.3
258.0,69.8,62.9,,33.5,55.4,19.3
261.0,68.4,63.3,,33.4,55.0,18.9
264.0,68.8,64.9,,32.6,55.4,19.9
267.0,68.3,65.7,,32.0,55.3,20.3
270.0,68.5,66.3,,31.9,55.6,20.5
273.0,69.0,64.5,,32.7,55.4,19.8
276.0,69.3,65.6,,32.5,55.8,20.3
279.0,70.1,66.5,,32.5,56.3,20.8
282.0,71.2,66.1,,33.2,56.9,20.6
285.0,71.3,66.1,,33.9,57.1,20.3
288.0,71.7,67.5,,33.2,57.5,21.1
291.0,70.4,68.8,,32.8,57.3,21.2
294.0,70.7,67.5,,33.2,57.1,20.8
297.0,70.4,67.6,,32.5,56.9,21.1
300.0,71.5,67.7,,32.8,57.3,21.3
303.0,72.6,67.7,,34.2,58.2,20.9
306.0,73.9,68.8,,34.1,58.9,21.6
309.0,74.0,68.1,,32.7,58.3,22.3
312.0,74.7,68.5,,32.3,58.5,22.9
315.0,75.3,68.3,,32.1,58.6,23.1
318.0,77.1,67.0,,31.6,58.6,23.9
321.0,77.5,69.2,,31.4,59.3,24.5
324.0,80.8,70.1,,30.6,60.5,26.4
327.0,80.0,72.0,,31.1,61.1,26.2
330.0,81.7,73.1,,31.2,62.0,27.0
333.0,80.8,74.2,,30.4,61.8,27.4
336.0,82.0,74.7,,30.3,62.3,28.0
339.0,82.4,79.0,,30.4,63.9,29.1
342.0,84.9,80.8,,30.1,65.2,30.5
345.0,84.6,79.6,,30.3,64.8,30.0
348.0,87.5,80.9,,29.7,66.0,31.7
351.0,88.4,83.0,,30.6,67.3,31.9
354.0,90.9,83.7,,32.2,68.9,32.0
357.0,95.8,85.7,,34.0,71.9,33.2
360.0,94.7,88.0,,36.2,73.0,32.0
363.0,96.1,89.2,,37.4,74.2,32.1
366.0,96.7,89.0,,38.9,74.9,31.4
369.0,100.2,89.4,,40.2,76.6,32.0
372.0,103.0,90.6,,41.6,78.4,32.4
375.0,104.1,92.3,,43.3,79.9,32.3
378.0,105.0,92.4,,42.5,80.0,33.0
381.0,104.7,94.6,,42.2,80.5,33.6
384.0,108.9,95.0,,41.6,81.8,35.5
387.0,111.5,95.2,,42.2,83.0,36.2
390.0,115.0,98.1,,55.9,89.7,30.5
393.0,116.3,98.6,,73.6,96.2,21.5
396.0,119.6,98.4,,85.5,101.2,17.2
399.0,120.7,99.6,,90.8,103.7,15.3
402.0,122.9,103.3,,92.2,106.1,15.5
405.0,126.6,105.3,,91.8,107.9,17.6
408.0,127.3,105.1,,92.9,108.4,17.4
411.0,129.5,106.4,,95.4,110.4,17.4
414.0,133.3,107.6,,95.9,112.3,19.1
417.0,132.4,111.6,,97.3,113.7,17.7
420.0,134.6,113.2,,101.6,116.4,16.7
423.0,139.8,115.3,,102.3,119.2,19.0
426.0,139.2,119.1,,104.5,120.9,17.4
429.0,137.0,119.8,,105.9,120.9,15.6
432.0,141.9,122.5,,107.3,123.9,17.3
435.0,144.0,123.4,,111.2,126.2,16.6
438.0,143.4,124.2,,112.7,126.8,15.5
441.0,147.5,127.1,,113.6,129.4,17.1
444.0,148.2,126.5,,115.9,130.2,16.5
447.0,147.6,128.3,,118.1,131.3,15.0
450.0,151.9,127.2,,118.6,132.6,17.3
453.0,148.6,133.2,,120.7,134.2,14.0
456.0,151.3,134.5,,124.0,136.6,13.8
459.0,151.3,137.6,,124.2,137.7,13.6
462.0,151.6,140.3,,124.5,138.8,13.6
465.0,148.0,139.6,,127.4,138.3,10.3
468.0,148.9,144.0,,126.9,139.9,11.6
471.0,146.5,140.4,,126.6,137.8,10.2
474.0,143.7,140.4,,132.1,138.7,5.9
477.0,143.5,138.8,,131.5,137.9,6.1
480.0,139.5,139.4,,131.1,136.7,4.8
483.0,140.0,138.9,,134.7,137.9,2.8
486.0,138.5,137.3,,137.0,137.6,0.8
489.0,139.7,137.9,,139.6,139.1,1.0
492.0,138.7,139.2,,139.8,139.2,0.5
495.0,139.2,133.8,,141.0,138.0,3.7
498.0,134.2,135.7,,141.5,137.1,3.9
501.0,138.8,132.0,,140.0,136.9,4.3
504.0,136.9,131.2,,141.2,136.4,5.0
507.0,136.1,129.1,,142.8,136.0,6.9
510.0,135.8,130.6,,140.7,135.7,5.1
513.0,135.9,129.4,,140.5,135.2,5.5
516.0,135.7,129.1,,140.8,135.2,5.9
519.0,134.1,128.2,,138.2,133.5,5.0
522.0,132.7,127.6,,136.9,132.4,4.7
525.0,130.9,127.9,,136.0,131.6,4.1
528.0,129.9,124.5,,135.1,129.8,5.3
531.0,127.8,124.4,,132.5,128.2,4.1
534.0,126.8,123.6,,129.7,126.7,3.0
537.0,123.2,125.6,,130.6,126.5,3.8
540.0,121.4,121.6,,128.9,124.0,4.3
543.0,118.0,120.2,,129.0,122.4,5.8
546.0,115.1,118.6,,128.6,120.8,7.0
549.0,112.0,118.2,,126.2,118.8,7.1
552.0,105.6,119.6,,126.1,117.1,10.5
555.0,101.7,117.6,,126.5,115.3,12.6
558.0,94.6,115.9,,122.1,110.9,14.4
561.0,90.8,116.5,,122.3,109.9,16.7
564.0,89.0,113.1,,122.9,108.3,17.5
567.0,86.1,114.2,,123.9,108.1,19.6
570.0,84.4,110.9,,122.5,105.9,19.5
573.0,82.9,107.9,,121.2,104.0,19.5
576.0,79.7,103.0,,121.1,101.2,20.8
579.0,75.3,98.3,,123.0,98.9,23.8
582.0,72.6,93.6,,119.3,95.2,23.4
585.0,70.6,88.9,,118.2,92.5,24.0
588.0,67.3,83.1,,120.1,90.2,27.1
591.0,63.3,76.7,,115.6,85.2,27.2
594.0,61.1,73.5,,112.8,82.5,27.0
597.0,57.1,70.2,,113.0,80.1,29.2
600.0,55.5,68.8,,108.0,77.4,27.3
603.0,52.7,67.3,,105.8,75.3,27.4
606.0,54.1,64.3,,98.5,72.3,23.2
609.0,56.4,60.1,,94.5,70.4,21.0
612.0,57.7,58.6,,88.5,68.3,17.5
615.0,54.1,55.8,,83.2,64.4,16.3
618.0,52.3,53.4,,78.7,61.5,14.9
621.0,49.8,50.7,,74.9,58.5,14.3
624.0,48.7,48.2,,72.9,56.6,14.1
627.0,49.2,46.4,,71.4,55.7,13.7
630.0,49.2,,,68.1,58.7,13.3
633.0,48.5,,,66.4,57.4,12.7
636.0,47.3,,,65.1,56.2,12.6
639.0,45.9,,,63.2,54.6,12.2
642.0,46.0,,,61.3,53.6,10.8
645.0,46.6,,,58.2,52.4,8.2
648.0,46.3,,,55.9,51.1,6.8
651.0,47.3,,,53.5,50.4,4.4
654.0,46.4,,,50.2,48.3,2.7
657.0,47.2,,,45.1,46.2,1.5
660.0,47.4,,,43.6,45.5,2.7
663.0,47.1,,,43.6,45.3,2.5
666.0,47.5,,,44.0,45.8,2.5
669.0,48.9,,,44.7,46.8,3.0
672.0,49.8,,,45.3,47.5,3.2
675.0,50.4,,,45.6,48.0,3.4
678.0,50.0,,,45.5,47.8,3.2
681.0,50.9,,,44.9,47.9,4.2
684.0,50.3,,,42.9,46.6,5.3
687.0,49.4,,,43.6,46.5,4.1
690.0,50.0,,,43.3,46.6,4.8
693.0,50.3,,,44.5,47.4,4.1
696.0,49.9,,,44.9,47.4,3.6
699.0,48.0,,,45.8,46.9,1.6
702.0,46.6,,,46.0,46.3,0.5
705.0,46.4,,,44.3,45.3,1.4
708.0,45.7,,,42.8,44.3,2.1
711.0,45.1,,,42.9,44.0,1.5
714.0,46.4,,,42.2,44.3,3.0
717.0,46.4,,,42.1,44.3,3.0
720.0,45.7,,,42.5,44.1,2.3
723.0,44.8,,,42.3,43.6,1.8
726.0,42.9,,,41.7,42.3,0.9
729.0,43.3,,,42.4,42.9,0.6
732.0,42.7,,,43.6,43.2,0.6
735.0,41.6,,,41.8,41.7,0.2
738.0,41.6,,,42.3,42.0,0.4
741.0,41.0,,,42.7,41.8,1.2
744.0,40.1,,,40.9,40.5,0.6
747.0,39.5,,,39.9,39.7,0.3
750.0,38.5,,,39.2,38.9,0.5
753.0,37.8,,,39.1,38.4,0.9
756.0,36.8,,,38.5,37.6,1.2
759.0,36.9,,,37.5,37.2,0.4
762.0,36.6,,,38.3,37.4,1.2
765.0,36.1,,,38.7,37.4,1.8
768.0,36.5,,,38.4,37.5,1.4
771.0,36.8,,,40.0,38.4,2.2
774.0,37.0,,,38.8,37.9,1.3
777.0,37.8,,,38.7,38.3,0.6
780.0,37.1,,,38.2,37.6,0.8
783.0,36.9,,,36.9,36.9,0.0
786.0,37.0,,,37.1,37.0,0.1
789.0,37.9,,,35.8,36.9,1.5
792.0,38.3,,,34.2,36.3,2.9
795.0,38.8,,,34.1,36.4,3.3
798.0,38.6,,,34.0,36.3,3.2
801.0,37.3,,,34.0,35.6,2.3
804.0,37.5,,,34.0,35.7,2.5
807.0,37.8,,,33.9,35.8,2.7
810.0,37.2,,,33.9,35.5,2.3
813.0,36.5,,,35.0,35.7,1.1
816.0,37.5,,,35.8,36.7,1.2
819.0,38.6,,,36.9,37.8,1.2
822.0,39.4,,,36.8,38.1,1.8
825.0,39.4,,,36.6,38.0,2.0
828.0,39.0,,,36.6,37.8,1.7
831.0,38.7,,,36.7,37.7,1.4
834.0,38.5,,,36.8,37.6,1.2
837.0,37.3,,,38.6,37.9,0.9
840.0,36.9,,,38.3,37.6,1.0
843.0,36.6,,,37.3,36.9,0.5
846.0,36.6,,,36.1,36.3,0.4
849.0,36.6,,,34.8,35.7,1.2
852.0,35.7,,,34.5,35.1,0.8
855.0,36.5,,,34.7,35.6,1.3
858.0,35.9,,,34.0,34.9,1.3
861.0,34.4,,,35.2,34.8,0.6
864.0,34.6,,,34.6,34.6,0.0
867.0,33.7,,,34.0,33.9,0.2
870.0,33.9,,,34.1,34.0,0.1
873.0,33.3,,,34.8,34.0,1.1
876.0,33.3,,,33.4,33.3,0.1
879.0,33.2,,,32.8,33.0,0.3
882.0,33.3,,,31.8,32.5,1.1
885.0,32.9,,,,32.9,
888.0,32.9,,,,32.9,
891.0,31.7,,,,31.7,
893.25,31.2,,,,31.2,