Folder: fsri_materials_database/01_Data/Homasote/Cone (part 5)

File: Homasote_Cone_HF75Scan_230608_R1.csv
Names,Time,Stack TC,Smoke TC,Exh Press,Smoke Comp,Smoke Meas,CO Meter,CO2 Meter,O2 Meter,Sample Mass,Ext Coeff,Start Test,Flame Verif
Chan Gain,,500,500,1,1,1,1,1,1,1,1,1.0,1.0
Offset,,0,0,0.143883,0,0,0,0,0,0,0,0.0,0.0
Gain,,1,1,25.011,13.2166,13.8964,1,1,1,1.00094,1.03262,1.0,1.0
Units,sec,C,C,Pa,%,%,%,%,%,g,/m,,
Baseline,,45.5031,46.1105,149.841,99.6778,99.6471,0.00104762,0.0643963,20.9418,-446.686,0.00279755,,
28,6.75,43.9435,43.909,128.513,99.6962,98.6892,0.0011984,0.0811745,20.9191,101.676,0.0919551,0.0,1.0
56,13.75,52.2742,49.1019,130.935,99.6805,93.2932,0.00141117,0.116652,20.9269,100.194,0.599846,0.0,0.0
84,20.75,59.0908,54.8312,126.72,99.6768,91.702,0.00353345,0.559796,20.5547,98.8228,0.75534,0.0,0.0
112,27.75,62.573,59.4508,130.704,99.6514,93.1274,0.0061961,0.645673,20.2581,97.5516,0.613321,0.0,0.0
140,34.75,64.4118,61.9156,132.764,99.647,95.3483,0.00684102,0.561351,20.2854,96.5107,0.399436,0.0,0.0
168,41.75,65.1653,63.3647,132.312,99.668,97.1914,0.00611187,0.478268,20.403,95.5097,0.227923,0.0,0.0
196,48.75,66.0495,65.1233,139.163,99.674,97.8296,0.00472521,0.430593,20.4857,94.5889,0.169184,0.0,0.0
224,55.75,66.2231,66.0847,141.948,99.7063,98.0289,0.00368113,0.406483,20.5216,93.718,0.153679,0.0,0.0
252,62.75,66.5914,66.5619,134.205,99.7757,98.8292,0.0033184,0.382078,20.5506,92.9073,0.0863364,0.0,0.0
280,69.75,66.6639,67.3231,137.493,99.8575,99.0281,0.00273719,0.367874,20.5787,92.1265,0.0755552,0.0,0.0
308,76.75,67.3062,68.2196,137.459,99.912,99.0268,0.00257278,0.358435,20.5893,91.3158,0.0806092,0.0,0.0
336,83.75,67.4909,68.2014,141.06,99.9378,99.2919,0.00251492,0.346414,20.5996,90.5651,0.0587372,0.0,0.0
364,90.75,67.0964,68.7306,135.482,99.9245,99.3338,0.00254158,0.338151,20.6138,89.8244,0.053701,0.0,0.0
392,97.75,67.3076,68.8329,139.539,99.8454,99.4628,0.00265328,0.332837,20.6212,89.0436,0.0347837,0.0,0.0
420,104.75,67.4547,69.987,137.009,99.674,99.344,0.00235217,0.325151,20.6283,88.2729,0.0300399,0.0,0.0
448,111.75,66.8332,69.1763,136.7,99.6413,99.4789,0.00248285,0.317766,20.6395,87.5723,0.0147823,0.0,0.0
476,118.75,67.1103,69.753,134.372,99.7906,99.4963,0.00252192,0.312879,20.6452,86.8216,0.0267557,0.0,0.0
504,125.75,66.8051,70.0626,136.763,100.013,99.9038,0.00234395,0.310727,20.6491,86.1309,0.00991579,0.0,0.0
532,132.75,67.1489,70.0208,138.758,100.228,99.9869,0.00244408,0.309231,20.6545,85.4503,0.0218321,0.0,0.0
560,139.75,67.4007,70.2737,136.45,100.375,100.189,0.00234592,0.30402,20.6572,84.7396,0.0168228,0.0,0.0
588,146.75,67.5054,70.3681,137.279,100.469,100.435,0.00219833,0.302561,20.6625,84.0389,0.00305209,0.0,0.0
616,153.75,67.7646,70.652,137.882,100.512,100.239,0.00206321,0.298889,20.6678,83.3683,0.0245904,0.0,0.0
644,160.75,67.2593,70.5691,137.519,100.495,100.394,0.00194469,0.29982,20.6699,82.6877,0.0091618,0.0,0.0
672,167.75,67.6188,70.2522,135.634,100.381,100.264,0.00219898,0.297664,20.6698,82.0271,0.0106201,0.0,0.0
700,174.75,68.0028,70.9518,134.852,100.168,99.8911,0.00224864,0.296989,20.6714,81.3865,0.0250491,0.0,0.0
728,181.75,67.7191,70.7991,140.215,99.9205,99.6943,0.00201751,0.297169,20.6731,80.7258,0.0205254,0.0,0.0
756,188.75,67.85,70.7667,141.727,99.6728,99.4674,0.00214069,0.298033,20.6716,80.0752,0.018685,0.0,0.0
784,195.75,67.9929,71.2533,141.035,99.4482,98.9997,0.00205219,0.308123,20.6695,79.3846,0.040943,0.0,0.0
812,202.75,68.3162,71.1047,135.474,99.2533,98.7711,0.00220185,0.308437,20.6596,78.804,0.0441189,0.0,0.0
840,209.75,67.7643,70.8118,139.091,99.1021,98.4216,0.00204393,0.306868,20.6617,78.1234,0.0624087,0.0,0.0
868,216.75,68.1925,70.9854,137.81,98.9976,98.2393,0.00232687,0.307344,20.6629,77.4928,0.069653,0.0,0.0
896,223.75,68.1163,70.6331,140.301,98.9706,98.2528,0.00219879,0.308809,20.6604,76.8422,0.0659297,0.0,0.0
924,230.75,68.4198,70.6998,139.89,98.9565,97.6922,0.00217016,0.311517,20.6578,76.2917,0.116471,0.0,0.0
952,237.75,68.6028,70.8474,140.508,98.9351,98.0001,0.00213185,0.313158,20.6516,75.601,0.0860123,0.0,0.0
980,244.75,68.6139,71.1702,138.748,98.9403,97.6676,0.00223433,0.315714,20.6493,74.8803,0.117275,0.0,0.0
1008,251.75,68.3136,70.9448,141.627,98.9545,97.7087,0.00236524,0.320189,20.6466,74.2397,0.114754,0.0,0.0
1036,258.75,68.5187,71.0673,143.315,98.9875,97.2334,0.00257447,0.320397,20.6452,73.5091,0.16196,0.0,0.0
1064,265.75,68.4232,70.9588,136.697,98.9968,97.1825,0.00225208,0.321733,20.6433,72.9485,0.167551,0.0,0.0
1092,272.75,69.1482,71.5774,144.687,99.0069,97.3856,0.00236322,0.324022,20.6369,72.2879,0.149559,0.0,0.0
1120,279.75,68.801,71.5039,137.564,99.0101,96.886,0.00254753,0.323243,20.6374,71.6073,0.19644,0.0,0.0
1148,286.75,69.3453,71.4865,136.517,98.9916,97.1159,0.00272136,0.326095,20.6331,70.9266,0.173278,0.0,0.0
1176,293.75,69.1651,71.6736,137.47,98.9529,97.1299,0.00270037,0.327174,20.6341,70.266,0.168429,0.0,0.0
1204,300.75,69.2493,71.9355,137.397,98.9323,97.2312,0.00247126,0.326018,20.6348,69.6254,0.157099,0.0,0.0
1232,307.75,69.6598,71.93,136.073,98.9359,97.0408,0.00286071,0.326935,20.6321,68.9348,0.175188,0.0,0.0
1260,314.75,69.7565,71.9914,140.66,98.952,97.4106,0.00229631,0.326663,20.6298,68.2942,0.142212,0.0,0.0
1288,321.75,69.8257,72.3675,134.591,98.9726,97.487,0.00240088,0.325512,20.6293,67.5835,0.137,0.0,0.0
1316,328.75,69.8628,71.961,139.538,98.9779,96.8627,0.00208294,0.327646,20.63,67.033,0.195668,0.0,0.0
1344,335.75,69.9753,72.4421,137.519,98.9645,97.1854,0.00243841,0.326067,20.6295,66.4024,0.16432,0.0,0.0
1372,342.75,69.8145,73.1184,137.354,98.9625,97.0968,0.00239257,0.329792,20.6255,65.7718,0.1724,0.0,0.0
1400,349.75,69.9915,72.7403,134.272,98.9524,96.7834,0.00248115,0.326761,20.6245,65.1812,0.200761,0.0,0.0
1428,356.75,70.1562,72.736,135.68,98.9593,96.984,0.00250833,0.325305,20.6228,64.5807,0.182635,0.0,0.0
1456,363.75,69.6468,72.368,140.795,98.9581,97.0493,0.00257247,0.321548,20.6291,63.9901,0.176427,0.0,0.0
1484,370.75,69.5526,72.2915,140.17,98.9702,96.825,0.00238798,0.316071,20.6353,63.4396,0.198498,0.0,0.0
1512,377.75,69.0195,72.4596,137.681,98.9827,97.1782,0.00225281,0.311347,20.6436,62.9191,0.166654,0.0,0.0
1540,384.75,68.8463,71.3787,136.771,98.9815,97.0616,0.00253313,0.300235,20.654,62.4587,0.17742,0.0,0.0
1568,391.75,68.4231,71.5466,138.87,98.9996,97.4997,0.00242742,0.284954,20.6707,61.9782,0.138291,0.0,0.0
1596,398.75,67.6883,70.9375,142.881,99.0065,97.6629,0.00215994,0.273281,20.691,61.5578,0.123762,0.0,0.0
1624,405.75,66.8679,70.3533,143.13,99.0113,98.0196,0.00231427,0.256706,20.7053,61.1775,0.0911866,0.0,0.0
1652,412.75,66.2433,69.3679,140.747,99.0319,98.2741,0.00205164,0.238631,20.7266,60.9473,0.0695844,0.0,0.0
1680,419.75,65.1147,68.3836,140.051,99.0831,99.0853,0.00196662,0.21719,20.7472,60.7371,-0.000200845,0.0,0.0
1708,426.75,64.1877,67.5948,139.676,99.1662,99.3338,0.00201394,0.200135,20.7677,60.5669,-0.0152975,0.0,0.0
1736,433.75,62.8493,66.391,140.976,99.2812,99.5243,0.00206305,0.181884,20.7837,60.4168,-0.0221506,0.0,0.0
1764,440.75,61.7841,65.3647,147.357,99.4522,99.6519,0.00244394,0.170969,20.8043,60.2966,-0.0181718,0.0,0.0
1792,447.75,61.3051,64.119,146.845,99.6103,99.8957,0.0031081,0.162653,20.816,60.1966,-0.0259199,0.0,0.0
1820,454.75,60.5357,63.5484,146.003,99.7858,100.043,0.00281414,0.155865,20.8261,60.0364,-0.0233132,0.0,0.0
1848,461.75,59.7367,62.966,146.48,99.9402,100.108,0.00333415,0.153137,20.8319,59.8963,-0.0152131,0.0,0.0
1876,468.75,59.1437,62.178,143.195,100.072,100.319,0.00298264,0.151153,20.8373,59.8162,-0.0223173,0.0,0.0
1904,475.75,58.572,61.8465,148.376,100.161,100.356,0.00339691,0.1503,20.8359,59.7461,-0.0176206,0.0,0.0
1932,482.75,58.4822,61.1192,145.08,100.169,100.504,0.00307906,0.150123,20.8382,59.636,-0.030239,0.0,0.0
1960,489.75,58.2341,60.3622,148.565,100.158,100.412,0.00372678,0.150885,20.8374,59.4959,-0.0229278,0.0,0.0
1988,496.75,58.1848,60.0367,142.933,100.056,100.283,0.00348726,0.148354,20.8407,59.3958,-0.0205969,0.0,0.0
2016,503.75,57.3742,59.6837,146.142,99.8503,100.05,0.00356074,0.146257,20.8404,59.2957,-0.0180718,0.0,0.0
2044,510.75,57.6581,59.4161,141.868,99.5696,99.7783,0.00339958,0.14512,20.8419,59.1856,-0.0189677,0.0,0.0
2072,517.75,57.1825,59.2187,148.548,99.4054,99.6765,0.00376685,0.143658,20.8442,59.0555,-0.0246698,0.0,0.0
2100,524.75,56.8488,58.9907,148.591,99.7059,100.013,0.0033977,0.14353,20.8475,58.9554,-0.027839,0.0,0.0
2128,531.75,56.1655,58.0967,142.449,99.8112,99.9717,0.0033453,0.142233,20.8492,58.8653,-0.0145539,0.0,0.0
2156,538.75,56.6317,57.9176,142.72,99.9511,100.194,0.00329251,0.142113,20.8493,58.7452,-0.022012,0.0,0.0
2184,545.75,56.6262,57.9137,147.544,99.9705,100.246,0.0036884,0.141212,20.8512,58.6851,-0.0249724,0.0,0.0
2212,552.75,54.2451,56.2745,148.759,99.8951,100.205,0.00408172,0.13983,20.8555,58.575,-0.0280914,0.0,0.0
2240,559.75,54.5301,55.9897,143.072,99.7232,99.8656,0.00404247,0.138706,20.8556,58.535,-0.0129263,0.0,0.0
2268,566.75,54.4287,55.9209,144.469,99.6841,99.8788,0.00395535,0.138743,20.8554,58.3949,-0.0176725,0.0,0.0
2296,573.75,54.5242,55.4982,142.173,99.8846,100.055,0.00409307,0.139404,20.8548,58.2747,-0.0154224,0.0,0.0
2324,580.75,53.7873,55.4726,147.689,100.124,100.31,0.00398094,0.137692,20.8567,58.1747,-0.0167665,0.0,0.0
2352,587.75,54.1741,55.0996,145.87,100.336,100.534,0.00425787,0.138625,20.8556,58.1346,-0.0179014,0.0,0.0
2380,594.75,53.5757,55.1309,144.033,100.482,100.653,0.00435897,0.13733,20.8588,58.0645,-0.0154241,0.0,0.0
2408,601.75,53.7244,54.9094,144.156,100.544,100.712,0.00448097,0.136455,20.8585,57.9444,-0.0151655,0.0,0.0
2436,608.75,53.7572,54.7393,147.334,100.554,100.696,0.00455332,0.137735,20.8591,57.8544,-0.0128106,0.0,0.0
2464,615.75,53.6181,54.9942,142.208,100.507,100.629,0.00433439,0.136296,20.8597,57.8043,-0.0109196,0.0,0.0
2492,622.75,53.247,54.7464,144.914,100.398,100.53,0.00444109,0.136,20.8601,57.6942,-0.0119143,0.0,0.0
2520,629.75,53.1897,54.581,147.648,100.254,100.445,0.00459098,0.135924,20.8601,57.504,-0.0172706,0.0,0.0
2548,636.75,53.0447,54.7844,144.61,100.192,100.235,0.00458693,0.134282,20.8607,57.5741,-0.00385787,0.0,0.0
2576,643.75,53.1367,53.9993,146.009,100.118,100.206,0.00446137,0.133601,20.8612,57.4239,-0.00796272,0.0,0.0
2604,650.75,52.5179,54.1043,147.591,100.083,100.195,0.00493214,0.133438,20.8614,57.3339,-0.0101418,0.0,0.0
2632,657.75,52.4171,53.6937,144.331,100.081,100.153,0.00462906,0.132294,20.8634,57.2438,-0.00649139,0.0,0.0
2660,664.75,52.4567,53.5998,147.057,100.087,100.255,0.0042218,0.132661,20.8627,57.1937,-0.0151082,0.0,0.0
2676,668.75,52.6182,53.7818,147.908,100.094,100.232,0.00430583,0.131962,20.8638,57.1537,-0.0124927,0.0,0.0

File: Homasote_Cone_HF75Scan_230608_R2.csv
Names,Time,Stack TC,Smoke TC,Exh Press,Smoke Comp,Smoke Meas,CO Meter,CO2 Meter,O2 Meter,Sample Mass,Ext Coeff,Start Test,Flame Verif
Chan Gain,,500,500,1,1,1,1,1,1,1,1,1.0,1.0
Offset,,0,0,0.143883,0,0,0,0,0,0,0,0.0,0.0
Gain,,1,1,25.011,13.1415,13.798,1,1,1,1.00094,1.03262,1.0,1.0
Units,sec,C,C,Pa,%,%,%,%,%,g,/m,,
Baseline,,48.6505,49.5936,149.389,99.9255,99.8791,0.000774044,0.0587415,20.9461,-446.898,0.00420466,,
26,6.25,47.7514,47.1386,128.802,98.6917,97.4739,0.000411589,0.0698762,20.9267,108.082,0.112463,0.0,1.0
52,12.75,54.7091,52.057,126.221,98.6973,91.6457,0.00106713,0.123195,20.9303,106.68,0.671448,0.0,0.0
78,19.25,60.2877,57.1297,132.775,98.6985,91.5156,0.00299785,0.545187,20.5844,105.539,0.684427,0.0,0.0
104,25.75,63.6916,60.5154,134.326,98.743,92.6395,0.00547697,0.596697,20.3147,104.368,0.577951,0.0,0.0
130,32.25,65.8067,62.7847,136.123,98.8449,93.5941,0.00621186,0.521344,20.358,103.397,0.494431,0.0,0.0
156,38.75,66.3734,64.8663,137.21,98.9933,94.4257,0.00549702,0.46178,20.4328,102.516,0.427888,0.0,0.0
182,45.25,67.4491,66.3022,138.89,99.1962,95.8945,0.00492418,0.416063,20.4969,101.726,0.30663,0.0,0.0
208,51.75,67.2897,66.5669,137.294,99.4593,96.3715,0.00421019,0.385598,20.5447,100.895,0.285668,0.0,0.0
234,58.25,67.6961,67.858,141.318,99.6494,97.0061,0.00407891,0.36997,20.575,100.104,0.243516,0.0,0.0
260,64.75,68.0822,68.8531,139.433,99.7661,97.4929,0.00362442,0.353148,20.5876,99.4034,0.208779,0.0,0.0
286,71.25,67.8212,69.1659,139.078,99.8547,98.2037,0.00338746,0.34004,20.6089,98.6227,0.151024,0.0,0.0
312,77.75,68.4815,70.1876,136.859,99.8904,98.5292,0.00298834,0.330161,20.6213,97.962,0.124287,0.0,0.0
338,84.25,68.2558,69.9899,141.666,99.9365,98.797,0.00314335,0.321293,20.6353,97.2814,0.103881,0.0,0.0
364,90.75,68.1696,69.8244,142.14,99.9341,99.1044,0.00260607,0.320548,20.639,96.5407,0.0755241,0.0,0.0
390,97.25,68.0779,70.681,136.403,99.9566,98.8863,0.00237602,0.315969,20.6424,95.9001,0.097517,0.0,0.0
416,103.75,68.3267,70.79,135.927,99.9522,99.2134,0.00238932,0.309225,20.6499,95.2195,0.0671978,0.0,0.0
442,110.25,68.3291,70.6366,137.876,99.9514,99.2315,0.00247878,0.304729,20.6551,94.5688,0.065472,0.0,0.0
468,116.75,68.1724,70.7327,135.007,99.959,99.5726,0.00188824,0.301114,20.6609,93.9583,0.0350817,0.0,0.0
494,123.25,68.4204,70.9202,137.677,99.965,99.4261,0.00205921,0.297389,20.6629,93.2776,0.0489671,0.0,0.0
520,129.75,68.1332,70.767,134.457,99.9919,99.6223,0.00202768,0.293096,20.6705,92.647,0.0335413,0.0,0.0
546,136.25,67.8473,71.0193,139.262,99.9883,99.752,0.00222973,0.29514,20.6716,91.9964,0.0214303,0.0,0.0
572,142.75,68.5495,70.9082,133.412,99.9919,99.6122,0.00193445,0.291172,20.6712,91.3658,0.034461,0.0,0.0
598,149.25,68.2272,71.1239,136.726,99.9979,99.6678,0.00212498,0.292173,20.6757,90.7453,0.0299538,0.0,0.0
624,155.75,68.2903,71.7087,138.213,99.9959,99.8918,0.00225489,0.293324,20.674,90.1447,0.00943471,0.0,0.0
650,162.25,68.5838,71.5404,140.84,100.013,99.7192,0.00212545,0.291336,20.6754,89.5041,0.0266653,0.0,0.0
676,168.75,68.7868,71.9327,140.118,100.01,99.7608,0.00191483,0.294786,20.6731,88.8735,0.0225527,0.0,0.0
702,175.25,69.1458,71.9271,136.553,100.01,99.6897,0.00188764,0.296099,20.6705,88.2329,0.0290174,0.0,0.0
728,181.75,69.0494,72.0599,136.236,100.02,99.7406,0.00226036,0.299747,20.6682,87.6624,0.0253323,0.0,0.0
754,188.25,69.0915,71.9873,138.163,100.017,99.4716,0.00188774,0.301143,20.6644,86.9917,0.049547,0.0,0.0
780,194.75,69.2253,72.2458,135.759,100.043,99.5482,0.00181961,0.302,20.6641,86.4412,0.0449323,0.0,0.0
806,201.25,69.7564,72.8528,141.703,100.011,99.4088,0.00209849,0.301936,20.6657,85.7906,0.0547175,0.0,0.0
832,207.75,69.8013,72.1867,134.505,100.023,99.3465,0.0020282,0.302767,20.6653,85.2,0.0614875,0.0,0.0
858,214.25,69.635,72.2908,137.11,100.014,99.1945,0.00218525,0.301745,20.6673,84.5895,0.0745229,0.0,0.0
884,220.75,69.2936,72.9369,139.203,100.026,99.1393,0.00202761,0.302413,20.6684,84.0189,0.0806873,0.0,0.0
910,227.25,70.071,73.1655,137.039,100.027,99.0635,0.00170492,0.302959,20.6667,83.3583,0.0876507,0.0,0.0
936,233.75,69.8968,73.0194,138.985,100.019,98.9705,0.00203997,0.306382,20.6657,82.7678,0.0954743,0.0,0.0
962,240.25,70.3974,73.1069,134.294,100.017,98.9376,0.00227191,0.303563,20.665,82.1572,0.098299,0.0,0.0
988,246.75,70.1838,73.5956,132.694,100.008,98.8054,0.00223677,0.30562,20.6661,81.5666,0.109613,0.0,0.0
1014,253.25,70.8178,73.6929,136.434,100.01,98.6513,0.00192866,0.306876,20.6609,80.9961,0.123862,0.0,0.0
1040,259.75,70.776,73.2003,141.144,100.002,98.8227,0.00213706,0.308079,20.6614,80.3655,0.107413,0.0,0.0
1066,266.25,71.152,73.6891,138.9,99.9626,98.5751,0.00212304,0.309042,20.6589,79.805,0.126612,0.0,0.0
1092,272.75,71.245,73.9142,140.141,99.9285,98.4618,0.00231688,0.310441,20.6578,79.2044,0.133937,0.0,0.0
1118,279.25,71.4018,74.1296,140.77,99.8499,98.3814,0.00208131,0.311717,20.6538,78.6038,0.134211,0.0,0.0
1144,285.75,71.8799,74.2711,138.681,99.7529,98.0041,0.00153536,0.311255,20.653,77.9833,0.160207,0.0,0.0
1170,292.25,71.6795,74.2308,137.999,99.6229,98.1936,0.00216397,0.314291,20.6517,77.4327,0.130903,0.0,0.0
1196,298.75,72.0363,74.7577,137.71,99.4649,98.175,0.00228219,0.313433,20.6511,76.8022,0.118234,0.0,0.0
1222,305.25,71.7839,74.5993,135.889,99.331,97.7236,0.00224949,0.315487,20.6506,76.2216,0.147772,0.0,0.0
1248,311.75,72.3376,74.3672,136.442,99.0947,97.3165,0.00203565,0.317931,20.6496,75.6511,0.164027,0.0,0.0
1274,318.25,71.9551,74.4766,132.347,98.9139,97.3135,0.00231354,0.317509,20.6453,75.0505,0.147752,0.0,0.0
1300,324.75,72.4404,74.8031,136.474,98.7061,97.3977,0.00230381,0.319239,20.643,74.51,0.120874,0.0,0.0
1326,331.25,72.3059,75.1296,134.596,98.5938,97.007,0.00241146,0.320471,20.6413,73.8994,0.146977,0.0,0.0
1352,337.75,72.6164,74.8895,139.045,98.5265,96.8057,0.00231099,0.31599,20.6437,73.3889,0.159599,0.0,0.0
1378,344.25,72.5356,74.9599,134.385,98.4799,96.9653,0.00211264,0.31798,20.6425,72.8284,0.1404,0.0,0.0
1404,350.75,72.5811,75.023,135.236,98.4936,96.7076,0.00200461,0.315056,20.6424,72.3079,0.16576,0.0,0.0
1430,357.25,71.8987,74.6846,135.075,98.4964,96.7682,0.0024384,0.315736,20.6423,71.7274,0.160341,0.0,0.0
1456,363.75,72.3473,75.2415,133.138,98.5209,96.5669,0.00239647,0.314678,20.643,71.1568,0.181451,0.0,0.0
1482,370.25,71.7559,74.8943,138.722,98.5289,96.7762,0.00189057,0.310812,20.6475,70.6063,0.162578,0.0,0.0
1508,376.75,72.2552,75.2288,138.187,98.5437,96.9926,0.00234437,0.306531,20.6505,70.1059,0.143707,0.0,0.0
1534,383.25,72.0923,74.7181,138.847,98.573,97.0996,0.0023274,0.304276,20.6536,69.5954,0.136415,0.0,0.0
1560,389.75,71.6408,74.5738,137.928,98.5606,96.9181,0.00227593,0.296021,20.6623,69.165,0.152218,0.0,0.0
1586,396.25,71.0562,74.4317,139.635,98.5505,96.8347,0.00211952,0.285981,20.6713,68.6945,0.159092,0.0,0.0
1612,402.75,70.9093,73.567,138.518,98.5509,97.1615,0.0020453,0.27507,20.6855,68.3542,0.128615,0.0,0.0
1638,409.25,69.8766,72.942,145.087,98.5289,97.4849,0.00227788,0.261777,20.7042,67.9038,0.0964893,0.0,0.0
1664,415.75,69.232,72.4612,141.104,98.5112,97.3624,0.00214521,0.24791,20.718,67.6435,0.10626,0.0,0.0
1690,422.25,67.8525,71.7316,139.889,98.4908,97.5902,0.00172862,0.228512,20.7378,67.4033,0.0832095,0.0,0.0
1716,428.75,66.605,70.3551,140.607,98.506,98.1169,0.00192846,0.20746,20.7607,67.1731,0.0358486,0.0,0.0
1742,435.25,66.0051,69.849,143.282,98.4651,98.3847,0.00203958,0.184947,20.7843,67.043,0.00739578,0.0,0.0
1768,441.75,64.8661,68.3913,140.947,98.4563,98.4719,0.00203137,0.168052,20.8053,66.9629,-0.00143679,0.0,0.0
1794,448.25,63.5426,67.2661,143.599,98.4803,98.6715,0.00213411,0.158435,20.8186,66.7627,-0.0175649,0.0,0.0
1820,454.75,62.6022,65.9576,142.104,98.5012,98.6083,0.00223398,0.151866,20.8287,66.7127,-0.00984612,0.0,0.0
1846,461.25,62.0882,65.7173,143.921,98.5662,98.5885,0.00268233,0.148608,20.8369,66.6126,-0.00205564,0.0,0.0
1872,467.75,61.1015,64.6307,143.586,98.6817,98.7334,0.00317242,0.146134,20.8382,66.4624,-0.00474589,0.0,0.0
1898,474.25,60.5938,63.7438,146.224,98.8265,98.8749,0.00343437,0.145069,20.8403,66.3223,-0.00443745,0.0,0.0
1924,480.75,59.9109,63.0932,143.207,99.0073,99.1208,0.00330073,0.145325,20.8431,66.2322,-0.0103753,0.0,0.0
1950,487.25,59.2322,62.4275,147.286,99.1758,99.3002,0.00335008,0.143942,20.844,66.1822,-0.0113558,0.0,0.0
1976,493.75,59.0893,61.7285,144.688,99.3743,99.4417,0.00325319,0.143058,20.8453,66.0821,-0.00613913,0.0,0.0
2002,500.25,57.9059,60.5991,147.148,99.5319,99.6779,0.00290472,0.141318,20.8509,65.982,-0.0132767,0.0,0.0
2028,506.75,56.5069,59.6899,143.088,99.6991,99.7743,0.00329469,0.144022,20.8467,65.9019,-0.00682854,0.0,0.0
2054,513.25,56.3822,58.5402,143.615,99.803,99.8876,0.00327017,0.141457,20.8501,65.7017,-0.00767362,0.0,0.0
2080,519.75,56.1288,58.6596,143.707,99.8571,100.017,0.00327047,0.140875,20.85,65.6617,-0.0144766,0.0,0.0
2106,526.25,56.4554,58.1978,146.834,99.9001,100.059,0.00328461,0.14048,20.8517,65.6016,-0.0144355,0.0,0.0
2132,532.75,56.1021,57.4635,143.897,99.9141,100.067,0.00336426,0.140619,20.8513,65.4615,-0.0138877,0.0,0.0
2158,539.25,55.7303,57.5388,141.985,99.9233,100.084,0.00342613,0.14125,20.8502,65.3514,-0.0145755,0.0,0.0
2184,545.75,55.3764,57.4442,145.359,99.9117,100.035,0.00373428,0.140158,20.8515,65.2813,-0.011132,0.0,0.0
2210,552.25,55.1819,57.3374,149.082,99.9225,100.067,0.00373289,0.140766,20.8533,65.1612,-0.0131242,0.0,0.0
2236,558.75,55.2785,56.6378,146.45,99.9273,100.056,0.0035769,0.139974,20.852,65.0611,-0.0116202,0.0,0.0
2262,565.25,55.3546,56.5717,147.598,99.941,99.9491,0.00397855,0.13825,20.8529,64.941,-0.000734835,0.0,0.0
2288,571.75,55.0159,56.2525,144.597,99.9694,100.029,0.00379868,0.137691,20.8541,64.881,-0.00544006,0.0,0.0
2314,578.25,54.847,56.2674,150.559,99.9666,100.068,0.00382005,0.137197,20.8543,64.8009,-0.00916405,0.0,0.0
2340,584.75,54.7696,56.421,145.883,99.9983,100.11,0.00397058,0.136955,20.8554,64.7508,-0.0101423,0.0,0.0
2366,591.25,54.3184,55.6593,146.086,99.9983,100.08,0.0039577,0.136751,20.8534,64.5807,-0.00739858,0.0,0.0
2392,597.75,54.7713,56.4879,146.582,99.9887,100.12,0.00412825,0.136574,20.8567,64.5406,-0.0119283,0.0,0.0
2418,604.25,54.6797,55.3005,141.476,99.9927,99.9604,0.00411448,0.135922,20.857,64.4606,0.00292255,0.0,0.0
2444,610.75,54.5466,55.8355,145.083,99.9662,100.087,0.00393977,0.135016,20.8572,64.3304,-0.0109153,0.0,0.0
2470,617.25,54.3102,55.6868,143.482,99.9353,99.9676,0.0039497,0.134664,20.8579,64.2704,-0.00292242,0.0,0.0
2481,620,54.0902,55.4654,142.453,99.9281,99.9604,0.00391663,0.135314,20.8596,64.2403,-0.00292836,0.0,0.0