Folder: fsri_materials_database/01_Data/Homasote/Cone (part 3)

File: Homasote_Cone_HF25Scan_230608_R4.csv
Names,Time,Stack TC,Smoke TC,Exh Press,Smoke Comp,Smoke Meas,CO Meter,CO2 Meter,O2 Meter,Sample Mass,Ext Coeff,Start Test,Flame Verif
Chan Gain,,500,500,1,1,1,1,1,1,1,1,1.0,1.0
Offset,,0,0,0.143883,0,0,0,0,0,0,0,0.0,0.0
Gain,,1,1,25.011,13.4045,14.1318,1,1,1,1.00094,1.03262,1.0,1.0
Units,sec,C,C,Pa,%,%,%,%,%,g,/m,,
Baseline,,28.182,28.4665,159.472,101.009,100.957,0.000596986,0.0589524,20.9403,-445.497,0.00471186,,
44,10.75,25.7849,26.0191,158.248,101.25,101.157,0.000617393,0.0658849,20.9342,108.522,0.00832145,0.0,0.0
88,21.75,25.6768,26.0584,158.96,101.262,100.693,0.0009103,0.0591959,20.9402,108.442,0.0510686,0.0,0.0
132,32.75,26.2488,26.2929,157.242,101.27,100.413,0.000602393,0.0577745,20.947,108.292,0.0769386,0.0,0.0
176,43.75,25.9639,26.4367,156.314,101.24,99.8815,0.000873531,0.058051,20.947,108.182,0.122398,0.0,0.0
220,54.75,26.1432,26.3195,162.869,101.19,98.5208,0.00125869,0.0603214,20.9454,107.891,0.242138,0.0,0.0
264,65.75,31.6532,28.7262,146.593,101.103,100.521,0.0023274,0.167737,20.9273,106.52,0.0523151,0.0,0.0
308,76.75,36.2389,33.5309,148.514,100.973,100.164,0.00265173,0.364486,20.6018,105.389,0.0728102,0.0,0.0
352,87.75,37.7073,35.8991,147.992,100.819,100.185,0.00258776,0.312201,20.6349,104.378,0.0571299,0.0,0.0
396,98.75,38.7122,37.118,148.911,100.652,100.093,0.00294593,0.279633,20.6767,103.407,0.050434,0.0,0.0
440,109.75,38.8528,37.8713,149.498,100.541,100.258,0.00264319,0.259495,20.707,102.546,0.0255154,0.0,0.0
484,120.75,38.3309,38.802,148.637,100.59,100.669,0.00308317,0.254273,20.7125,101.766,-0.00704305,0.0,0.0
528,131.75,38.2765,38.8077,151.427,100.822,100.948,0.0035278,0.230774,20.7287,101.045,-0.0112915,0.0,0.0
572,142.75,37.8856,38.1438,153.098,101.087,101.345,0.00346981,0.210095,20.7586,100.334,-0.0231151,0.0,0.0
616,153.75,37.3443,38.7375,155.65,101.252,101.399,0.00380391,0.199664,20.7787,99.6736,-0.013134,0.0,0.0
660,164.75,36.5424,38.0715,153.144,101.128,101.32,0.00384733,0.191552,20.786,98.953,-0.0172149,0.0,0.0
704,175.75,36.3855,37.9901,149.649,100.876,100.749,0.00519605,0.183297,20.7878,98.3023,0.0113783,0.0,0.0
748,186.75,35.3841,37.6316,152.706,101.185,101.139,0.00605911,0.171711,20.8011,97.5817,0.00408505,0.0,0.0
792,197.75,35.1564,36.5464,155.566,101.545,100.022,0.00708667,0.170138,20.8143,97.0211,0.136885,0.0,0.0
836,208.75,33.7293,35.7144,154.9,101.753,100.101,0.0107569,0.134639,20.8351,96.3805,0.148257,0.0,0.0
880,219.75,33.5807,36.4532,156.716,101.735,100.526,0.015368,0.113357,20.871,95.9301,0.108293,0.0,0.0
924,230.75,33.0529,35.053,157.941,101.524,100.436,0.0156383,0.114052,20.8712,95.3296,0.0976068,0.0,0.0
968,241.75,32.475,33.889,153.637,101.109,100.159,0.0158331,0.116118,20.8705,94.709,0.0854529,0.0,0.0
1012,252.75,32.3667,34.0118,161.891,100.614,99.5878,0.0157562,0.1135,20.8742,94.1685,0.0928262,0.0,0.0
1056,263.75,31.4856,33.112,159.762,100.235,98.9655,0.0158484,0.111693,20.8794,93.5379,0.11544,0.0,0.0
1100,274.75,31.3887,32.2735,155.218,100.098,98.9607,0.0161068,0.113001,20.8791,93.0574,0.103482,0.0,0.0
1144,285.75,30.9382,32.0001,161.875,100.182,98.9327,0.0161224,0.111528,20.8818,92.587,0.113634,0.0,0.0
1188,296.75,31.198,32.3839,158.934,100.429,99.5024,0.0162598,0.11137,20.8807,92.0064,0.0839359,0.0,0.0
1232,307.75,30.964,31.9989,158.563,100.673,99.5188,0.016529,0.112529,20.8789,91.4259,0.104407,0.0,0.0
1276,318.75,30.6412,31.8669,157.28,100.908,99.6676,0.016121,0.112445,20.8794,90.8553,0.112014,0.0,0.0
1320,329.75,30.5605,30.995,158.225,101.077,100.044,0.0162507,0.111882,20.8804,90.445,0.0930528,0.0,0.0
1364,340.75,30.7543,30.9965,159.969,101.21,99.8086,0.0170801,0.113029,20.8773,89.8844,0.126339,0.0,0.0
1408,351.75,30.6578,30.735,157.572,101.308,99.9591,0.0169584,0.112146,20.8788,89.2939,0.121435,0.0,0.0
1452,362.75,29.5931,30.0205,159.981,101.339,100.01,0.0168943,0.112646,20.8766,88.8935,0.119492,0.0,0.0
1496,373.75,30.213,31.2591,157.218,101.277,99.7262,0.0171032,0.111601,20.8809,88.373,0.139783,0.0,0.0
1540,384.75,30.4943,30.2975,159.074,101.152,99.3394,0.0172373,0.111237,20.8813,87.9326,0.163822,0.0,0.0
1584,395.75,30.5509,30.6448,154.433,101.036,99.0004,0.017715,0.110407,20.8833,87.4622,0.184374,0.0,0.0
1628,406.75,30.4585,30.5206,155.872,101.042,98.5911,0.0178102,0.112766,20.8829,86.9417,0.222412,0.0,0.0
1672,417.75,30.5705,30.7189,158.561,101.109,98.3798,0.0180174,0.116779,20.8707,86.4712,0.247896,0.0,0.0
1716,428.75,29.4202,30.6837,159.071,101.247,97.9917,0.0182577,0.120635,20.8612,85.9908,0.296046,0.0,0.0
1760,439.75,32.3245,31.8345,154.697,101.307,101.403,0.0189577,0.121877,20.8604,85.2501,-0.00857769,0.0,0.0
1804,450.75,34.2405,33.466,151.461,101.193,101.208,0.0052528,0.207989,20.7783,84.5995,-0.00136227,0.0,0.0
1848,461.75,35.7695,34.8169,155.862,100.802,100.646,0.00272166,0.217771,20.7613,83.9589,0.0139996,0.0,0.0
1892,472.75,37.206,35.9699,151.628,100.303,99.8828,0.00228323,0.230875,20.752,83.2582,0.0380403,0.0,0.0
1936,483.75,38.2004,37.9838,150.094,100.093,99.4826,0.00227785,0.243032,20.7346,82.4575,0.0554366,0.0,0.0
1980,494.75,40.0756,39.5652,151.132,100.295,99.6551,0.00192964,0.253915,20.7191,81.6467,0.0580119,0.0,0.0
2024,505.75,40.7952,40.5118,150.047,100.72,100.018,0.00202564,0.266568,20.7063,80.7358,0.063333,0.0,0.0
2068,516.75,42.2331,41.7387,153.51,101.124,100.117,0.00185324,0.277202,20.6921,79.845,0.0907077,0.0,0.0
2112,527.75,43.373,42.5363,148.959,101.39,100.372,0.00208669,0.286496,20.6852,78.8941,0.0913491,0.0,0.0
2156,538.75,44.4423,43.931,150.813,101.528,100.14,0.0021081,0.296578,20.6725,77.9232,0.124656,0.0,0.0
2200,549.75,44.7806,45.1123,144.74,101.621,99.7538,0.00233644,0.30315,20.6603,76.9623,0.167957,0.0,0.0
2244,560.75,45.54,46.1372,145.241,101.653,100.016,0.00252795,0.303741,20.6597,75.9413,0.147062,0.0,0.0
2288,571.75,45.5564,46.4131,146.819,101.689,99.8767,0.00255694,0.298021,20.6603,74.9604,0.16289,0.0,0.0
2332,582.75,45.0365,46.7622,149.021,101.706,100.215,0.00249488,0.287797,20.6704,74.0996,0.13377,0.0,0.0
2376,593.75,45.3547,46.5757,149.424,101.711,99.9656,0.00195974,0.281957,20.682,73.2888,0.156804,0.0,0.0
2420,604.75,46.0699,46.9845,150.802,101.662,100.188,0.00213181,0.274022,20.69,72.4381,0.132254,0.0,0.0
2464,615.75,45.3191,47.2606,147.553,101.539,100.081,0.00217744,0.266984,20.697,71.6073,0.131063,0.0,0.0
2508,626.75,45.5019,46.9452,147.72,101.332,99.6728,0.00248722,0.265801,20.6979,70.8566,0.149579,0.0,0.0
2552,637.75,44.7718,46.9375,148.233,101.116,99.3726,0.00248064,0.260827,20.7023,70.1359,0.157533,0.0,0.0
2596,648.75,44.088,46.5661,151.163,100.871,99.4985,0.00329437,0.247761,20.7152,69.4853,0.124085,0.0,0.0
2640,659.75,42.9603,45.3704,152.545,100.555,99.2829,0.00434784,0.215947,20.7394,69.0849,0.115334,0.0,0.0
2684,670.75,41.2892,44.1289,154.432,100.315,99.7107,0.00603671,0.179008,20.7788,68.7045,0.0547293,0.0,0.0
2728,681.75,39.8324,42.6114,157.078,100.195,99.8431,0.00757772,0.158706,20.801,68.4043,0.0318811,0.0,0.0
2772,692.75,38.7751,41.6714,154.193,100.144,100.317,0.0086151,0.14735,20.8179,68.074,-0.0156036,0.0,0.0
2816,703.75,37.2143,40.4029,153.838,100.111,100.123,0.00962724,0.13562,20.8338,67.9138,-0.00105827,0.0,0.0
2860,714.75,36.182,39.3304,155.462,100.142,100.226,0.0121043,0.122085,20.8569,67.6836,-0.00756825,0.0,0.0
2904,725.75,35.6055,37.9903,155.074,100.19,100.349,0.0118004,0.121574,20.8549,67.5435,-0.0143414,0.0,0.0
2948,736.75,34.9039,36.6817,155.83,100.288,100.42,0.0131172,0.118817,20.855,67.2832,-0.0119251,0.0,0.0
2992,747.75,34.2307,36.2328,154.346,100.344,100.387,0.0131565,0.118842,20.8569,67.083,-0.00379522,0.0,0.0
3036,758.75,34.0425,36.2757,159.348,100.365,100.519,0.0129241,0.120026,20.8536,66.9129,-0.0138899,0.0,0.0
3080,769.75,33.3306,35.2351,158.755,100.445,100.545,0.013191,0.117986,20.8607,66.7627,-0.00898571,0.0,0.0
3124,780.75,33.6271,35.1015,156.531,100.573,100.749,0.0130222,0.116282,20.8607,66.6026,-0.0158416,0.0,0.0
3168,791.75,33.3488,34.4963,155.449,100.74,100.913,0.012411,0.116161,20.8604,66.4524,-0.0155474,0.0,0.0
3212,802.75,33.3031,33.6414,155.255,100.919,101.048,0.0126113,0.114072,20.8648,66.3924,-0.0115964,0.0,0.0
3256,813.75,32.9519,33.5832,151.099,101.084,101.176,0.0121607,0.112609,20.8674,66.2122,-0.00824966,0.0,0.0
3300,824.75,32.939,33.7108,152.549,101.242,101.387,0.0120956,0.113823,20.8661,66.052,-0.0130096,0.0,0.0
3344,835.75,32.3773,32.7687,159.258,101.323,101.41,0.0125391,0.111025,20.869,65.8719,-0.00780817,0.0,0.0
3388,846.75,32.1043,32.9083,158.874,101.325,101.473,0.0127824,0.108059,20.8744,65.7818,-0.0132091,0.0,0.0
3432,857.75,32.1063,33.2111,157.899,101.323,101.512,0.0132415,0.107935,20.8762,65.6617,-0.0168563,0.0,0.0
3476,868.75,32.0652,32.2784,154.19,101.291,101.404,0.0129737,0.107397,20.8743,65.5716,-0.0101585,0.0,0.0
3520,879.75,31.8995,32.7446,154.902,101.279,101.421,0.0128706,0.107361,20.8711,65.4014,-0.0126836,0.0,0.0
3564,890.75,31.5625,31.4551,156.868,101.208,101.31,0.0125644,0.107552,20.869,65.3214,-0.00911271,0.0,0.0
3608,901.75,31.9945,32.4783,157.424,101.104,101.22,0.0131635,0.105397,20.8722,65.2313,-0.0104272,0.0,0.0
3652,912.75,30.894,31.7927,156.996,101.037,101.16,0.0128587,0.104932,20.8757,65.1212,-0.0109618,0.0,0.0
3696,923.75,31.493,31.5474,154.354,101.03,101.148,0.0133846,0.104348,20.8759,65.0111,-0.0105401,0.0,0.0
3740,934.75,30.8906,31.8681,158.309,101.126,101.298,0.0136506,0.102175,20.8782,64.891,-0.0153943,0.0,0.0
3784,945.75,30.0297,30.594,156.793,101.269,101.35,0.0124817,0.102094,20.8824,64.8409,-0.00716732,0.0,0.0
3828,956.75,29.564,30.1436,160.18,101.294,101.396,0.0125381,0.103163,20.8752,64.6908,-0.00909542,0.0,0.0
3872,967.75,29.9998,29.4336,157.557,101.111,101.181,0.0129019,0.0995674,20.8804,64.6407,-0.00625529,0.0,0.0
3916,978.75,29.6505,29.1494,159.723,100.65,100.757,0.0122045,0.0975283,20.8863,64.5306,-0.00969371,0.0,0.0
3960,989.75,28.8798,29.3023,158.248,100.197,100.219,0.0121257,0.0954758,20.8902,64.4305,-0.00198543,0.0,0.0
4004,1000.75,28.5125,29.4756,156.663,100.075,100.151,0.0126509,0.0940331,20.8925,64.2904,-0.00689122,0.0,0.0
4048,1011.75,29.2181,28.9076,157.798,100.324,100.426,0.0122911,0.0940136,20.8937,64.2103,-0.00914568,0.0,0.0
4092,1022.75,28.8929,28.7914,158.129,100.643,100.7,0.0120999,0.0925218,20.8974,64.1403,-0.00504948,0.0,0.0
4136,1033.75,28.3396,29.1699,157.297,100.855,100.953,0.0119133,0.0917266,20.8984,63.9701,-0.00877926,0.0,0.0
4180,1044.75,28.4043,29.0057,159.9,100.959,101.073,0.0109212,0.0906489,20.899,63.92,-0.0102407,0.0,0.0
4224,1055.75,28.8589,28.7332,158.922,101.003,101.102,0.0106932,0.0897509,20.9012,63.83,-0.00886519,0.0,0.0
4233,1058,28.129,28.2275,157.592,100.985,101.013,0.0107645,0.0901692,20.9014,63.7999,-0.00244284,0.0,0.0

File: Homasote_Cone_HF50Scalar_230608_R1.csv
LABORATORY,FSRI
TEST IDENT,Homasote_HF50_R1
OPERATOR,Marino
MATERIAL,Homasote
ORIENTATION,Horizontal
HEAT FLUX,50
SURF AREA,0.01
C FACTOR,0.0405875
SPEC HOLDER DIFF,-566
SPECIMEN MASS,59.68
SCAN TIME,0.25
O2 DELAY TIME,11
CO DELAY TIME,11
CO2 DELAY TIME,8
FLOW FACTOR,1
SCAN COUNT,3913
TIME TO IGN,10
END OF TEST SCAN,3433
END OF TEST TIME,858.25
TEST STATUS,1
PRE TEST CMT,Dimensions: 102.12 x 102.04 x 12.55 mm
POST TEST CMT,"Sample corner lifted off insulation during test. Slight swelling during the decay stage. See test pictures. The sample shrank horizontally, reducing exposed surface area, see post test pictures."

File: Homasote_Cone_HF50Scalar_230608_R2.csv
LABORATORY,FSRI
TEST IDENT,Homasote_HF50_R2
OPERATOR,Marino
MATERIAL,Homasote
ORIENTATION,Horizontal
HEAT FLUX,50
SURF AREA,0.01
C FACTOR,0.0405875
SPEC HOLDER DIFF,-566
SPECIMEN MASS,59.5
SCAN TIME,0.25
O2 DELAY TIME,11
CO DELAY TIME,11
CO2 DELAY TIME,8
FLOW FACTOR,1
SCAN COUNT,3226
TIME TO IGN,9.25
END OF TEST SCAN,2746
END OF TEST TIME,686.5
TEST STATUS,1
PRE TEST CMT,Dimensions: 102.19 x 102.1 x 12.53 mm
POST TEST CMT,"Sample corner lifted off insulation during test. Slight swelling during the decay stage. See test pictures."

File: Homasote_Cone_HF50Scalar_230608_R3.csv
LABORATORY,FSRI
TEST IDENT,Homasote_HF50_R3
OPERATOR,Marino
MATERIAL,Homasote
ORIENTATION,Horizontal
HEAT FLUX,50
SURF AREA,0.01
C FACTOR,0.0405875
SPEC HOLDER DIFF,-566
SPECIMEN MASS,58.92
SCAN TIME,0.25
O2 DELAY TIME,11
CO DELAY TIME,11
CO2 DELAY TIME,8
FLOW FACTOR,1
SCAN COUNT,3154
TIME TO IGN,9.5
END OF TEST SCAN,2674
END OF TEST TIME,668.5
TEST STATUS,1
PRE TEST CMT,Dimensions: 102.29 x 102.09 x 12.63 mm
POST TEST CMT,"Sample corner lifted off insulation during test. Slight swelling during the decay stage. See test pictures."

File: Homasote_Cone_HF50Scan_230608_R1.csv
Names,Time,Stack TC,Smoke TC,Exh Press,Smoke Comp,Smoke Meas,CO Meter,CO2 Meter,O2 Meter,Sample Mass,Ext Coeff,Start Test,Flame Verif
Chan Gain,,500,500,1,1,1,1,1,1,1,1,1.0,1.0
Offset,,0,0,0.143883,0,0,0,0,0,0,0,0.0,0.0
Gain,,1,1,25.011,13.2306,13.9176,1,1,1,1.00094,1.03262,1.0,1.0
Units,sec,C,C,Pa,%,%,%,%,%,g,/m,,
Baseline,,37.4758,38.1566,154.705,99.5765,99.534,0.00035266,0.0538965,20.9494,-445.536,0.00387505,,
41,10,35.4269,35.8465,145.818,100.014,99.8647,0.000558805,0.0741773,20.9253,103.077,0.0135231,0.0,1.0
82,20.25,42.5147,40.2636,141.579,99.9954,98.3319,0.00110174,0.189311,20.913,101.545,0.151954,0.0,0.0
123,30.5,48.3547,44.727,141.266,100.03,96.0952,0.00299325,0.435805,20.5107,100.114,0.363472,0.0,0.0
164,40.75,51.2504,48.8458,140.871,99.9909,96.8092,0.0037907,0.41579,20.5143,98.7728,0.292912,0.0,0.0
205,51,53.0237,50.625,145.519,99.8924,97.0097,0.00398025,0.372925,20.5611,97.6417,0.265245,0.0,0.0
246,61.25,53.0123,52.0222,142.443,99.6869,98.0227,0.00322775,0.33122,20.6209,96.6208,0.152496,0.0,0.0
287,71.5,53.2063,53.3962,142.711,99.4466,98.5022,0.00266869,0.300719,20.656,95.6298,0.0864358,0.0,0.0
328,81.75,53.4976,53.5525,147.85,99.3017,98.6381,0.00232029,0.280121,20.6826,94.769,0.0607335,0.0,0.0
369,92,53.5473,54.1775,145.838,99.613,99.0582,0.00184767,0.263897,20.699,93.8882,0.0505929,0.0,0.0
410,102.25,52.7265,54.2245,142.472,99.9707,99.7632,0.00184726,0.254863,20.7158,92.9974,0.0188219,0.0,0.0
451,112.5,52.3605,54.1731,145.567,100.03,99.8826,0.00219415,0.249318,20.7208,92.2166,0.0133689,0.0,0.0
492,122.75,52.4885,54.0965,144.523,99.7579,99.7076,0.00194893,0.240574,20.7315,91.3658,0.00457504,0.0,0.0
533,133,52.6417,54.3045,144.4,99.739,99.7925,0.00207973,0.231624,20.7404,90.5651,-0.00486203,0.0,0.0
574,143.25,52.3327,53.9676,144.129,100.032,100.146,0.00198612,0.226206,20.7499,89.8144,-0.0103737,0.0,0.0
615,153.5,52.1158,53.831,142.218,100.372,100.488,0.00172565,0.220819,20.7586,89.0436,-0.0104747,0.0,0.0
656,163.75,51.8232,53.742,145.073,100.546,100.642,0.00169275,0.216606,20.7621,88.2529,-0.00863389,0.0,0.0
697,174,51.6984,53.7952,152.177,100.46,100.608,0.00182158,0.215074,20.763,87.5122,-0.0133643,0.0,0.0
738,184.25,51.2357,53.6552,142.001,100.192,100.296,0.00155105,0.209563,20.7722,86.7715,-0.00938402,0.0,0.0
779,194.5,51.6447,53.4302,153.557,99.9122,100.023,0.00186254,0.211363,20.7697,86.0408,-0.0100164,0.0,0.0
820,204.75,51.59,53.4025,149.001,99.6614,99.8375,0.00167828,0.209948,20.7698,85.4202,-0.0159909,0.0,0.0
861,215,50.8841,52.6929,144.755,99.5363,99.674,0.00185817,0.20869,20.7755,84.7796,-0.0125263,0.0,0.0
902,225.25,51.3605,53.1375,143.771,99.4164,99.5092,0.00183808,0.208695,20.7749,84.0189,-0.00845718,0.0,0.0
943,235.5,51.4719,53.5459,146.655,99.3558,99.3092,0.00148266,0.213311,20.7682,83.3183,0.00425018,0.0,0.0
984,245.75,51.483,53.1473,145.444,99.3053,99.2204,0.00167305,0.218148,20.7625,82.5876,0.00774858,0.0,0.0
1025,256,51.3436,53.3462,149.319,99.3558,99.1809,0.0017572,0.218836,20.7615,81.937,0.0159573,0.0,0.0
1066,266.25,52.0365,53.5994,145.735,99.485,99.3856,0.00133311,0.220389,20.7578,81.2263,0.00905285,0.0,0.0
1107,276.5,51.7123,53.1818,141.351,99.6711,99.4349,0.00155973,0.223947,20.7578,80.5256,0.0214949,0.0,0.0
1148,286.75,52.0341,53.7644,145.844,99.8791,99.6332,0.0016131,0.230705,20.753,79.7449,0.0223211,0.0,0.0
1189,297,52.3768,54.1675,147.67,100.062,99.7088,0.00118277,0.242468,20.7411,79.0242,0.0320608,0.0,0.0
1230,307.25,52.8803,54.3843,144.069,100.127,99.4064,0.00165575,0.246737,20.7309,78.2835,0.065457,0.0,0.0
1271,317.5,53.4523,54.6133,145.021,100.132,99.2986,0.00180991,0.258634,20.7166,77.4928,0.0757308,0.0,0.0
1312,327.75,53.5226,55.1489,140.246,100.045,98.6576,0.00133797,0.272314,20.6996,76.672,0.126455,0.0,0.0
1353,338,54.3217,55.79,143.753,99.8795,98.5527,0.00171359,0.270519,20.7044,75.8513,0.121128,0.0,0.0
1394,348.25,54.6072,55.6783,144.553,99.7947,98.2236,0.00194572,0.272256,20.7019,75.0105,0.14374,0.0,0.0
1435,358.5,54.9854,55.8031,145.829,99.6421,97.9891,0.00149381,0.274077,20.6987,74.1697,0.151523,0.0,0.0
1476,368.75,55.4455,56.6403,144.503,99.5141,97.5941,0.00190222,0.27703,20.6925,73.3189,0.176467,0.0,0.0
1517,379,55.6642,57.0749,145.006,99.3796,97.3843,0.00187205,0.280677,20.6895,72.428,0.183715,0.0,0.0
1558,389.25,55.9544,57.5987,142.349,99.2326,97.4013,0.00213821,0.283325,20.6854,71.5973,0.168729,0.0,0.0
1599,399.5,56.2998,57.8134,143.312,99.0933,97.0827,0.00187121,0.285066,20.6817,70.7665,0.185678,0.0,0.0
1640,409.75,56.8355,58.4195,140.746,98.9553,97.1197,0.00193107,0.284497,20.6803,69.8857,0.169599,0.0,0.0
1681,420,57.1465,59.0581,142.888,98.8721,97.1333,0.00171841,0.286243,20.6793,69.0349,0.160714,0.0,0.0
1722,430.25,57.1592,59.139,145.869,98.8353,97.1465,0.00182912,0.283761,20.6779,68.2241,0.15612,0.0,0.0
1763,440.5,57.0608,59.2151,142.401,98.8297,96.9757,0.00197662,0.282143,20.6814,67.4434,0.171537,0.0,0.0
1804,450.75,57.6207,59.1786,138.261,98.9141,96.9795,0.00192908,0.282674,20.6796,66.6026,0.17891,0.0,0.0
1845,461,57.4957,59.2651,150.01,99.0518,97.397,0.00212318,0.279311,20.6838,65.8318,0.152597,0.0,0.0
1886,471.25,57.3039,59.3232,145.896,99.2746,97.7988,0.00207336,0.272784,20.6891,65.0411,0.135666,0.0,0.0
1927,481.5,57.196,58.9481,146.36,99.5686,98.2367,0.00213533,0.26279,20.7027,64.3705,0.12198,0.0,0.0
1968,491.75,56.2425,58.9506,146.085,99.8181,98.4262,0.00200061,0.248229,20.7233,63.7399,0.127202,0.0,0.0
2009,502,55.5783,57.5644,145.631,100.007,99.0072,0.00178604,0.236133,20.7394,63.1593,0.0910551,0.0,0.0
2050,512.25,54.54,57.1463,144.696,100.022,99.4718,0.00198512,0.216952,20.7553,62.7389,0.049997,0.0,0.0
2091,522.5,52.9431,55.9345,146.312,99.8718,100.014,0.00242523,0.189453,20.7822,62.4587,-0.0129074,0.0,0.0
2132,532.75,51.1335,54.7559,147.702,99.6332,99.7751,0.00355201,0.163426,20.8084,62.3286,-0.0128944,0.0,0.0
2173,543,50.791,53.4638,146.213,99.3324,99.4336,0.00447506,0.152404,20.8234,62.0683,-0.00922837,0.0,0.0
2214,553.25,49.46,52.3348,148.63,99.525,99.7055,0.00573111,0.156973,20.8194,61.8781,-0.0164111,0.0,0.0
2255,563.5,48.7815,50.5922,148.021,99.9017,100.258,0.00685277,0.141363,20.835,61.768,-0.0322516,0.0,0.0
2296,573.75,47.6925,50.3083,149.075,99.9788,100.051,0.00753631,0.135407,20.8477,61.5578,-0.00651679,0.0,0.0
2337,584,46.9843,49.5971,148.401,99.8189,99.8533,0.00730451,0.133064,20.8519,61.3576,-0.00311576,0.0,0.0
2378,594.25,46.7352,48.6815,147.183,99.575,99.5581,0.00746165,0.133704,20.8537,61.2776,0.00154399,0.0,0.0
2419,604.5,46.419,47.8057,150.83,99.5948,99.6545,0.00706797,0.132655,20.8515,61.1274,-0.00542439,0.0,0.0
2460,614.75,46.0828,47.1703,150.369,99.6243,99.632,0.006965,0.132049,20.8532,60.9873,-0.000697579,0.0,0.0
2501,625,46.1389,47.6797,148.173,99.6312,99.6549,0.0069486,0.128763,20.8587,60.8472,-0.00215824,0.0,0.0
2542,635.25,45.9764,47.1132,147.908,99.6639,99.7046,0.00700798,0.129326,20.8582,60.667,-0.00370178,0.0,0.0
2583,645.5,44.9103,45.6435,145.705,99.6344,99.6167,0.00656705,0.12737,20.859,60.4668,0.00160984,0.0,0.0
2624,655.75,45.0677,46.1817,149.934,99.5512,99.5844,0.0065195,0.12743,20.8629,60.3967,-0.00301909,0.0,0.0
2665,666,44.5371,45.2512,143.745,99.615,99.584,0.00670256,0.125703,20.8677,60.2766,0.00282216,0.0,0.0
2706,676.25,44.0536,44.9951,154.041,99.764,99.6757,0.00654383,0.12393,20.8671,60.1065,0.00801938,0.0,0.0
2747,686.5,43.6242,45.1546,150.57,99.8052,99.8503,0.00672844,0.123095,20.8652,59.9663,-0.00409283,0.0,0.0
2788,696.75,43.3839,45.0283,151.087,99.833,99.8571,0.0067397,0.121672,20.867,59.8162,-0.00218038,0.0,0.0
2829,707,43.8642,44.3127,152.057,99.7507,99.7887,0.00691353,0.123742,20.8663,59.6761,-0.0034517,0.0,0.0
2870,717.25,43.8366,44.6558,148.656,99.5839,99.657,0.00685861,0.122607,20.8652,59.5259,-0.00664754,0.0,0.0
2911,727.5,43.1887,44.4106,149.056,99.6873,99.7594,0.00670505,0.118966,20.8729,59.4158,-0.00654921,0.0,0.0
2952,737.75,43.5611,44.1578,148.321,99.8989,100,0.0069093,0.117605,20.8749,59.3157,-0.00918567,0.0,0.0
2993,748,43.2545,43.7019,149.585,100.201,100.154,0.00729432,0.121737,20.8716,59.2056,0.00420377,0.0,0.0
3034,758.25,42.8792,43.611,145.861,100.386,100.416,0.007315,0.122408,20.8694,59.1055,-0.00272853,0.0,0.0
3075,768.5,42.7849,44.1927,153.185,100.486,100.472,0.00730027,0.117771,20.8738,58.9954,0.00125032,0.0,0.0
3116,778.75,42.5233,43.9448,154.266,100.489,100.439,0.00770612,0.116331,20.8752,58.9053,0.0044887,0.0,0.0
3157,789,42.2805,43.5797,152.454,100.408,100.335,0.0078408,0.114543,20.8769,58.7552,0.00655958,0.0,0.0
3198,799.25,42.5377,43.3295,149.756,100.221,100.306,0.00785605,0.114014,20.8772,58.6451,-0.00771145,0.0,0.0
3239,809.5,43.0262,43.3359,151.024,99.8234,99.855,0.00821525,0.112732,20.8792,58.555,-0.00286679,0.0,0.0
3280,819.75,42.8163,43.3939,153.467,99.3441,99.4481,0.00793681,0.111839,20.8806,58.4049,-0.0094759,0.0,0.0
3321,830,42.9978,42.8167,150.877,98.9371,98.9082,0.0080013,0.110724,20.8815,58.3248,0.00264189,0.0,0.0
3362,840.25,42.7053,42.9553,145.456,98.8325,98.8929,0.00785135,0.109514,20.8842,58.2447,-0.00553676,0.0,0.0
3403,850.5,42.1238,43.2002,148.168,99.1814,99.2106,0.00833171,0.108584,20.8858,58.1046,-0.0026729,0.0,0.0
3444,860.75,40.8529,41.4622,149.769,99.6295,99.6413,0.00828276,0.109298,20.8846,58.0045,-0.00107015,0.0,0.0
3485,871,40.9835,41.4745,151.955,99.9445,99.9225,0.00827814,0.107757,20.886,57.9044,0.00199417,0.0,0.0
3526,881.25,40.9465,41.4242,149.004,100.044,100.019,0.00817845,0.10856,20.8858,57.8343,0.00225543,0.0,0.0
3567,891.5,40.2889,41.1756,151.215,99.8839,99.973,0.00844218,0.107378,20.888,57.7442,-0.00807728,0.0,0.0
3608,901.75,40.7928,41.7556,150.29,99.5952,99.6681,0.00858241,0.106589,20.8891,57.5941,-0.00662269,0.0,0.0
3649,912,40.1562,41.4384,149.923,99.29,99.3508,0.00833432,0.105336,20.891,57.504,-0.00554702,0.0,0.0
3690,922.25,40.4051,41.3726,148.337,99.5217,99.6545,0.00834974,0.105256,20.8903,57.3939,-0.0120737,0.0,0.0
3731,932.5,40.5083,41.2242,150.552,99.8488,99.8809,0.008604,0.104634,20.8908,57.3439,-0.00290945,0.0,0.0
3772,942.75,40.2284,41.271,150.008,99.9586,99.9518,0.00831828,0.104256,20.8903,57.2638,0.000617626,0.0,0.0
3813,953,40.052,40.6753,148.605,99.9756,100.003,0.00878699,0.104175,20.8887,57.1637,-0.00250117,0.0,0.0
3854,963.25,40.5869,40.6453,150.234,99.8524,99.8741,0.0087456,0.103456,20.8916,57.0536,-0.00196329,0.0,0.0
3895,973.5,40.1376,40.6665,149.827,99.5972,99.6124,0.00878435,0.102651,20.8935,56.9535,-0.00138117,0.0,0.0
3913,978,40.1237,40.9882,151.542,99.6804,99.6672,0.00883611,0.103001,20.8927,56.9335,0.0011985,0.0,0.0