Folder: fsri_materials_database/01_Data/Homasote/Cone (part 4)

File: Homasote_Cone_HF50Scan_230608_R2.csv
Names,Time,Stack TC,Smoke TC,Exh Press,Smoke Comp,Smoke Meas,CO Meter,CO2 Meter,O2 Meter,Sample Mass,Ext Coeff,Start Test,Flame Verif
Chan Gain,,500,500,1,1,1,1,1,1,1,1,1.0,1.0
Offset,,0,0,0.143883,0,0,0,0,0,0,0,0.0,0.0
Gain,,1,1,25.011,13.3119,13.9685,1,1,1,1.00094,1.03262,1.0,1.0
Units,sec,C,C,Pa,%,%,%,%,%,g,/m,,
Baseline,,39.1394,39.7372,153.534,100.53,100.323,0.000867863,0.0615899,20.9356,-445.918,0.0186609,,
34,8.25,36.8026,36.9773,150.165,100.525,97.0832,0.000945835,0.0777732,20.9146,109.583,0.315614,0.0,0.0
68,16.75,41.9919,39.3645,134.819,100.576,99.0406,0.000746116,0.0798918,20.9231,108.292,0.139331,0.0,0.0
102,25.25,48.4181,44.8777,133.523,100.59,96.6275,0.00264532,0.41044,20.6569,106.91,0.364013,0.0,0.0
136,33.75,51.3334,48.6323,141.256,100.558,97.0768,0.0041821,0.451618,20.4832,105.849,0.319175,0.0,0.0
170,42.25,53.2123,50.7146,142.282,100.527,97.2115,0.00403791,0.408988,20.5217,104.818,0.30376,0.0,0.0
204,50.75,53.7468,52.295,145.638,100.504,97.8679,0.00376193,0.369395,20.5632,103.898,0.240746,0.0,0.0
238,59.25,54.3836,53.3967,140.856,100.482,98.0981,0.00352677,0.335625,20.6115,103.007,0.217451,0.0,0.0
272,67.75,54.3352,53.7544,141.598,100.508,99.0394,0.00307867,0.30941,20.6458,102.246,0.133337,0.0,0.0
306,76.25,53.8304,54.5935,142.298,100.552,99.4081,0.00277433,0.29006,20.6725,101.495,0.103627,0.0,0.0
340,84.75,53.8033,54.2656,143.178,100.558,99.6131,0.00253891,0.276208,20.6884,100.705,0.0855127,0.0,0.0
374,93.25,53.5936,54.9359,142.987,100.498,99.8084,0.00234728,0.268288,20.6994,99.9739,0.0623583,0.0,0.0
408,101.75,53.2183,54.518,144.578,100.338,99.8872,0.0023194,0.259557,20.7099,99.2032,0.0407667,0.0,0.0
442,110.25,53.1649,55.3265,143.618,100.167,99.7734,0.0022493,0.250778,20.7223,98.5326,0.035641,0.0,0.0
476,118.75,53.2629,54.6233,145.468,100.06,99.8898,0.00212577,0.245766,20.7292,97.7919,0.0154151,0.0,0.0
510,127.25,53.0479,55.1327,147.938,100.005,99.9273,0.00198682,0.239207,20.7349,97.0412,0.00704836,0.0,0.0
544,135.75,52.8502,54.3812,145.451,100.048,100.057,0.00198124,0.234997,20.7412,96.4206,-0.000792069,0.0,0.0
578,144.25,52.6778,55.0667,143.887,100.129,99.9648,0.00211007,0.243653,20.7385,95.7299,0.0148265,0.0,0.0
612,152.75,52.1657,54.6578,148.147,100.209,100.095,0.00187421,0.23584,20.7355,95.1394,0.0102512,0.0,0.0
646,161.25,52.4181,54.0891,146.42,100.281,100.134,0.00182428,0.226843,20.7502,94.4687,0.0132395,0.0,0.0
680,169.75,52.9239,54.3055,145.067,100.363,100.344,0.00178856,0.223903,20.7546,93.8181,0.00173292,0.0,0.0
714,178.25,52.2477,54.2108,142.499,100.489,100.305,0.00178291,0.221387,20.7582,93.2076,0.0165921,0.0,0.0
748,186.75,52.1204,54.4717,145.969,100.556,100.463,0.00219308,0.223706,20.7558,92.577,0.0084002,0.0,0.0
782,195.25,51.9719,54.033,147.96,100.578,100.381,0.00199348,0.224397,20.7555,91.9464,0.0177971,0.0,0.0
816,203.75,51.8587,54.3129,140.674,100.573,100.64,0.00141242,0.224693,20.7567,91.3458,-0.00596085,0.0,0.0
850,212.25,52.2385,54.1928,144.851,100.547,100.463,0.00189248,0.224573,20.7559,90.7052,0.00756085,0.0,0.0
884,220.75,52.2471,54.3584,148.663,100.543,100.286,0.00167068,0.228573,20.7522,90.1147,0.0231947,0.0,0.0
918,229.25,52.3401,54.023,144.841,100.551,100.295,0.00182349,0.229045,20.7513,89.5141,0.0230449,0.0,0.0
952,237.75,52.8488,54.2793,142.754,100.545,100.377,0.00178776,0.233501,20.7471,88.8935,0.0151046,0.0,0.0
986,246.25,53.0385,54.331,140.36,100.566,100.183,0.00192682,0.238607,20.7406,88.2629,0.0345299,0.0,0.0
1020,254.75,53.8384,55.1242,146.609,100.566,100.151,0.00160571,0.243606,20.7314,87.6123,0.0374209,0.0,0.0
1054,263.25,53.7227,55.4973,146.048,100.543,99.9414,0.00179665,0.252039,20.7294,86.9717,0.0543601,0.0,0.0
1088,271.75,53.4368,54.9777,141.808,100.509,99.7662,0.00171494,0.268524,20.7146,86.241,0.0672149,0.0,0.0
1122,280.25,53.9125,55.5757,148.744,100.44,99.3459,0.00189165,0.272617,20.698,85.6004,0.0991951,0.0,0.0
1156,288.75,55.0495,56.4497,142.11,100.348,99.2141,0.00208548,0.27214,20.7002,84.9398,0.102892,0.0,0.0
1190,297.25,55.3219,56.2691,144.281,100.213,98.9635,0.00186664,0.27572,20.6968,84.1991,0.113622,0.0,0.0
1224,305.75,55.6411,56.7494,144.492,100.252,98.9076,0.00157841,0.277243,20.6956,83.5185,0.122259,0.0,0.0
1258,314.25,55.7277,56.9882,141.688,100.363,98.7772,0.0016326,0.279566,20.6933,82.8178,0.144228,0.0,0.0
1292,322.75,55.8715,57.4127,139.778,100.457,98.787,0.00190552,0.282573,20.6895,82.0971,0.151831,0.0,0.0
1326,331.25,56.1093,57.5586,141.982,100.677,98.7653,0.00162286,0.286511,20.6874,81.3764,0.17362,0.0,0.0
1360,339.75,56.1909,58.1457,146.633,100.853,98.9119,0.00173581,0.286474,20.6846,80.6658,0.176031,0.0,0.0
1394,348.25,57.1564,58.4748,139.261,101.006,99.2116,0.00220133,0.290019,20.6818,79.9551,0.162374,0.0,0.0
1428,356.75,57.1951,58.4499,140.989,101.101,99.0121,0.00213636,0.290712,20.678,79.2845,0.189092,0.0,0.0
1462,365.25,56.9646,58.7276,139.524,101.105,99.2137,0.00245624,0.292531,20.6782,78.5638,0.171064,0.0,0.0
1496,373.75,57.0808,58.6648,145.38,101.063,98.8058,0.001807,0.292235,20.6737,77.9132,0.204564,0.0,0.0
1530,382.25,57.3665,59.2,144.217,101.014,99.2086,0.0023349,0.290971,20.6739,77.1825,0.163375,0.0,0.0
1564,390.75,57.2837,58.7746,145.953,100.924,98.3974,0.00203955,0.288559,20.6761,76.4518,0.22962,0.0,0.0
1598,399.25,57.3852,59.2172,143.307,100.941,98.7555,0.00213038,0.289496,20.6762,75.7712,0.198283,0.0,0.0
1632,407.75,57.5799,59.5359,144.062,100.995,98.8544,0.00195392,0.290886,20.6726,75.0805,0.194064,0.0,0.0
1666,416.25,57.6978,59.5681,145.887,101,98.738,0.00214207,0.286836,20.6748,74.4199,0.205135,0.0,0.0
1700,424.75,57.6546,59.1983,146.727,101.032,99.0701,0.00217527,0.285922,20.6755,73.7893,0.177672,0.0,0.0
1734,433.25,57.6707,59.5466,140.883,101.043,98.5487,0.00232484,0.285429,20.6765,73.0686,0.226412,0.0,0.0
1768,441.75,58.1427,59.8662,144.494,101.087,99.397,0.00249739,0.282634,20.6824,72.4781,0.152743,0.0,0.0
1802,450.25,57.9135,59.5708,143.668,101.102,99.0927,0.00179849,0.281178,20.6827,71.8475,0.181833,0.0,0.0
1836,458.75,57.1357,59.8054,142.978,101.044,99.3727,0.00229213,0.27441,20.6903,71.2169,0.151098,0.0,0.0
1870,467.25,56.3833,58.8063,143.691,100.982,99.4102,0.00189162,0.264372,20.7048,70.6464,0.142069,0.0,0.0
1904,475.75,56.1731,58.6302,141.465,100.903,99.4443,0.00193593,0.254239,20.715,70.0858,0.131891,0.0,0.0
1938,484.25,55.8454,58.2901,144.067,100.894,99.6852,0.00199065,0.243191,20.7286,69.6554,0.109177,0.0,0.0
1972,492.75,54.9753,57.6832,148.389,100.916,100.01,0.00249909,0.230344,20.7423,69.145,0.0816387,0.0,0.0
2006,501.25,53.9317,56.443,146.772,100.951,100.381,0.00246455,0.209602,20.7651,69.0048,0.0512855,0.0,0.0
2040,509.75,52.3677,55.3039,146.059,101.014,100.897,0.00280619,0.187717,20.7884,68.7346,0.0105069,0.0,0.0
2074,518.25,50.9752,54.1396,156.402,101.036,100.927,0.00337482,0.166405,20.8068,68.5544,0.00975615,0.0,0.0
2108,526.75,50.1742,53.0709,148.275,101.051,100.996,0.004332,0.156243,20.8198,68.4043,0.00487184,0.0,0.0
2142,535.25,49.1227,52.1746,146.689,101.067,101.06,0.00514517,0.148283,20.829,68.2241,0.000633822,0.0,0.0
2176,543.75,48.5124,51.2497,147.663,101.06,100.929,0.00551264,0.143243,20.8377,68.104,0.0117525,0.0,0.0
2210,552.25,47.9018,50.4565,145.891,101.072,101.037,0.00643871,0.144622,20.8406,67.9739,0.00313196,0.0,0.0
2244,560.75,47.8171,49.7817,148.387,101.078,101.017,0.00672041,0.146986,20.8345,67.8337,0.00551287,0.0,0.0
2278,569.25,47.4123,49.2154,150.374,101.08,100.968,0.00691824,0.149487,20.8345,67.6636,0.00998159,0.0,0.0
2312,577.75,46.8008,49.0289,148.227,101.089,101.072,0.00691102,0.143458,20.8384,67.5435,0.00156666,0.0,0.0
2346,586.25,46.1068,48.4764,151.015,101.088,101.005,0.00688019,0.140246,20.8427,67.4333,0.00741952,0.0,0.0
2380,594.75,46.2464,47.8352,149.685,101.096,100.97,0.0068664,0.13988,20.8427,67.2832,0.0113589,0.0,0.0
2414,603.25,45.8772,47.8049,147.663,101.089,100.932,0.00671595,0.135963,20.8473,67.1731,0.0140309,0.0,0.0
2448,611.75,45.9372,47.2284,148.405,101.077,100.906,0.00669101,0.135064,20.8517,67.043,0.0153084,0.0,0.0
2482,620.25,45.3723,46.679,145.584,101.13,101.054,0.00657245,0.132815,20.8562,66.9129,0.00673546,0.0,0.0
2516,628.75,45.1075,46.3505,152.096,101.126,101.051,0.00702926,0.131807,20.8587,66.8028,0.00671172,0.0,0.0
2550,637.25,45.1649,46.3003,149.247,101.1,101.076,0.00660342,0.13045,20.8582,66.6826,0.0021302,0.0,0.0
2584,645.75,44.7338,46.0517,149.567,101.048,100.909,0.00668482,0.129647,20.8584,66.5525,0.0124567,0.0,0.0
2618,654.25,44.3595,45.8317,152.045,100.936,100.836,0.00679072,0.128552,20.8592,66.4424,0.00898489,0.0,0.0
2652,662.75,44.6476,45.6973,153.072,100.813,100.614,0.00675758,0.127852,20.8602,66.3423,0.0179048,0.0,0.0
2686,671.25,44.2953,45.49,151.025,100.624,100.463,0.00666904,0.126454,20.8632,66.2222,0.0145117,0.0,0.0
2720,679.75,43.9313,45.5042,151.699,100.376,100.383,0.00684156,0.126404,20.8631,66.1121,-0.000631166,0.0,0.0
2754,688.25,42.5198,43.6999,148.916,100.1,99.9026,0.00661297,0.125652,20.8649,66.022,0.0178951,0.0,0.0
2788,696.75,42.025,43.1518,151.239,99.8365,99.634,0.00698611,0.126191,20.8663,65.952,0.0183887,0.0,0.0
2822,705.25,42.3768,43.1178,154.238,99.6309,99.4725,0.00743311,0.125697,20.8656,65.8218,0.014419,0.0,0.0
2856,713.75,41.8594,43.0578,149.231,99.5777,99.4452,0.00713259,0.124909,20.8663,65.7217,0.0120641,0.0,0.0
2890,722.25,42.0566,42.8875,148.908,99.4847,99.2845,0.00748687,0.126079,20.8644,65.6116,0.0182475,0.0,0.0
2924,730.75,41.5017,42.6618,149,99.4892,99.2384,0.00720925,0.12731,20.8665,65.4915,0.0228565,0.0,0.0
2958,739.25,41.4581,42.4029,149.904,99.5424,99.316,0.00716551,0.122611,20.8694,65.4815,0.0206212,0.0,0.0
2992,747.75,41.9505,42.0283,148.897,99.5712,99.3301,0.00790514,0.124929,20.8683,65.4315,0.0219624,0.0,0.0
3026,756.25,41.1951,41.8023,144.185,99.6565,99.4452,0.0075991,0.121864,20.8706,65.2313,0.0192303,0.0,0.0
3060,764.75,41.1522,41.8088,148.953,99.7085,99.3454,0.00755279,0.120824,20.8712,65.1812,0.0330464,0.0,0.0
3094,773.25,40.5831,41.7021,150.914,99.7735,99.5454,0.00753117,0.120344,20.8736,65.0711,0.0207387,0.0,0.0
3128,781.75,40.823,41.9927,153.775,99.7337,99.4414,0.00756923,0.117851,20.8758,64.981,0.0265932,0.0,0.0
3162,790.25,40.8628,41.4418,150.791,99.6931,99.4507,0.00804889,0.118338,20.8758,64.891,0.0220486,0.0,0.0
3196,798.75,40.4786,41.5366,146.012,99.6338,99.3177,0.0079416,0.117817,20.875,64.8109,0.0287795,0.0,0.0
3226,806.25,40.7001,41.7039,150.913,99.583,99.2572,0.00758339,0.116926,20.8747,64.6607,0.0296837,0.0,0.0

File: Homasote_Cone_HF50Scan_230608_R3.csv
Names,Time,Stack TC,Smoke TC,Exh Press,Smoke Comp,Smoke Meas,CO Meter,CO2 Meter,O2 Meter,Sample Mass,Ext Coeff,Start Test,Flame Verif
Chan Gain,,500,500,1,1,1,1,1,1,1,1,1.0,1.0
Offset,,0,0,0.143883,0,0,0,0,0,0,0,0.0,0.0
Gain,,1,1,25.011,13.2368,13.8891,1,1,1,1.00094,1.03262,1.0,1.0
Units,sec,C,C,Pa,%,%,%,%,%,g,/m,,
Baseline,,39.6155,40.2136,153.415,99.0402,98.8045,0.000755739,0.0615723,20.9423,-446.002,0.0215925,,
33,8,36.5778,37.0466,153.889,99.6177,97.8188,0.000853739,0.0839934,20.9066,108.882,0.165072,0.0,0.0
66,16.25,40.2977,38.4387,134.191,99.7821,98.9984,0.0010553,0.0814292,20.9201,107.801,0.0714305,0.0,0.0
99,24.5,47.2188,44.0625,135.742,99.9142,97.1431,0.00223175,0.381583,20.7143,106.56,0.254773,0.0,0.0
132,32.75,50.9052,48.0203,137.115,100.034,96.476,0.0035441,0.461681,20.4783,105.419,0.328066,0.0,0.0
165,41,52.9518,50.5685,138.221,100.133,96.7773,0.00374858,0.432026,20.4935,104.338,0.308736,0.0,0.0
198,49.25,54.8322,52.1271,143.325,100.167,96.4242,0.00404699,0.39384,20.5406,103.427,0.344949,0.0,0.0
231,57.5,55.2124,54.1959,143.932,100.13,97.7208,0.00391857,0.363409,20.5793,102.496,0.220599,0.0,0.0
264,65.75,55.5266,55.0171,143.252,100.047,97.9497,0.00334021,0.342644,20.608,101.645,0.191876,0.0,0.0
297,74,55.8397,55.8279,142.584,99.8342,98.7818,0.00316192,0.320062,20.6301,100.885,0.0959989,0.0,0.0
330,82.25,55.2996,55.8282,139.404,99.5777,98.8699,0.002808,0.301567,20.6547,100.154,0.0646143,0.0,0.0
363,90.5,55.3983,56.3384,143.6875,99.3576,98.6639,0.00227755,0.289375,20.6729,99.3834,0.0634585,0.0,0.0
396,98.75,55.5457,56.6189,139.818,99.6327,99.1531,0.0021263,0.282638,20.6807,98.6727,0.0437084,0.0,0.0
429,107,54.5631,56.4422,148.662,99.8484,99.4773,0.00211631,0.269631,20.6923,98.0821,0.0337241,0.0,0.0
462,115.25,54.8085,56.2848,147.645,99.9688,99.6609,0.00221064,0.256463,20.7093,97.3615,0.0279421,0.0,0.0
495,123.5,54.6537,55.8667,144.467,99.9974,99.7872,0.00262919,0.247611,20.72,96.6308,0.0190676,0.0,0.0
528,131.75,54.0067,56.4934,143.078,100.016,99.8808,0.00220353,0.238669,20.7326,95.9902,0.0122874,0.0,0.0
561,140,53.7703,56.1582,145.246,100.008,99.8787,0.0023124,0.235308,20.7376,95.3596,0.0117115,0.0,0.0
594,148.25,53.5801,56.038,144.542,99.9987,99.952,0.00187809,0.231166,20.745,94.6889,0.0042232,0.0,0.0
627,156.5,53.4463,55.7474,145.802,100.014,99.8071,0.00234737,0.22614,20.7473,94.0684,0.0187228,0.0,0.0
660,164.75,53.0187,55.5102,151.453,99.9873,99.8787,0.00212168,0.224619,20.7543,93.4178,0.00984568,0.0,0.0
693,173,52.6765,55.0768,144.185,99.9663,99.794,0.00227727,0.226636,20.7531,92.8572,0.0156339,0.0,0.0
726,181.25,52.6962,54.8401,146.294,99.888,99.7435,0.00213798,0.22141,20.7582,92.2567,0.0131101,0.0,0.0
759,189.5,52.9532,55.1131,145.59,99.7458,99.5418,0.00191131,0.219328,20.7615,91.6461,0.0185471,0.0,0.0
792,197.75,52.4144,54.5544,144.207,99.6492,99.4972,0.00210467,0.219063,20.7634,91.0455,0.013826,0.0,0.0
825,206,52.3165,54.1144,149.077,99.5192,99.3756,0.00200344,0.216281,20.7641,90.485,0.0130767,0.0,0.0
858,214.25,51.9204,54.2183,145.041,99.318,99.2001,0.00150065,0.217255,20.7637,89.8744,0.0107571,0.0,0.0
891,222.5,52.1935,54.4539,143.535,99.3503,99.2357,0.00192883,0.220042,20.762,89.2939,0.0104529,0.0,0.0
924,230.75,52.2977,54.1386,141.721,99.3653,99.2849,0.0021835,0.2212,20.7592,88.7033,0.00732889,0.0,0.0
957,239,52.3021,54.3032,146.031,99.3786,99.1743,0.00175985,0.223718,20.7623,88.0327,0.018643,0.0,0.0
990,247.25,52.3136,54.2434,140.896,99.3879,99.1488,0.00186787,0.226677,20.7568,87.4722,0.0218127,0.0,0.0
1023,255.5,52.803,54.3039,142.713,99.3737,99.0552,0.00193869,0.230955,20.7528,86.8916,0.0290852,0.0,0.0
1056,263.75,52.81,54.7185,147.661,99.3689,99.0085,0.00184548,0.238228,20.7433,86.3311,0.0329076,0.0,0.0
1089,272,53.3097,54.4485,143.903,99.385,98.881,0.00188308,0.24314,20.735,85.7205,0.0460604,0.0,0.0
1122,280.25,53.3344,54.8984,141.646,99.3499,98.5876,0.00195323,0.249166,20.7265,85.0799,0.0697666,0.0,0.0
1155,288.5,53.9424,55.362,144.887,99.3725,98.5241,0.00184518,0.257412,20.722,84.4393,0.077672,0.0,0.0
1188,296.75,54.4759,55.1279,145.492,99.3725,98.2816,0.00194356,0.262232,20.715,83.8288,0.0999897,0.0,0.0
1221,305,54.5649,56.0609,141.99,99.3604,97.968,0.00212889,0.267508,20.7092,83.1281,0.127838,0.0,0.0
1254,313.25,54.55,56.4175,142.119,99.3604,97.7255,0.00221898,0.273338,20.7024,82.4675,0.150284,0.0,0.0
1287,321.5,55.577,57.0275,140.915,99.3677,97.2105,0.0018609,0.279302,20.6937,81.8169,0.198805,0.0,0.0
1320,329.75,56.0497,57.3312,143.046,99.3616,97.5068,0.00218362,0.286885,20.6856,81.1362,0.170689,0.0,0.0
1353,338,56.2945,57.975,144.045,99.3774,96.9863,0.00220999,0.292462,20.6789,80.3955,0.220607,0.0,0.0
1386,346.25,57.099,58.3293,142.378,99.3988,96.9062,0.00227078,0.301792,20.6711,79.6749,0.230043,0.0,0.0
1419,354.5,57.8857,59.0119,143.234,99.4056,96.8176,0.00228827,0.307081,20.6573,78.9241,0.238953,0.0,0.0
1452,362.75,57.5643,58.9803,140.979,99.4016,96.6311,0.00220524,0.306103,20.6547,78.1834,0.25605,0.0,0.0
1485,371,58.2596,58.8833,141.01,99.3919,96.6133,0.00278079,0.305189,20.6573,77.4728,0.256835,0.0,0.0
1518,379.25,58.2232,60.089,141.464,99.3988,96.7557,0.00257401,0.306039,20.6532,76.7921,0.244118,0.0,0.0
1551,387.5,58.3665,60.0845,138.82,99.3871,96.782,0.00238542,0.307878,20.6551,76.0214,0.240591,0.0,0.0
1584,395.75,59.0962,60.0931,144.073,99.3697,96.8485,0.00254161,0.308382,20.6463,75.3608,0.232782,0.0,0.0
1617,404,59.0694,60.1874,144.02,99.4125,97.408,0.0024936,0.310575,20.6448,74.6501,0.184506,0.0,0.0
1650,412.25,59.0756,60.8623,139.586,99.5434,96.9388,0.00251329,0.311356,20.6433,73.9495,0.240161,0.0,0.0
1683,420.5,59.1894,60.6408,142.265,99.629,97.1944,0.002297,0.308572,20.6454,73.2788,0.2241,0.0,0.0
1716,428.75,59.3217,61.2645,143.883,99.728,97.1168,0.00225562,0.300828,20.6518,72.5982,0.240325,0.0,0.0
1749,437,59.1039,61.3523,144.623,99.81,97.124,0.0026085,0.295798,20.6604,71.9876,0.247098,0.0,0.0
1782,445.25,59.216,60.9184,139.818,99.9344,97.4076,0.00233285,0.291225,20.6688,71.3671,0.231975,0.0,0.0
1815,453.5,58.8329,60.8411,138.982,100.025,97.6518,0.00221935,0.283172,20.6758,70.7765,0.217534,0.0,0.0
1848,461.75,58.4492,60.3576,146.454,100.033,97.8637,0.002152,0.271582,20.6904,70.226,0.198556,0.0,0.0
1881,470,57.476,59.9718,144.143,99.9809,98.1731,0.00213933,0.259715,20.705,69.7555,0.165279,0.0,0.0
1914,478.25,56.1935,58.7594,145.118,99.8496,98.249,0.0020234,0.243775,20.7242,69.2951,0.146379,0.0,0.0
1947,486.5,56.088,58.2357,150.67,99.6246,98.4647,0.0020674,0.229228,20.7412,68.9748,0.106076,0.0,0.0
1980,494.75,54.8195,57.6927,149.845,99.7329,99.106,0.00239617,0.210767,20.7558,68.7045,0.0571106,0.0,0.0
2013,503,53.6849,55.9207,148.475,99.8815,99.646,0.00280952,0.188562,20.7797,68.5044,0.0213807,0.0,0.0
2046,511.25,52.4927,55.0358,152.303,99.9914,99.699,0.00330779,0.171235,20.8,68.3542,0.0265253,0.0,0.0
2079,519.5,51.1143,54.1048,149.013,99.9837,99.8317,0.00425965,0.164344,20.8104,68.2441,0.013784,0.0,0.0
2112,527.75,49.8156,52.8135,153.304,99.9348,99.7219,0.00482355,0.156921,20.8157,68.114,0.0193208,0.0,0.0
2145,536,49.0471,52.2178,149.115,99.9494,99.7558,0.00558488,0.147069,20.8311,67.9438,0.0175589,0.0,0.0
2178,544.25,48.3679,51.0098,150.46,99.955,99.7677,0.00663939,0.142284,20.8361,67.7637,0.0169942,0.0,0.0
2211,552.5,47.7388,50.2855,154.405,99.8956,99.7177,0.00677614,0.13984,20.8429,67.6736,0.0161535,0.0,0.0
2244,560.75,47.5259,49.9154,148.337,99.8201,99.5918,0.00669318,0.140253,20.8433,67.4834,0.0207441,0.0,0.0
2277,569,47.5702,48.7084,151.586,99.7288,99.5142,0.00691057,0.138705,20.8448,67.3933,0.0195137,0.0,0.0
2310,577.25,47.204,48.347,150.568,99.6133,99.4201,0.00699594,0.137658,20.8472,67.2732,0.0175826,0.0,0.0
2343,585.5,46.7343,47.9671,149.453,99.7821,99.6257,0.00676889,0.136316,20.8491,67.1931,0.0142141,0.0,0.0
2376,593.75,46.1496,47.4277,149.409,99.9316,99.671,0.00682784,0.136497,20.8495,67.013,0.0236502,0.0,0.0
2409,602,46.1197,47.3411,150.984,99.9772,99.6621,0.00645985,0.134711,20.8504,66.8528,0.0285955,0.0,0.0
2442,610.25,45.7656,46.9458,150.414,99.9869,99.7723,0.00683456,0.134349,20.8517,66.7427,0.019463,0.0,0.0
2475,618.5,45.8234,47.2003,153.751,99.9433,99.9092,0.00640354,0.13248,20.8534,66.6326,0.00308879,0.0,0.0
2508,626.75,45.3332,46.0453,149.246,99.8872,99.7537,0.00669233,0.133325,20.8525,66.5826,0.0121116,0.0,0.0
2541,635,45.186,46.1624,148.54,99.8565,99.6914,0.00684927,0.131768,20.8564,66.3924,0.0149871,0.0,0.0
2574,643.25,45.189,45.6101,151.558,99.8431,99.6715,0.00674552,0.143172,20.8512,66.2923,0.0155886,0.0,0.0
2607,651.5,44.679,46.0096,148.491,99.8136,99.6829,0.00667739,0.136835,20.8459,66.1822,0.0118733,0.0,0.0
2640,659.75,44.1191,45.4385,150.102,99.8003,99.6214,0.00692012,0.133276,20.8521,66.0621,0.0162494,0.0,0.0
2673,668,44.4061,45.3623,152.403,99.7486,99.5562,0.00687384,0.131135,20.8567,65.952,0.0174921,0.0,0.0
2706,676.25,42.4253,43.1174,150.571,99.6993,99.5507,0.00698185,0.128698,20.8608,65.8719,0.0135177,0.0,0.0
2739,684.5,42.6249,43.2602,150.647,99.6504,99.5125,0.00694774,0.128489,20.8618,65.7718,0.0125472,0.0,0.0
2772,692.75,42.0072,43.3812,147.963,99.5482,99.4036,0.00709161,0.126901,20.8632,65.6517,0.0131737,0.0,0.0
2805,701,42.0549,42.9177,150.461,99.5054,99.3896,0.00695147,0.125989,20.866,65.5115,0.0105511,0.0,0.0
2838,709.25,42.065,42.5436,152.515,99.446,99.2612,0.00732589,0.126305,20.8636,65.4615,0.0168562,0.0,0.0
2871,717.5,42.1369,42.762,152.027,99.4081,99.2616,0.00715041,0.124677,20.8654,65.3614,0.0133581,0.0,0.0
2904,725.75,41.9944,42.4282,147.218,99.425,99.2484,0.00765002,0.124323,20.8661,65.2613,0.0161028,0.0,0.0
2937,734,41.4409,41.824,148.809,99.4323,99.3366,0.00786728,0.124021,20.8652,65.1812,0.00872276,0.0,0.0
2970,742.25,41.2389,42.1742,149.423,99.4469,99.2811,0.00754411,0.12295,20.8666,65.1012,0.0151122,0.0,0.0
3003,750.5,41.6455,42.7808,150.371,99.5184,99.2802,0.00770086,0.121043,20.8681,64.981,0.0217007,0.0,0.0
3036,758.75,42.0354,42.3735,147.5,99.5688,99.3548,0.00763071,0.120139,20.8702,64.901,0.019491,0.0,0.0
3069,767,41.8024,41.9355,150.796,99.6751,99.4748,0.00782022,0.119763,20.8702,64.8309,0.0182206,0.0,0.0
3102,775.25,41.1982,42.2502,153.306,99.7842,99.621,0.0077296,0.119011,20.8707,64.6908,0.0148211,0.0,0.0
3135,783.5,41.0527,42.2482,152.122,99.9223,99.7698,0.00821759,0.118737,20.8708,64.6107,0.0138368,0.0,0.0
3154,788.25,41.0277,42.0199,147.692,99.9954,99.8211,0.00852441,0.118895,20.8702,64.5707,0.0158064,0.0,0.0

File: Homasote_Cone_HF75Scalar_230608_R1.csv
LABORATORY,FSRI
TEST IDENT,Homasote_HF75_R1
OPERATOR,Marino
MATERIAL,Homasote
ORIENTATION,Horizontal
HEAT FLUX,75
SURF AREA,0.01
C FACTOR,0.0405875
SPEC HOLDER DIFF,-566
SPECIMEN MASS,59.48
SCAN TIME,0.25
O2 DELAY TIME,11
CO DELAY TIME,11
CO2 DELAY TIME,8
FLOW FACTOR,1
SCAN COUNT,2676
TIME TO IGN,4.75
END OF TEST SCAN,2196
END OF TEST TIME,549
TEST STATUS,1
PRE TEST CMT,Dimensions: 102.15 x 102.40 x 12.52 mm
POST TEST CMT,"Sample swelled as it entered the decay stage, reference experiment photos. The sample shrank horizontally, reducing exposed surface area, see post test picture."

File: Homasote_Cone_HF75Scalar_230608_R2.csv
LABORATORY,FSRI
TEST IDENT,Homasote_HF75_R2
OPERATOR,Marino
MATERIAL,Homasote
ORIENTATION,Horizontal
HEAT FLUX,75
SURF AREA,0.01
C FACTOR,0.0405875
SPEC HOLDER DIFF,-566
SPECIMEN MASS,59.67
SCAN TIME,0.25
O2 DELAY TIME,11
CO DELAY TIME,11
CO2 DELAY TIME,8
FLOW FACTOR,1
SCAN COUNT,2481
TIME TO IGN,3.5
END OF TEST SCAN,2001
END OF TEST TIME,500.25
TEST STATUS,1
PRE TEST CMT,Dimensions: 102.10 x 102.01 x 12.59 mm
POST TEST CMT,"Sample swelled as it entered the decay stage, reference experiment photos. The sample shrank horizontally, reducing exposed surface area, see post test picture. Sample corner lifted off of insulation, referance photos."

File: Homasote_Cone_HF75Scalar_230608_R3.csv
LABORATORY,FSRI
TEST IDENT,Homasote_HF75_R3
OPERATOR,Marino
MATERIAL,Homasote
ORIENTATION,Horizontal
HEAT FLUX,75
SURF AREA,0.01
C FACTOR,0.0405875
SPEC HOLDER DIFF,-566
SPECIMEN MASS,57.82
SCAN TIME,0.25
O2 DELAY TIME,11
CO DELAY TIME,11
CO2 DELAY TIME,8
FLOW FACTOR,1
SCAN COUNT,2711
TIME TO IGN,3.75
END OF TEST SCAN,2231
END OF TEST TIME,557.75
TEST STATUS,1
PRE TEST CMT,Dimensions: 101.97 x 102.16 x 12.31 mm
POST TEST CMT,"Sample swelled as it entered the decay stage, reference experiment photos. The sample shrank horizontally, reducing exposed surface area, see post test picture."