Folder: fsri_materials_database/01_Data/HIPS/STA/N2/10K_min

Note: README.md
# Materials and Products Database
### Repository of materials and products properties and fire test data to improve fire modeling and fire investigation.

This project was supported in part by Award No. 2019-DU-BX-0018, awarded by the National Institute of Justice, Office of Justice Programs, U.S. Department of Justice. The opinions, findings, and conclusions or recommendations expressed in this publication / program / exhibition are those of the author(s) and do not necessarily reflect those of the Department of Justice.

***
***

__Cite this database:__ "McKinnon, M., Weinschenk, C., Dow, N., DiDomizio, M., and Madrzykowski, D. Materials and Products Database (Version 1.0.0), Fire Safety Research Institute, UL Research Institutes. Columbia, MD 21045, 2023."

__Cite the Technical Reference Guide:__ "McKinnon, M., Weinschenk, C., and Madrzykowski, D. Materials and Products Database - Technical Reference Guide, Fire Safety Research Institute, UL Research Institutes. Columbia, MD 21045, 2023."

__Cite the User Guide:__ "McKinnon, M., and Weinschenk, C. Materials and Products Database - User Guide, Fire Safety Research Institute, UL Research Institutes. Columbia, MD 21045, 2023."

***
***

## Database Structure

## 01_Data/
Raw data generated from each apparatus are included here in plain-text format. The data is organized first by material, next by the short name of test apparatus used, and where applicable additional filtering by test settings.

### Test Apparatus and Data File Structure
- __Cone Calorimeter__ (Cone)
    + Data file structure includes the material, the short name for the apparatus, heat flux setting and scan/scalar, date of test, and replicate number. Scan is for the raw output data and scalar is for the initial conditions and high-level test parameters. 
        * Example: __MDF_Cone_HF25scalar_210323_R1__ stands for the first replicate of scalar data generated from a medium density fiber board test in cone calorimeter exposed to 25 kW/m<sup>2</sup> on March 23, 2021.
    + A _Cone_Notes.csv_ is generated for each material from the __plot_Cone_data.py__ script. For materials whose experiments deviated from typical behavior relevant pictures are included in the respective material directory.
- __Fourier Transform Infrared Spectrometer__ (FTIR)
    + The FTIR directory contains subdirectories for the Attenuated Total Reflectance method (ATR) and the Integrating Sphere (IS)
    + Data file structure for the ATR experiment files includes the material, the abbreviated name for the apparatus, date of test, and replicate number. 
        * Example: __MDF_ATR_210323_R5__ stands for the fifth replicate of data collected with the ATR accessory conducted on June 8, 2021.
    + Data file structure for the IS experiment files includes the material, the abbreviated name for the apparatus, the measurand, whether the test is a sample measurement or standard reference, date of test, and replicate number.
        * Example: __OSB_IS_REFLECT_MEAS_2

File: HIPS_STA_N2_10KData_211020_R1.csv
##Temp./Â°C,Time/min,Mass loss(subtr.2)/mg,DSC(subtr.2)/(mW/mg),Sensit./(uV/mW)
49.966,10.01,-0.00789,-0.00808403,1.03584
52.566,12.36571,-0.00874772,0.0469341,1.0357
55.166,13.0632,-0.008473316,0.07256034,1.03553
57.766,13.6197,-0.007911866,0.0874543,1.03533
60.366,14.1069,-0.00832793,0.10158,1.03511
62.966,14.5478,-0.0071895,0.1151,1.03485
65.566,14.95845,-0.0088858,0.12605,1.03457
68.166,15.3438,-0.00653702,0.13806,1.03426
70.766,15.709,-0.00795476,0.14761,1.03392
73.366,16.05855,-0.007951866,0.15485,1.03355
75.966,16.39378,-0.008658019,0.16603,1.03316
78.566,16.71904,-0.008132094,0.1728,1.03273
81.166,17.03366,-0.0074945,0.17354,1.03228
83.766,17.33994,-0.007785657,0.17135,1.0318
86.366,17.63917,-0.00985051,0.17251,1.03129
88.966,17.93095,-0.00909998,0.18273,1.03076
91.566,18.21742,-0.009208232,0.18962,1.0302
94.166,18.49889,-0.00942922,0.19919,1.02961
96.766,18.7748,-0.008766246,0.21187,1.029
99.366,19.0478,-0.009507521,0.22468,1.02835
101.966,19.31638,-0.01096117,0.2398,1.02769
104.566,19.58311,-0.01094923,0.24653,1.02699
107.166,19.8482,-0.0082962,0.2511,1.02628
109.766,20.1101,-0.00976001,0.25132,1.02553
112.366,20.3699,-0.01141573,0.25711,1.02476
114.966,20.62837,-0.009692143,0.25837,1.02397
117.566,20.8849,-0.00972454,0.26087,1.02314
120.166,21.139,-0.00997987,0.26346,1.0223
122.766,21.39205,-0.009941474,0.26465,1.02143
125.366,21.6428,-0.009974027,0.26826,1.02053
127.966,21.8918,-0.009979132,0.27244,1.01962
130.566,22.1391,-0.01000791,0.27534,1.01867
133.166,22.3848,-0.01157562,0.27655,1.01771
135.766,22.62934,-0.009057396,0.2802,1.01672
138.366,22.8698,-0.01009012,0.2825,1.0157
140.966,23.11245,-0.01141377,0.28393,1.01466
143.566,23.3541,-0.008922587,0.28616,1.0136
146.166,23.5931,-0.01074765,0.29026,1.01252
148.766,23.8321,-0.01139806,0.29301,1.01142
151.366,24.06971,-0.01162004,0.29489,1.01029
153.966,24.3073,-0.01048691,0.29496,1.00914
156.566,24.54372,-0.01163099,0.29776,1.00797
159.166,24.78003,-0.01196149,0.30128,1.00677
161.766,25.01681,-0.01247408,0.3043,1.00556
164.366,25.25271,-0.01260751,0.30485,1.00432
166.966,25.48876,-0.01129839,0.30817,1.00306
169.566,25.724,-0.01129011,0.30766,1.00178
172.166,25.95906,-0.01404001,0.30958,1.00049
174.766,26.19312,-0.01141183,0.30969,0.99917
177.366,26.42711,-0.01272493,0.31337,0.99783
179.966,26.661,-0.01404693,0.31382,0.99647
182.566,26.8936,-0.01271332,0.31658,0.99509
185.166,27.12643,-0.01404498,0.31677,0.99369
187.766,27.35857,-0.01661761,0.31783,0.99227
190.366,27.59102,-0.01174483,0.3204,0.99083
192.966,27.8229,-0.01305181,0.3235,0.98938
195.566,28.05472,-0.01573019,0.32462,0.9879
198.166,28.2861,-0.01569145,0.32648,0.98641
200.766,28.51721,-0.01639609,0.33078,0.9849
203.366,28.74935,-0.01567919,0.3328,0.98337
205.966,28.98088,-0.0182983,0.3327,0.98182
208.566,29.21213,-0.01701076,0.3376,0.98026
211.166,29.44319,-0.01570052,0.33906,0.97868
213.766,29.6749,-0.01930999,0.33589,0.97708
216.366,29.90584,-0.01799001,0.34148,0.97546
218.966,30.1375,-0.02039028,0.34412,0.97383
221.566,30.36921,-0.01870383,0.34331,0.97218
224.166,30.6005,-0.020206,0.3459,0.97052
226.766,30.8325,-0.02149001,0.34659,0.96884
229.366,31.06424,-0.02276338,0.35011,0.96714
231.966,31.2959,-0.02147626,0.34972,0.96543
234.566,31.5278,-0.02402178,0.35071,0.96371
237.166,31.76,-0.02500996,0.35129,0.96196
239.766,31.99196,-0.02238123,0.35345,0.96021
242.366,32.22402,-0.02405254,0.35633,0.95844
244.966,32.45613,-0.02688,0.35863,0.95665
247.566,32.68825,-0.02786,0.35683,0.95486
250.166,32.92092,-0.02819002,0.35908,0.95304
252.766,33.15341,-0.02850963,0.36012,0.95122
255.366,33.38581,-0.03082,0.3599,0.94938
257.966,33.61871,-0.03270398,0.36368,0.94753
260.566,33.85099,-0.03487994,0.36362,0.94566
263.166,34.08359,-0.03499187,0.36628,0.94379
265.766,34.31641,-0.0363,0.36575,0.9419
268.366,34.54918,-0.03894289,0.36543,0.94
270.966,34.78184,-0.04037002,0.36441,0.93808
273.566,35.0158,-0.04299002,0.36306,0.93616
276.166,35.24933,-0.04430758,0.36315,0.93422
278.766,35.48307,-0.04425517,0.36389,0.93227
281.366,35.7166,-0.04695155,0.36625,0.93032
283.966,35.9503,-0.0509,0.36617,0.92835
286.566,36.18432,-0.05383433,0.365,0.92637
289.166,36.41861,-0.05638177,0.36425,0.92438
291.766,36.65341,-0.05772654,0.36584,0.92238
294.366,36.88818,-0.06166153,0.36721,0.92037
296.966,37.12372,-0.06428037,0.36592,0.91835
299.566,37.3588,-0.0655979,0.36787,0.91632
302.166,37.5944,-0.06951017,0.37271,0.91428
304.766,37.82977,-0.07175937,0.37275,0.91224
307.366,38.06645,-0.07620919,0.37594,0.91018
309.966,38.30153,-0.078865,0.37568,0.90812
312.566,38.53852,-0.08011549,0.37394,0.90605
315.166,38.775,-0.08313989,0.37424,0.90397
317.766,39.0118,-0.08807883,0.36937,0.90188
320.366,39.24865,-0.09070923,0.36869,0.89979
322.966,39.48646,-0.09201303,0.36925,0.89768
325.566,39.72593,-0.09466197,0.35984,0.89557
328.166,39.96409,-0.09720492,0.35571,0.89346
330.766,40.2014,-0.1031,0.35138,0.89134
333.366,40.4396,-0.10836,0.34674,0.88921
335.966,40.6781,-0.10987,0.34146,0.88707
338.566,40.9179,-0.11256,0.33714,0.88493
341.166,41.1562,-0.1165,0.33381,0.88278
343.766,41.39477,-0.11845,0.32409,0.88063
346.366,41.63452,-0.1215,0.31757,0.87847
348.966,41.87395,-0.1257,0.31171,0.87631
351.566,42.11352,-0.12833,0.30817,0.87414
354.166,42.35414,-0.13173,0.30243,0.87197
356.766,42.59434,-0.13623,0.29683,0.86979
359.366,42.835,-0.14053,0.28861,0.86761
361.966,43.075,-0.14481,0.28557,0.86542
364.566,43.31599,-0.1472,0.27696,0.86324
367.166,43.55735,-0.15092,0.27664,0.86104
369.766,43.79865,-0.1574,0.27741,0.85885
372.366,44.0405,-0.16134,0.27998,0.85665
374.966,44.2821,-0.16791,0.28653,0.85444
377.566,44.52375,-0.17447,0.29269,0.85224
380.166,44.7661,-0.18154,0.30793,0.85003
382.766,45.00869,-0.18948,0.32548,0.84782
385.366,45.2513,-0.20031,0.35479,0.84561
387.966,45.49403,-0.21021,0.38601,0.84339
390.566,45.7369,-0.22155,0.42451,0.84118
393.166,45.98037,-0.23345,0.47344,0.83896
395.766,46.22473,-0.25103,0.53232,0.83674
398.366,46.4686,-0.26854,0.60476,0.83452
400.966,46.71353,-0.29282,0.69177,0.83229
403.566,46.9584,-0.32088,0.80424,0.83007
406.166,47.20394,-0.3591,0.94182,0.82785
408.766,47.45002,-0.40255,1.12107,0.82562
411.366,47.69611,-0.46111,1.34088,0.8234
413.966,47.94455,-0.53081,1.62109,0.82117
416.566,48.19193,-0.62402,1.95351,0.81895
419.166,48.4394,-0.74195,2.35428,0.81673
421.766,48.68763,-0.8839,2.78582,0.8145
424.366,48.93723,-1.05984,3.21074,0.81228
426.966,49.18676,-1.25811,3.61912,0.81006
429.566,49.4369,-1.49291,3.99244,0.80783
432.166,49.6869,-1.75257,4.21036,0.80561
434.766,49.93561,-2.02161,4.2288,0.80339
437.366,50.18407,-2.28658,4.10359,0.80118
439.966,50.43076,-2.54258,3.81784,0.79896
442.566,50.67739,-2.77292,3.43016,0.79675
445.166,50.92303,-2.97734,2.98508,0.79453
447.766,51.16815,-3.15717,2.51818,0.79232
450.366,51.413,-3.30612,2.06386,0.79011
452.966,51.65845,-3.43035,1.64918,0.78791
455.566,51.90509,-3.53097,1.28904,0.78571
458.166,52.152,-3.61067,1.00996,0.7835
460.766,52.39878,-3.67611,0.80259,0.78131
463.366,52.6455,-3.73087,0.65721,0.77911
465.966,52.8937,-3.77791,0.53911,0.77692
468.566,53.1414,-3.81713,0.44468,0.77473
471.166,53.39,-3.85195,0.35938,0.77255
473.766,53.63918,-3.88136,0.27389,0.77037
476.366,53.8894,-3.90507,0.19302,0.76819
478.966,54.1395,-3.92266,0.11898,0.76602
481.566,54.3901,-3.93478,0.06209227,0.76385
484.166,54.64085,-3.94209,0.008241724,0.76168
486.766,54.89004,-3.94848,-0.02866726,0.75952
489.366,55.1402,-3.95243,-0.05477532,0.75737
491.966,55.39043,-3.95374,-0.07007131,0.75521
494.566,55.64232,-3.95487,-0.07528609,0.75307
497.166,55.89394,-3.95311,-0.08104991,0.75093
499.766,56.145,-3.95407,-0.08157522,0.74879
502.366,56.3967,-3.95369,-0.0918634,0.74666
504.966,56.64825,-3.95177,-0.09379376,0.74453
507.566,56.8999,-3.95441,-0.10126,0.74241
510.166,57.152,-3.95183,-0.10415,0.74029
512.766,57.40387,-3.95276,-0.1067,0.73818
515.366,57.65693,-3.95388,-0.1008,0.73608
517.966,57.91032,-3.95308,-0.09844933,0.73398
520.566,58.16386,-3.95321,-0.09934647,0.73189
523.166,58.4171,-3.95243,-0.09807241,0.7298
525.766,58.6688,-3.95243,-0.09981772,0.72772
528.366,58.9229,-3.95245,-0.10317,0.72565
530.966,59.1759,-3.95243,-0.10245,0.72358
533.566,59.42961,-3.95112,-0.1068,0.72152
536.166,59.68356,-3.95371,-0.10315,0.71947
538.766,59.9387,-3.95241,-0.09975009,0.71742
541.366,60.19429,-3.95243,-0.10518,0.71538
543.966,60.4498,-3.95243,-0.10591,0.71334
546.566,60.7042,-3.95209,-0.10805,0.71132
549.166,60.9583,-3.95342,-0.10874,0.7093
551.766,61.21246,-3.95375,-0.11086,0.70728
554.366,61.4672,-3.95473,-0.11158,0.70528
556.966,61.72316,-3.95342,-0.11223,0.70328
559.566,61.9797,-3.95342,-0.11056,0.70129
562.166,62.2354,-3.95243,-0.11099,0.69931
564.766,62.49146,-3.9534,-0.11097,0.69733
567.366,62.74748,-3.9521,-0.11617,0.69536
569.966,63.0033,-3.95275,-0.11014,0.6934
572.566,63.2594,-3.95375,-0.11221,0.69145
575.166,63.5159,-3.95276,-0.11115,0.68951
577.766,63.77304,-3.95408,-0.11257,0.68757
580.366,64.0294,-3.95309,-0.11,0.68564
582.966,64.28673,-3.9521,-0.10489,0.68372
585.566,64.54488,-3.95342,-0.10032,0.68181
588.166,64.80328,-3.95342,-0.09801472,0.67991
590.766,65.0611,-3.95473,-0.09793162,0.67801
593.366,65.3192,-3.95341,-0.10017,0.67612
595.966,65.57718,-3.95408,-0.10484,0.67425
598.566,65.83488,-3.95405,-0.10169,0.67238
601.166,66.09321,-3.95408,-0.10302,0.67052
603.766,66.35162,-3.95408,-0.09943223,0.66866
606.366,66.61115,-3.95402,-0.09707056,0.66682
608.966,66.8699,-3.95441,-0.09710293,0.66498
611.566,67.1303,-3.95407,-0.09506322,0.66316
614.166,67.38938,-3.95407,-0.09772446,0.66134
616.766,67.64907,-3.9544,-0.099577,0.65953
619.366,67.90869,-3.95309,-0.10384,0.65773
621.966,68.1686,-3.95309,-0.10431,0.65594
624.566,68.42819,-3.95408,-0.1058,0.65416
627.166,68.68774,-3.95356,-0.10429,0.65239
629.766,68.94795,-3.95388,-0.10094,0.65062
632.366,69.20864,-3.95516,-0.10001,0.64887
634.966,69.46969,-3.95407,-0.09951717,0.64712
637.566,69.7311,-3.95275,-0.10327,0.64538
640.166,69.99252,-3.95408,-0.11063,0.64366

File: HIPS_STA_N2_10KData_211021_R2.csv
##Temp./Â°C,Time/min,Mass loss(subtr.2)/mg,DSC(subtr.2)/(mW/mg),Sensit./(uV/mW)
49.92,10.01,0.05331,-0.03995749,1.03584
52.42,12.33742,0.06962204,0.01268565,1.03571
54.92,13.01934,0.0741044,0.0356541,1.03555
57.42,13.5603,0.07592218,0.05063395,1.03536
59.92,14.03307,0.08029981,0.06318392,1.03515
62.42,14.46359,0.08034448,0.07318972,1.03491
64.92,14.8638,0.09076008,0.08523003,1.03464
67.42,15.2393,0.0860882,0.09375937,1.03435
69.92,15.5941,0.08888591,0.10287,1.03403
72.42,15.9336,0.08908561,0.11346,1.03369
74.92,16.2604,0.09177525,0.12074,1.03332
77.42,16.57679,0.09214782,0.12738,1.03292
79.92,16.88392,0.09621463,0.13401,1.0325
82.42,17.18216,0.09504243,0.12694,1.03205
84.92,17.4727,0.0961383,0.12658,1.03158
87.42,17.7568,0.0980701,0.12992,1.03108
89.92,18.03505,0.09739606,0.13789,1.03056
92.42,18.3081,0.09826374,0.14695,1.03001
94.92,18.57621,0.09421238,0.15524,1.02943
97.42,18.84122,0.10317,0.16581,1.02884
99.92,19.1023,0.10322,0.1824,1.02821
102.42,19.3609,0.10312,0.19613,1.02757
104.92,19.61688,0.10443,0.20415,1.0269
107.42,19.8702,0.1051,0.20892,1.0262
109.92,20.12204,0.10574,0.21217,1.02549
112.42,20.37215,0.10671,0.21155,1.02474
114.92,20.6197,0.1064,0.21572,1.02398
117.42,20.86616,0.1132,0.21551,1.02319
119.92,21.11061,0.1099,0.21843,1.02238
122.42,21.3536,0.11098,0.21844,1.02155
124.92,21.595,0.11178,0.22037,1.02069
127.42,21.83535,0.11407,0.22505,1.01981
129.92,22.07324,0.11441,0.23072,1.01891
132.42,22.31022,0.1144,0.22927,1.01799
134.92,22.5455,0.11572,0.23187,1.01704
137.42,22.77909,0.11572,0.23423,1.01607
139.92,23.01206,0.11835,0.23905,1.01508
142.42,23.24338,0.11694,0.24027,1.01407
144.92,23.47505,0.11694,0.24354,1.01304
147.42,23.70447,0.11733,0.2464,1.01199
149.92,23.93375,0.11777,0.24768,1.01092
152.42,24.16242,0.12156,0.25165,1.00982
154.92,24.3906,0.12143,0.253,1.00871
157.42,24.61833,0.12011,0.25668,1.00758
159.92,24.84579,0.12011,0.25864,1.00642
162.42,25.07235,0.12142,0.26133,1.00525
164.92,25.29919,0.12145,0.2628,1.00405
167.42,25.5258,0.12162,0.26578,1.00284
169.92,25.75139,0.12216,0.26885,1.00161
172.42,25.97816,0.12344,0.27116,1.00036
174.92,26.20287,0.12285,0.27413,0.99909
177.42,26.4287,0.12493,0.27973,0.9978
179.92,26.65325,0.12582,0.28152,0.99649
182.42,26.87725,0.12655,0.28384,0.99517
184.92,27.10083,0.12546,0.28651,0.99382
187.42,27.3247,0.12679,0.28925,0.99246
189.92,27.54787,0.12839,0.291,0.99108
192.42,27.771,0.13028,0.2923,0.98968
194.92,27.9935,0.12892,0.29435,0.98827
197.42,28.21586,0.13183,0.29968,0.98684
199.92,28.4383,0.13001,0.30195,0.98539
202.42,28.66045,0.13285,0.30444,0.98393
204.92,28.88268,0.13271,0.30701,0.98245
207.42,29.10489,0.13139,0.31088,0.98095
209.92,29.32702,0.13239,0.31415,0.97944
212.42,29.5494,0.13372,0.31765,0.97791
214.92,29.77187,0.13127,0.31982,0.97636
217.42,29.994,0.13248,0.3238,0.9748
219.92,30.2165,0.13338,0.32388,0.97323
222.42,30.43859,0.13421,0.32904,0.97164
224.92,30.66092,0.13272,0.32736,0.97003
227.42,30.8834,0.13414,0.33025,0.96841
229.92,31.10575,0.13338,0.33637,0.96678
232.42,31.3284,0.13205,0.33693,0.96513
234.92,31.5512,0.1291,0.33734,0.96347
237.42,31.774,0.1321,0.3397,0.96179
239.92,31.9969,0.13087,0.34187,0.9601
242.42,32.21986,0.13219,0.34152,0.9584
244.92,32.44274,0.12989,0.34512,0.95669
247.42,32.6661,0.12817,0.34561,0.95496
249.92,32.88941,0.12824,0.34428,0.95322
252.42,33.1128,0.12865,0.34881,0.95146
254.92,33.33665,0.12822,0.35174,0.9497
257.42,33.56049,0.12823,0.35372,0.94792
259.92,33.78398,0.12824,0.35568,0.94613
262.42,34.00792,0.12755,0.35407,0.94433
264.92,34.2321,0.12391,0.35714,0.94251
267.42,34.45593,0.12438,0.35491,0.94069
269.92,34.67982,0.12384,0.35875,0.93885
272.42,34.90337,0.12394,0.35972,0.93701
274.92,35.1274,0.12197,0.35825,0.93515
277.42,35.35195,0.1178,0.36063,0.93328
279.92,35.577,0.11674,0.36087,0.93141
282.42,35.80225,0.11639,0.35716,0.92952
284.92,36.02691,0.11353,0.3585,0.92762
287.42,36.25257,0.1121,0.35959,0.92572
289.92,36.47804,0.10949,0.35928,0.9238
292.42,36.7042,0.10951,0.36,0.92187
294.92,36.93045,0.10815,0.35891,0.91994
297.42,37.15667,0.10402,0.3588,0.918
299.92,37.383,0.10267,0.35975,0.91604
302.42,37.60946,0.10563,0.35518,0.91408
304.92,37.83597,0.10299,0.35757,0.91212
307.42,38.06258,0.10167,0.35518,0.91014
309.92,38.28973,0.0975197,0.35305,0.90816
312.42,38.5171,0.09848691,0.35071,0.90616
314.92,38.74391,0.09520927,0.34948,0.90416
317.42,38.97175,0.09102737,0.34467,0.90216
319.92,39.1993,0.09434963,0.34095,0.90015
322.42,39.42733,0.08520675,0.33658,0.89813
324.92,39.6552,0.08239276,0.33792,0.8961
327.42,39.88367,0.08670933,0.3321,0.89407
329.92,40.11203,0.07933314,0.32555,0.89203
332.42,40.34081,0.07665183,0.32325,0.88998
334.92,40.57008,0.07141005,0.31941,0.88793
337.42,40.79916,0.07439956,0.31299,0.88587
339.92,41.0288,0.06570148,0.30672,0.88381
342.42,41.25877,0.06006412,0.30405,0.88174
344.92,41.48851,0.06030269,0.29903,0.87967
347.42,41.71833,0.05934968,0.29503,0.8776
349.92,41.94822,0.05648911,0.29241,0.87551
352.42,42.17855,0.05386018,0.28233,0.87343
354.92,42.40955,0.05123185,0.27558,0.87134
357.42,42.64042,0.04771024,0.27158,0.86924
359.92,42.87155,0.04508002,0.26896,0.86714
362.42,43.1032,0.04364055,0.25816,0.86504
364.92,43.3348,0.03883569,0.25488,0.86294
367.42,43.56642,0.03167295,0.25315,0.86083
369.92,43.79869,0.02915798,0.25111,0.85872
372.42,44.03069,0.02667083,0.25461,0.8566
374.92,44.26251,0.02405334,0.25789,0.85448
377.42,44.49545,0.0184279,0.2698,0.85236
379.92,44.72829,0.01254237,0.27957,0.85024
382.42,44.96156,0.006011973,0.29642,0.84811
384.92,45.19502,-0.001210104,0.322,0.84599
387.42,45.42855,-0.01013072,0.34686,0.84386
389.92,45.66267,-0.01829014,0.38243,0.84173
392.42,45.89685,-0.02929051,0.42714,0.83959
394.92,46.131,-0.04421857,0.4782,0.83746
397.42,46.36484,-0.06029956,0.54145,0.83532
399.92,46.5991,-0.07953189,0.62032,0.83319
402.42,46.83409,-0.10196,0.71287,0.83105
404.92,47.0687,-0.13265,0.8299,0.82891
407.42,47.30425,-0.16699,0.97534,0.82678
409.92,47.54031,-0.21223,1.15561,0.82464
412.42,47.77681,-0.26694,1.38243,0.8225
414.92,48.01396,-0.33987,1.65951,0.82036
417.42,48.25099,-0.43826,1.99173,0.81822
419.92,48.48908,-0.53826,2.37702,0.81608
422.42,48.7275,-0.67943,2.83867,0.81394
424.92,48.9666,-0.84823,3.22018,0.8118
427.42,49.2057,-1.03955,3.63722,0.80967
429.92,49.44576,-1.26257,3.94848,0.80753
432.42,49.68591,-1.50497,4.13624,0.8054
434.92,49.92454,-1.75564,4.17917,0.80326
437.42,50.16278,-2.00707,4.06277,0.80113
439.92,50.40077,-2.24715,3.79313,0.799
442.42,50.63777,-2.46893,3.42186,0.79687
444.92,50.87399,-2.6624,3.00303,0.79474
447.42,51.1099,-2.83223,2.55795,0.79262
449.92,51.346,-2.97589,2.12173,0.79049
452.42,51.58217,-3.09202,1.7099,0.78837
454.92,51.81895,-3.19345,1.35826,0.78625
457.42,52.05624,-3.27401,1.06573,0.78414
459.92,52.29347,-3.34062,0.84761,0.78202
462.42,52.5313,-3.39437,0.68896,0.77991
464.92,52.76927,-3.44162,0.5707,0.7778
467.42,53.00775,-3.48119,0.46777,0.7757
469.92,53.2466,-3.51471,0.37953,0.77359
472.42,53.4864,-3.54615,0.2975,0.7715
474.92,53.7261,-3.55949,0.2128,0.7694
477.42,53.96561,-3.58907,0.13927,0.76731
479.92,54.2058,-3.60264,0.07394014,0.76522
482.42,54.4465,-3.61121,0.01497832,0.76314
484.92,54.6874,-3.62135,-0.03453284,0.76106
487.42,54.9276,-3.62644,-0.06197601,0.75898
489.92,55.1676,-3.62598,-0.08848238,0.75691
492.42,55.40846,-3.62786,-0.09777936,0.75484
494.92,55.6494,-3.62655,-0.09714861,0.75278
497.42,55.89056,-3.62759,-0.10573,0.75072
499.92,56.1324,-3.62788,-0.11657,0.74866
502.42,56.3742,-3.62803,-0.13053,0.74661
504.92,56.61605,-3.62743,-0.13426,0.74457
507.42,56.858,-3.62494,-0.1402,0.74253
509.92,57.1,-3.62611,-0.1378,0.74049
512.42,57.3427,-3.62513,-0.14423,0.73846
514.92,57.58554,-3.62479,-0.1395,0.73644
517.42,57.8284,-3.62348,-0.13827,0.73442
519.92,58.0718,-3.6249,-0.13731,0.73241
522.42,58.3153,-3.6249,-0.13877,0.7304
524.92,58.5587,-3.61541,-0.14239,0.7284
527.42,58.8016,-3.62239,-0.13816,0.7264
529.92,59.04535,-3.62268,-0.13753,0.72441
532.42,59.28923,-3.62358,-0.13383,0.72243
534.92,59.5337,-3.62223,-0.13735,0.72045
537.42,59.77769,-3.62194,-0.13807,0.71848
539.92,60.0226,-3.62091,-0.13602,0.71651
542.42,60.2671,-3.62103,-0.13911,0.71455
544.92,60.51206,-3.6184,-0.13847,0.7126
547.42,60.75728,-3.61964,-0.13402,0.71065
549.92,61.00269,-3.61832,-0.13699,0.70871
552.42,61.2483,-3.61942,-0.13352,0.70678
554.92,61.49417,-3.61743,-0.13349,0.70485
557.42,61.7399,-3.61854,-0.1354,0.70293
559.92,61.9856,-3.61877,-0.13588,0.70102
562.42,62.232,-3.61657,-0.138,0.69911
564.92,62.478,-3.61657,-0.14136,0.69721
567.42,62.72432,-3.61721,-0.13639,0.69532
569.92,62.97169,-3.61558,-0.13561,0.69344
572.42,63.2192,-3.61432,-0.13598,0.69156
574.92,63.46654,-3.61492,-0.14067,0.68969
577.42,63.71454,-3.61492,-0.13688,0.68783
579.92,63.9615,-3.61262,-0.13731,0.68597
582.42,64.20891,-3.61393,-0.14162,0.68412
584.92,64.456,-3.61362,-0.14292,0.68228
587.42,64.7034,-3.6135,-0.14321,0.68045
589.92,64.95067,-3.61216,-0.14416,0.67863
592.42,65.1987,-3.61372,-0.14315,0.67681
594.92,65.4459,-3.61131,-0.1459,0.675
597.42,65.69378,-3.60524,-0.14121,0.6732
599.92,65.9406,-3.61152,-0.14386,0.67141
602.42,66.18785,-3.60905,-0.14059,0.66962
604.92,66.43584,-3.61173,-0.14501,0.66784
607.42,66.68298,-3.60998,-0.14378,0.66607
609.92,66.9299,-3.60998,-0.14442,0.66431
612.42,67.1769,-3.60763,-0.14513,0.66256
614.92,67.4238,-3.60858,-0.14342,0.66081
617.42,67.6716,-3.60768,-0.14297,0.65908
619.92,67.92031,-3.60922,-0.14652,0.65735
622.42,68.16905,-3.60922,-0.14565,0.65563
624.92,68.41812,-3.60845,-0.14129,0.65392
627.42,68.66825,-3.60845,-0.13978,0.65221
629.92,68.9181,-3.61407,-0.13778,0.65052
632.42,69.16844,-3.60746,-0.14231,0.64883
634.92,69.41811,-3.60834,-0.13573,0.64715
637.42,69.66893,-3.608,-0.13391,0.64548
639.92,69.91869,-3.6078,-0.12972,0.64382
640.72,69.99805,-3.6078,-0.1297,0.64329