Folder: fsri_materials_database/01_Data/HIPS/STA/N2/10K_min (part 2)

File: HIPS_STA_N2_10KData_211025_R3.csv
##Temp./Â°C,Time/min,Mass loss(subtr.2)/mg,DSC(subtr.2)/(mW/mg),Sensit./(uV/mW)
49.894,10.00917,0.0612,-0.04177948,1.03584
52.494,12.3756,0.07096009,0.02654171,1.0357
55.094,13.07436,0.07336296,0.05776333,1.03554
57.694,13.63145,0.07429079,0.08205055,1.03534
60.294,14.1188,0.07731772,0.09885307,1.03512
62.894,14.56135,0.08012874,0.11624,1.03486
65.494,14.97265,0.08047398,0.12594,1.03458
68.094,15.35793,0.07798307,0.13719,1.03427
70.694,15.7233,0.08288335,0.14936,1.03393
73.294,16.07224,0.08121865,0.16066,1.03356
75.894,16.40864,0.08210357,0.16841,1.03317
78.494,16.73323,0.08230353,0.17813,1.03274
81.094,17.04794,0.0834479,0.18424,1.03229
83.694,17.3558,0.08550247,0.18028,1.03181
86.294,17.65214,0.08373227,0.18307,1.03131
88.894,17.9442,0.08811453,0.18958,1.03077
91.494,18.23065,0.08387654,0.19981,1.03021
94.094,18.51164,0.08874446,0.21214,1.02963
96.694,18.79,0.08835814,0.22107,1.02901
99.294,19.06139,0.08552448,0.24026,1.02837
101.894,19.33172,0.08718874,0.25504,1.02771
104.494,19.60004,0.09380411,0.26394,1.02701
107.094,19.8655,0.09501842,0.27152,1.0263
109.694,20.12591,0.09017397,0.2733,1.02555
112.294,20.3861,0.09467823,0.2792,1.02478
114.894,20.64675,0.09169659,0.28017,1.02399
117.494,20.90249,0.09124365,0.28622,1.02317
120.094,21.15755,0.09157114,0.2878,1.02232
122.694,21.41079,0.09400722,0.28884,1.02145
125.294,21.66236,0.0957427,0.29335,1.02056
127.894,21.91208,0.09593356,0.29765,1.01964
130.494,22.16014,0.09620001,0.29908,1.0187
133.094,22.40682,0.0961721,0.3011,1.01773
135.694,22.6515,0.10098,0.30653,1.01674
138.294,22.89489,0.0969864,0.30912,1.01573
140.894,23.13715,0.09879094,0.31112,1.01469
143.494,23.37836,0.09718002,0.31499,1.01363
146.094,23.61867,0.10059,0.31486,1.01255
148.694,23.8581,0.09849735,0.31624,1.01145
151.294,24.09605,0.10016,0.32075,1.01032
153.894,24.33417,0.10123,0.31973,1.00917
156.494,24.57141,0.1019,0.3231,1.008
159.094,24.80801,0.10233,0.32633,1.00681
161.694,25.04485,0.10037,0.32906,1.00559
164.294,25.28111,0.10032,0.33151,1.00436
166.894,25.51742,0.09837611,0.33288,1.0031
169.494,25.75294,0.10082,0.33562,1.00182
172.094,25.98797,0.10069,0.33829,1.00052
174.694,26.2226,0.10437,0.33862,0.9992
177.294,26.45658,0.10321,0.33892,0.99786
179.894,26.6905,0.10153,0.34135,0.9965
182.494,26.9242,0.1007,0.34215,0.99513
185.094,27.15747,0.10398,0.34625,0.99373
187.694,27.39003,0.10004,0.3496,0.99231
190.294,27.62241,0.10272,0.35273,0.99087
192.894,27.8543,0.10113,0.35488,0.98942
195.494,28.08635,0.10537,0.35963,0.98794
198.094,28.3182,0.10303,0.36219,0.98645
200.694,28.54972,0.10099,0.36023,0.98494
203.294,28.78146,0.09918808,0.36552,0.98341
205.894,29.0129,0.10089,0.36848,0.98186
208.494,29.24502,0.10105,0.37029,0.9803
211.094,29.47702,0.10244,0.37324,0.97872
213.694,29.7082,0.10102,0.37607,0.97712
216.294,29.9402,0.10115,0.37595,0.97551
218.894,30.17162,0.09936331,0.38125,0.97388
221.494,30.40411,0.09854985,0.38058,0.97223
224.094,30.636,0.09952757,0.37958,0.97056
226.694,30.86764,0.0988201,0.38488,0.96888
229.294,31.10033,0.10014,0.38257,0.96719
231.894,31.3331,0.10064,0.38554,0.96548
234.494,31.56543,0.09815749,0.38696,0.96375
237.094,31.7981,0.09912653,0.38926,0.96201
239.694,32.03014,0.09691457,0.39032,0.96026
242.294,32.26325,0.09828027,0.39154,0.95849
244.894,32.49643,0.09509619,0.392,0.9567
247.494,32.729,0.09420529,0.39088,0.95491
250.094,32.96177,0.09224111,0.39373,0.9531
252.694,33.19525,0.09518552,0.39626,0.95127
255.294,33.4286,0.09290252,0.39681,0.94943
257.894,33.6612,0.09113787,0.39738,0.94758
260.494,33.89519,0.09111498,0.39729,0.94572
263.094,34.1286,0.08576548,0.39905,0.94384
265.694,34.36146,0.09000118,0.39705,0.94195
268.294,34.59567,0.08306321,0.39934,0.94005
270.894,34.82963,0.08059014,0.39751,0.93814
273.494,35.0635,0.08589251,0.39506,0.93621
276.094,35.29714,0.08073079,0.39536,0.93428
278.694,35.53174,0.07870898,0.39865,0.93233
281.294,35.76566,0.07678741,0.3954,0.93037
283.894,35.9998,0.07426853,0.39291,0.9284
286.494,36.23381,0.07293507,0.38935,0.92642
289.094,36.46942,0.06932025,0.39004,0.92443
291.694,36.70443,0.06995569,0.38966,0.92243
294.294,36.93974,0.06580482,0.3867,0.92042
296.894,37.1753,0.06581004,0.38433,0.91841
299.494,37.4107,0.06140749,0.38231,0.91638
302.094,37.64647,0.06142788,0.38136,0.91434
304.694,37.88265,0.0595901,0.38051,0.91229
307.294,38.11874,0.05439272,0.38145,0.91024
309.894,38.35519,0.05766696,0.37312,0.90818
312.494,38.59172,0.04935417,0.37352,0.9061
315.094,38.82864,0.04835696,0.36836,0.90403
317.694,39.06573,0.04684072,0.36734,0.90194
320.294,39.30385,0.03912877,0.36654,0.89984
322.894,39.54146,0.04250052,0.35739,0.89774
325.494,39.7797,0.03400395,0.35505,0.89563
328.094,40.01852,0.03252638,0.34952,0.89352
330.694,40.2573,0.02370096,0.34497,0.89139
333.294,40.49604,0.02312707,0.33898,0.88926
335.894,40.73493,0.02203646,0.33122,0.88713
338.494,40.9739,0.01328163,0.32817,0.88499
341.094,41.2134,0.01358906,0.31892,0.88284
343.694,41.4529,0.01503583,0.31051,0.88069
346.294,41.69212,0.009650003,0.30446,0.87853
348.894,41.9319,0.008220865,0.29255,0.87637
351.494,42.17185,0.00696384,0.28413,0.8742
354.094,42.4119,0.001954272,0.27866,0.87203
356.694,42.652,0.001313167,0.27061,0.86985
359.294,42.89228,-0.00671705,0.26349,0.86767
361.894,43.13306,-0.01009001,0.25824,0.86549
364.494,43.37388,-0.01287865,0.25265,0.8633
367.094,43.6148,-0.01897902,0.25242,0.8611
369.694,43.85579,-0.02109392,0.24975,0.85891
372.294,44.09771,-0.02514172,0.24958,0.85671
374.894,44.33978,-0.03509631,0.25783,0.8545
377.494,44.58142,-0.03970416,0.26937,0.8523
380.094,44.8241,-0.04871584,0.28706,0.85009
382.694,45.0672,-0.05529615,0.30253,0.84788
385.294,45.31133,-0.06063063,0.3248,0.84567
387.894,45.55525,-0.07065216,0.35857,0.84345
390.494,45.79908,-0.08554997,0.39933,0.84124
393.094,46.04323,-0.09615289,0.44278,0.83902
395.694,46.28845,-0.10851,0.502,0.8368
398.294,46.53322,-0.13251,0.57251,0.83458
400.894,46.77874,-0.15231,0.65911,0.83236
403.494,47.02431,-0.18266,0.7694,0.83013
406.094,47.27022,-0.2126,0.90914,0.82791
408.694,47.5165,-0.25851,1.08138,0.82569
411.294,47.764,-0.31451,1.29488,0.82346
413.894,48.0111,-0.38294,1.56309,0.82124
416.494,48.25898,-0.4705,1.89765,0.81901
419.094,48.50738,-0.59024,2.29594,0.81679
421.694,48.75633,-0.7337,2.73098,0.81456
424.294,49.0064,-0.89731,3.1821,0.81234
426.894,49.25658,-1.11948,3.59089,0.81012
429.494,49.5067,-1.34914,3.91226,0.8079
432.094,49.75744,-1.62018,4.12649,0.80568
434.694,50.00758,-1.88263,4.1624,0.80346
437.294,50.25625,-2.15743,4.02293,0.80124
439.894,50.50418,-2.41053,3.71607,0.79902
442.494,50.75175,-2.64819,3.30624,0.79681
445.094,50.99778,-2.85128,2.84135,0.79459
447.694,51.24351,-3.02464,2.3716,0.79238
450.294,51.48899,-3.17138,1.92902,0.79018
452.894,51.73592,-3.29197,1.52461,0.78797
455.494,51.98153,-3.38559,1.18222,0.78577
458.094,52.22798,-3.45711,0.91899,0.78357
460.694,52.475,-3.52349,0.73367,0.78137
463.294,52.72246,-3.57888,0.59407,0.77917
465.894,52.97041,-3.62185,0.48527,0.77698
468.494,53.2195,-3.66323,0.38942,0.77479
471.094,53.4684,-3.70229,0.3043,0.77261
473.694,53.7175,-3.72774,0.21618,0.77043
476.294,53.96715,-3.75078,0.13368,0.76825
478.894,54.2167,-3.76726,0.06484961,0.76608
481.494,54.4658,-3.77948,-0.004856691,0.76391
484.094,54.7163,-3.78912,-0.06782695,0.76174
486.694,54.96719,-3.791,-0.11312,0.75958
489.294,55.21774,-3.79744,-0.13585,0.75743
491.894,55.46762,-3.79705,-0.15326,0.75527
494.494,55.71826,-3.78951,-0.16661,0.75313
497.094,55.97005,-3.79218,-0.16547,0.75099
499.694,56.22302,-3.7929,-0.18905,0.74885
502.294,56.47614,-3.79215,-0.24534,0.74672
504.894,56.72914,-3.78888,-0.26556,0.74459
507.494,56.98175,-3.79284,-0.26943,0.74247
510.094,57.2345,-3.79261,-0.26886,0.74035
512.694,57.4879,-3.79293,-0.26063,0.73824
515.294,57.74139,-3.79386,-0.2542,0.73614
517.894,57.99505,-3.79317,-0.25295,0.73404
520.494,58.24853,-3.79376,-0.25217,0.73195
523.094,58.5025,-3.79132,-0.25777,0.72986
525.694,58.75668,-3.79009,-0.26498,0.72778
528.294,59.01053,-3.78902,-0.26684,0.72571
530.894,59.2652,-3.79207,-0.2651,0.72364
533.494,59.5199,-3.78808,-0.2702,0.72158
536.094,59.7746,-3.79253,-0.26791,0.71952
538.694,60.029,-3.79426,-0.26699,0.71747
541.294,60.2837,-3.79136,-0.26917,0.71543
543.894,60.5382,-3.79184,-0.26825,0.7134
546.494,60.7919,-3.79066,-0.27583,0.71137
549.094,61.0465,-3.79107,-0.2763,0.70935
551.694,61.30098,-3.79091,-0.27772,0.70734
554.294,61.5555,-3.78605,-0.28113,0.70533
556.894,61.81058,-3.79107,-0.27638,0.70334
559.494,62.06632,-3.79108,-0.27893,0.70134
562.094,62.32309,-3.78334,-0.27963,0.69936
564.694,62.5792,-3.79208,-0.27952,0.69739
567.294,62.836,-3.78833,-0.28072,0.69542
569.894,63.0924,-3.78914,-0.28559,0.69346
572.494,63.349,-3.78735,-0.28538,0.6915
575.094,63.6042,-3.78673,-0.2851,0.68956
577.694,63.8607,-3.7868,-0.2865,0.68762
580.294,64.1182,-3.78654,-0.2835,0.6857
582.894,64.37643,-3.78364,-0.28289,0.68378
585.494,64.63378,-3.78669,-0.28526,0.68186
588.094,64.89171,-3.78252,-0.28528,0.67996
590.694,65.149,-3.78701,-0.2823,0.67806
593.294,65.4066,-3.7913,-0.28234,0.67618
595.894,65.66444,-3.78592,-0.2851,0.6743
598.494,65.92249,-3.784,-0.28267,0.67243
601.094,66.181,-3.7856,-0.28512,0.67057
603.694,66.43945,-3.78923,-0.28667,0.66871
606.294,66.69704,-3.78822,-0.28479,0.66687
608.894,66.95517,-3.78726,-0.28273,0.66503
611.494,67.21366,-3.7832,-0.27668,0.66321
614.094,67.471,-3.78399,-0.26482,0.66139
616.694,67.7294,-3.78439,-0.25819,0.65958
619.294,67.98702,-3.78674,-0.24905,0.65778
621.894,68.24472,-3.80384,-0.24275,0.65599
624.494,68.50475,-3.79668,-0.2397,0.65421
627.094,68.7644,-3.79525,-0.23921,0.65243
629.694,69.0244,-3.79812,-0.23954,0.65067
632.294,69.2846,-3.79733,-0.23358,0.64892
634.894,69.5449,-3.79707,-0.23561,0.64717
637.494,69.80496,-3.79756,-0.23881,0.64543
639.394,69.99506,-3.79996,-0.24304,0.64417