Folder: fsri_materials_database/01_Data/HIPS/STA/N2/30K_min

Note: README.md
# Materials and Products Database
### Repository of materials and products properties and fire test data to improve fire modeling and fire investigation.

This project was supported in part by Award No. 2019-DU-BX-0018, awarded by the National Institute of Justice, Office of Justice Programs, U.S. Department of Justice. The opinions, findings, and conclusions or recommendations expressed in this publication / program / exhibition are those of the author(s) and do not necessarily reflect those of the Department of Justice.

***
***

__Cite this database:__ "McKinnon, M., Weinschenk, C., Dow, N., DiDomizio, M., and Madrzykowski, D. Materials and Products Database (Version 1.0.0), Fire Safety Research Institute, UL Research Institutes. Columbia, MD 21045, 2023."

__Cite the Technical Reference Guide:__ "McKinnon, M., Weinschenk, C., and Madrzykowski, D. Materials and Products Database - Technical Reference Guide, Fire Safety Research Institute, UL Research Institutes. Columbia, MD 21045, 2023."

__Cite the User Guide:__ "McKinnon, M., and Weinschenk, C. Materials and Products Database - User Guide, Fire Safety Research Institute, UL Research Institutes. Columbia, MD 21045, 2023."

***
***

## Database Structure

## 01_Data/
Raw data generated from each apparatus are included here in plain-text format. The data is organized first by material, next by the short name of test apparatus used, and where applicable additional filtering by test settings.

### Test Apparatus and Data File Structure
- __Cone Calorimeter__ (Cone)
    + Data file structure includes the material, the short name for the apparatus, heat flux setting and scan/scalar, date of test, and replicate number. Scan is for the raw output data and scalar is for the initial conditions and high-level test parameters. 
        * Example: __MDF_Cone_HF25scalar_210323_R1__ stands for the first replicate of scalar data generated from a medium density fiber board test in cone calorimeter exposed to 25 kW/m<sup>2</sup> on March 23, 2021.
    + A _Cone_Notes.csv_ is generated for each material from the __plot_Cone_data.py__ script. For materials whose experiments deviated from typical behavior relevant pictures are included in the respective material directory.
- __Fourier Transform Infrared Spectrometer__ (FTIR)
    + The FTIR directory contains subdirectories for the Attenuated Total Reflectance method (ATR) and the Integrating Sphere (IS)
    + Data file structure for the ATR experiment files includes the material, the abbreviated name for the apparatus, date of test, and replicate number. 
        * Example: __MDF_ATR_210323_R5__ stands for the fifth replicate of data collected with the ATR accessory conducted on June 8, 2021.
    + Data file structure for the IS experiment files includes the material, the abbreviated name for the apparatus, the measurand, whether the test is a sample measurement or standard reference, date of test, and replicate number.
        * Example: __OSB_IS_REFLECT_MEAS_2

File: HIPS_STA_N2_30KData_211022_R1.csv
##Temp./Â°C,Time/min,Mass loss(subtr.2)/mg,DSC(subtr.2)/(mW/mg),Sensit./(uV/mW)
49.529,10.00667,0.03324,-0.01948809,1.05401
52.029,11.53975,0.03786025,0.08519645,1.05405
54.529,11.88449,0.03635271,0.15101,1.05406
57.029,12.13899,0.04105513,0.20586,1.05404
59.529,12.35158,0.03840951,0.24561,1.05399
62.029,12.5405,0.04113466,0.283,1.05391
64.529,12.715,0.04038803,0.31285,1.0538
67.029,12.87843,0.04120627,0.34165,1.05365
69.529,13.0341,0.04007873,0.36647,1.05348
72.029,13.1835,0.04292491,0.38994,1.05328
74.529,13.32807,0.040657,0.40935,1.05305
77.029,13.4676,0.04219603,0.42898,1.05279
79.529,13.60278,0.0419958,0.4501,1.0525
82.029,13.73366,0.04227761,0.47051,1.05218
84.529,13.86077,0.04054968,0.47604,1.05184
87.029,13.98405,0.04210656,0.47295,1.05146
89.529,14.10355,0.04283354,0.48136,1.05106
92.029,14.21965,0.04040416,0.49768,1.05062
94.529,14.333,0.04087587,0.51888,1.05016
97.029,14.44394,0.04274149,0.54716,1.04967
99.529,14.55194,0.04209284,0.57979,1.04915
102.029,14.65807,0.04381445,0.61767,1.04861
104.529,14.76171,0.04481709,0.6537,1.04804
107.029,14.8636,0.04296971,0.66998,1.04744
109.529,14.9639,0.04147141,0.66391,1.04681
112.029,15.0625,0.04279975,0.64729,1.04616
114.529,15.15957,0.04229129,0.63117,1.04548
117.029,15.25501,0.0428839,0.652,1.04477
119.529,15.3493,0.04172481,0.67309,1.04404
122.029,15.44251,0.04240977,0.69254,1.04328
124.529,15.53411,0.04259739,0.70552,1.04249
127.029,15.62454,0.05163342,0.72933,1.04168
129.529,15.7141,0.03777333,0.73863,1.04084
132.029,15.8024,0.04374911,0.7531,1.03998
134.529,15.88975,0.04645196,0.76072,1.0391
137.029,15.9763,0.04515884,0.77375,1.03818
139.529,16.06189,0.04225297,0.78635,1.03725
142.029,16.14637,0.04223299,0.79587,1.03628
144.529,16.23043,0.04534855,0.80507,1.0353
147.029,16.31345,0.04562002,0.81635,1.03429
149.529,16.39563,0.04600894,0.82739,1.03325
152.029,16.47757,0.04586608,0.83782,1.0322
154.529,16.55866,0.04563146,0.84924,1.03111
157.029,16.6395,0.04792805,0.85916,1.03001
159.529,16.71937,0.04793939,0.86912,1.02888
162.029,16.7991,0.04637253,0.87942,1.02773
164.529,16.87794,0.04461157,0.89194,1.02656
167.029,16.9565,0.04488142,0.90432,1.02536
169.529,17.03448,0.04322045,0.91165,1.02415
172.029,17.11202,0.04520605,0.92419,1.02291
174.529,17.18921,0.04256007,0.93112,1.02165
177.029,17.26577,0.04386147,0.94342,1.02036
179.529,17.342,0.04530986,0.95594,1.01906
182.029,17.41763,0.04696845,0.96618,1.01773
184.529,17.49271,0.04434357,0.97513,1.01639
187.029,17.56766,0.04563012,0.98514,1.01502
189.529,17.64188,0.04696079,0.99578,1.01363
192.029,17.71583,0.04562044,1.00405,1.01223
194.529,17.78935,0.04353898,1.0128,1.0108
197.029,17.86269,0.04400336,1.02288,1.00935
199.529,17.93534,0.04387998,1.033,1.00789
202.029,18.00812,0.04388,1.04144,1.0064
204.529,18.0805,0.04388,1.05329,1.0049
207.029,18.1526,0.04520966,1.06375,1.00337
209.529,18.22439,0.04496271,1.07101,1.00183
212.029,18.2962,0.043651,1.08097,1.00027
214.529,18.36776,0.0423341,1.08931,0.9987
217.029,18.43885,0.04496542,1.0967,0.9971
219.529,18.50989,0.04497,1.10667,0.99549
222.029,18.58077,0.04497002,1.11352,0.99386
224.529,18.65145,0.04369322,1.12341,0.99221
227.029,18.722,0.04212,1.13144,0.99054
229.529,18.79223,0.04083375,1.13946,0.98886
232.029,18.86259,0.04211987,1.14533,0.98717
234.529,18.93255,0.04222944,1.15342,0.98545
237.029,19.00253,0.0422302,1.16097,0.98372
239.529,19.07222,0.04092022,1.16801,0.98198
242.029,19.14173,0.04385992,1.17486,0.98022
244.529,19.21112,0.04387748,1.17976,0.97845
247.029,19.28051,0.04388001,1.18856,0.97666
249.529,19.34972,0.04491741,1.19274,0.97485
252.029,19.4189,0.04355,1.19594,0.97303
254.529,19.48789,0.041378,1.20368,0.9712
257.029,19.55677,0.0409087,1.20999,0.96935
259.529,19.6256,0.04198489,1.21571,0.96749
262.029,19.69426,0.03958405,1.21958,0.96562
264.529,19.7628,0.0369664,1.22614,0.96373
267.029,19.83137,0.03697001,1.2295,0.96183
269.529,19.89968,0.03564844,1.23617,0.95992
272.029,19.9682,0.03697555,1.23843,0.95799
274.529,20.03642,0.03550692,1.24149,0.95605
277.029,20.10462,0.03466,1.2447,0.95411
279.529,20.17295,0.03564186,1.25063,0.95214
282.029,20.24083,0.03302402,1.25166,0.95017
284.529,20.30892,0.03028053,1.25417,0.94819
287.029,20.37754,0.03037419,1.25518,0.94619
289.529,20.44559,0.03038155,1.25686,0.94419
292.029,20.51369,0.02906404,1.25869,0.94217
294.529,20.58181,0.02905712,1.25916,0.94015
297.029,20.64994,0.02764004,1.26053,0.93811
299.529,20.7179,0.02685782,1.25895,0.93607
302.029,20.78586,0.02633443,1.26086,0.93401
304.529,20.85398,0.02388105,1.25916,0.93195
307.029,20.922,0.02174189,1.25739,0.92987
309.529,20.98994,0.02129636,1.25904,0.92779
312.029,21.058,0.01812405,1.25951,0.9257
314.529,21.12595,0.01436976,1.25974,0.9236
317.029,21.1939,0.01363502,1.2634,0.92149
319.529,21.26192,0.01020005,1.26319,0.91938
322.029,21.33004,0.01152863,1.25996,0.91725
324.529,21.39798,0.009689468,1.25841,0.91512
327.029,21.46622,0.00551372,1.25808,0.91299
329.529,21.53424,0.005479229,1.25325,0.91084
332.029,21.6022,0.002704749,1.24491,0.90869
334.529,21.67012,-0.0001386641,1.2406,0.90653
337.029,21.73859,0.0009305058,1.23464,0.90437
339.529,21.8068,-0.00767101,1.23071,0.9022
342.029,21.87518,-0.007971043,1.22162,0.90002
344.529,21.9436,-0.01198112,1.21239,0.89784
347.029,22.0118,-0.01334536,1.20141,0.89566
349.529,22.08022,-0.01666865,1.18751,0.89347
352.029,22.1489,-0.01169723,1.17497,0.89127
354.529,22.2173,-0.02900058,1.16781,0.88907
357.029,22.28585,-0.02215032,1.15079,0.88686
359.529,22.35453,-0.02410616,1.13236,0.88465
362.029,22.42334,-0.02753328,1.12015,0.88244
364.529,22.49212,-0.02923205,1.10048,0.88022
367.029,22.56105,-0.03468096,1.08492,0.878
369.529,22.63014,-0.03748226,1.06497,0.87578
372.029,22.69912,-0.04211878,1.04462,0.87355
374.529,22.76815,-0.04396311,1.02721,0.87132
377.029,22.8375,-0.04677308,1.00845,0.86909
379.529,22.90686,-0.0503489,0.99062,0.86685
382.029,22.97628,-0.05109977,0.97699,0.86462
384.529,23.04574,-0.05634299,0.97058,0.86238
387.029,23.115,-0.06060247,0.9649,0.86014
389.529,23.1852,-0.06467064,0.96373,0.85789
392.029,23.255,-0.07042859,0.97052,0.85565
394.529,23.3249,-0.07584263,0.98509,0.8534
397.029,23.39493,-0.08522756,1.00399,0.85116
399.529,23.46511,-0.09102112,1.03611,0.84891
402.029,23.53529,-0.10337,1.08274,0.84666
404.529,23.60559,-0.11059,1.14275,0.84441
407.029,23.6761,-0.12015,1.21935,0.84217
409.529,23.74654,-0.12811,1.31138,0.83992
412.029,23.8171,-0.14122,1.42363,0.83767
414.529,23.88788,-0.15112,1.56152,0.83542
417.029,23.9588,-0.16777,1.72611,0.83317
419.529,24.02964,-0.18712,1.93256,0.83093
422.029,24.10079,-0.20788,2.17729,0.82868
424.529,24.17209,-0.23616,2.47908,0.82644
427.029,24.24354,-0.26346,2.84384,0.82419
429.529,24.31513,-0.29963,3.28922,0.82195
432.029,24.38691,-0.34688,3.82958,0.81971
434.529,24.45879,-0.4035,4.46468,0.81748
437.029,24.53112,-0.47165,5.23649,0.81524
439.529,24.60376,-0.55939,6.08753,0.81301
442.029,24.67655,-0.66214,7.06236,0.81077
444.529,24.74973,-0.78696,8.0928,0.80854
447.029,24.8231,-0.93831,9.14196,0.80632
449.529,24.89684,-1.12042,10.15483,0.8041
452.029,24.97048,-1.33525,10.97059,0.80187
454.529,25.04449,-1.55842,11.58438,0.79966
457.029,25.11854,-1.78595,11.8857,0.79744
459.529,25.19241,-2.03292,11.82364,0.79523
462.029,25.26613,-2.27401,11.36842,0.79303
464.529,25.3395,-2.47631,10.5493,0.79083
467.029,25.4126,-2.67189,9.50354,0.78863
469.529,25.4854,-2.84898,8.34126,0.78643
472.029,25.55786,-2.98911,7.15358,0.78424
474.529,25.6304,-3.11456,6.02193,0.78206
477.029,25.70269,-3.22013,4.9936,0.77988
479.529,25.77515,-3.30802,4.09191,0.7777
482.029,25.8475,-3.38007,3.33087,0.77553
484.529,25.92024,-3.43808,2.70068,0.77336
487.029,25.99306,-3.4905,2.19285,0.7712
489.529,26.06624,-3.53045,1.7806,0.76905
492.029,26.1396,-3.5666,1.43939,0.7669
494.529,26.21312,-3.59587,1.15092,0.76475
497.029,26.2869,-3.62125,0.89721,0.76261
499.529,26.36095,-3.64039,0.67214,0.76048
502.029,26.435,-3.65537,0.47294,0.75835
504.529,26.5093,-3.66699,0.29689,0.75623
507.029,26.5837,-3.67592,0.14532,0.75412
509.529,26.658,-3.68204,0.02352312,0.75201
512.029,26.7325,-3.6837,-0.06169903,0.74991
514.529,26.80735,-3.68775,-0.12725,0.74781
517.029,26.8822,-3.68874,-0.16643,0.74573
519.529,26.95703,-3.68872,-0.19631,0.74364
522.029,27.03207,-3.69075,-0.21305,0.74157
524.529,27.10705,-3.69074,-0.2232,0.7395
527.029,27.18245,-3.69138,-0.23102,0.73744
529.529,27.2578,-3.68873,-0.24565,0.73539
532.029,27.33339,-3.68885,-0.25478,0.73334
534.529,27.40875,-3.68885,-0.27734,0.73131
537.029,27.48413,-3.68754,-0.28637,0.72928
539.529,27.55988,-3.68754,-0.29613,0.72725
542.029,27.6358,-3.68853,-0.307,0.72524
544.529,27.71162,-3.68718,-0.31639,0.72323
547.029,27.78758,-3.68798,-0.3211,0.72123
549.529,27.86366,-3.68689,-0.32788,0.71924
552.029,27.9398,-3.68666,-0.33322,0.71726
554.529,28.0159,-3.68407,-0.34507,0.71528
557.029,28.0922,-3.68194,-0.34825,0.71332
559.529,28.1687,-3.68665,-0.34727,0.71136
562.029,28.24488,-3.68533,-0.35051,0.70941
564.529,28.322,-3.68524,-0.34762,0.70747
567.029,28.3987,-3.68458,-0.34955,0.70554
569.529,28.4756,-3.68458,-0.3478,0.70361
572.029,28.5527,-3.6859,-0.35076,0.7017
574.529,28.62965,-3.6845,-0.35112,0.69979
577.029,28.70685,-3.68083,-0.35381,0.6979
579.529,28.784,-3.6802,-0.35597,0.69601
582.029,28.86137,-3.68438,-0.35908,0.69413
584.529,28.93893,-3.68469,-0.36203,0.69226
587.029,29.01633,-3.68336,-0.36268,0.6904
589.529,29.0941,-3.68317,-0.36487,0.68855
592.029,29.1718,-3.68073,-0.3649,0.68671
594.529,29.2496,-3.68135,-0.3685,0.68487
597.029,29.3277,-3.68338,-0.37347,0.68305
599.529,29.4056,-3.68338,-0.37938,0.68124
602.029,29.4837,-3.67898,-0.38402,0.67943
604.529,29.5615,-3.68008,-0.38786,0.67764
607.029,29.63992,-3.68094,-0.39308,0.67585
609.529,29.71823,-3.67996,-0.39796,0.67408
612.029,29.79648,-3.67866,-0.39883,0.67231
614.529,29.87515,-3.68128,-0.40518,0.67055
617.029,29.9538,-3.68107,-0.40286,0.66881
618.429,29.9978,-3.67975,-0.40536,0.66783

File: HIPS_STA_N2_30KData_211022_R2.csv
##Temp./Â°C,Time/min,Mass loss(subtr.2)/mg,DSC(subtr.2)/(mW/mg),Sensit./(uV/mW)
49.495,10.00667,-0.0092,0.03474449,1.05401
51.995,11.53894,-0.01175228,0.45488,1.05405
54.495,11.88785,-0.01100068,0.72473,1.05406
56.995,12.1406,-0.01245583,0.93694,1.05404
59.495,12.35341,-0.0105249,1.1068,1.05399
61.995,12.5425,-0.01411379,1.24441,1.05391
64.495,12.71652,-0.01780076,1.3792,1.0538
66.995,12.88028,-0.01272886,1.4934,1.05366
69.495,13.036,-0.01452168,1.60409,1.05349
71.995,13.18554,-0.01352872,1.70502,1.05328
74.495,13.3298,-0.01426114,1.78786,1.05305
76.995,13.46975,-0.01382755,1.87677,1.05279
79.495,13.6048,-0.01327622,1.96443,1.05251
81.995,13.7359,-0.01418743,2.05751,1.05219
84.495,13.8629,-0.01390963,2.09903,1.05184
86.995,13.98625,-0.01470893,2.0916,1.05147
89.495,14.1063,-0.01451717,2.12407,1.05106
91.995,14.22238,-0.01540312,2.18953,1.05063
94.495,14.3358,-0.0158939,2.27448,1.05017
96.995,14.44669,-0.01567009,2.39933,1.04968
99.495,14.55439,-0.01601274,2.53225,1.04916
101.995,14.6603,-0.0159984,2.68377,1.04862
104.495,14.76411,-0.01521584,2.82009,1.04805
106.995,14.8659,-0.01627081,2.91785,1.04745
109.495,14.96623,-0.01766034,3.00665,1.04682
111.995,15.0647,-0.01476504,3.07431,1.04617
114.495,15.16195,-0.01746922,3.13402,1.04549
116.995,15.25772,-0.01678736,3.20268,1.04478
119.495,15.35193,-0.01721235,3.26529,1.04405
121.995,15.44476,-0.01688947,3.32973,1.04329
124.495,15.5366,-0.01846035,3.38716,1.0425
126.995,15.62735,-0.01754936,3.45919,1.04169
129.495,15.71649,-0.01621925,3.52506,1.04086
131.995,15.8052,-0.01746325,3.603,1.03999
134.495,15.8924,-0.01623075,3.68103,1.03911
136.995,15.9785,-0.01630375,3.74591,1.0382
139.495,16.0642,-0.01787058,3.81472,1.03726
141.995,16.1489,-0.01798999,3.88255,1.0363
144.495,16.2328,-0.01850573,3.93976,1.03531
146.995,16.31604,-0.02104005,3.99212,1.0343
149.495,16.39842,-0.01554697,4.06208,1.03327
151.995,16.47994,-0.01699011,4.12723,1.03221
154.495,16.56077,-0.01738876,4.18261,1.03113
156.995,16.64191,-0.01696237,4.23301,1.03003
159.495,16.72205,-0.01830213,4.29823,1.0289
161.995,16.80161,-0.01693324,4.3445,1.02775
164.495,16.88026,-0.01698889,4.41052,1.02658
166.995,16.95874,-0.01696207,4.46123,1.02538
169.495,17.03716,-0.0186397,4.51944,1.02416
171.995,17.1146,-0.01865374,4.57302,1.02292
174.495,17.19179,-0.01865186,4.62545,1.02166
176.995,17.2686,-0.01863894,4.6816,1.02038
179.495,17.3447,-0.01795513,4.72287,1.01908
181.995,17.42024,-0.01893939,4.78664,1.01775
184.495,17.49532,-0.01831,4.82537,1.01641
186.995,17.57038,-0.01707705,4.87966,1.01504
189.495,17.64483,-0.01864074,4.93849,1.01365
191.995,17.71871,-0.01864,4.98701,1.01225
194.495,17.7923,-0.01864983,5.03209,1.01082
196.995,17.86555,-0.01732721,5.08738,1.00937
199.495,17.93864,-0.02029055,5.12795,1.00791
201.995,18.01135,-0.02029,5.17786,1.00642
204.495,18.0837,-0.02028629,5.2333,1.00492
206.995,18.15607,-0.02137872,5.27735,1.00339
209.495,18.228,-0.02062,5.31373,1.00185
211.995,18.2998,-0.02062,5.36824,1.00029
214.495,18.37134,-0.02207877,5.40902,0.99872
216.995,18.4426,-0.02171882,5.46348,0.99712
219.495,18.51383,-0.02039016,5.50648,0.99551
221.995,18.5848,-0.02128382,5.55257,0.99388
224.495,18.6554,-0.02039999,5.6012,0.99223
226.995,18.72588,-0.02138643,5.63104,0.99057
229.495,18.7962,-0.0227001,5.68021,0.98889
231.995,18.86659,-0.0217089,5.72354,0.98719
234.495,18.93683,-0.02071595,5.76899,0.98548
236.995,19.00674,-0.02204116,5.80028,0.98375
239.495,19.07636,-0.02322574,5.84234,0.982
241.995,19.14607,-0.02466775,5.86549,0.98024
244.495,19.21565,-0.02550699,5.91805,0.97847
246.995,19.285,-0.02566,5.95182,0.97668
249.495,19.35416,-0.02565884,5.98116,0.97488
251.995,19.42333,-0.02499905,6.02161,0.97306
254.495,19.49212,-0.02567067,6.04482,0.97122
256.995,19.5613,-0.02780587,6.06906,0.96938
259.495,19.6302,-0.02830033,6.10172,0.96752
261.995,19.69874,-0.02959912,6.1284,0.96564
264.495,19.7671,-0.02829,6.15141,0.96376
266.995,19.83609,-0.0282903,6.18091,0.96186
269.495,19.90446,-0.02960979,6.20291,0.95994
271.995,19.97285,-0.03223009,6.20773,0.95802
274.495,20.04102,-0.03224,6.24168,0.95608
276.995,20.1094,-0.03105938,6.25395,0.95413
279.495,20.1778,-0.03224009,6.26401,0.95217
281.995,20.24597,-0.03384522,6.27323,0.9502
284.495,20.3141,-0.03557975,6.28511,0.94822
286.995,20.38212,-0.03619,6.29236,0.94622
289.495,20.45025,-0.03755613,6.29953,0.94422
291.995,20.51833,-0.0377126,6.30185,0.9422
294.495,20.58643,-0.03883,6.30762,0.94017
296.995,20.65448,-0.03991611,6.28962,0.93814
299.495,20.72243,-0.04153033,6.29068,0.93609
301.995,20.79045,-0.04450398,6.29331,0.93404
304.495,20.85853,-0.04420081,6.28972,0.93197
306.995,20.92642,-0.04552002,6.28652,0.9299
309.495,20.99442,-0.04593867,6.28845,0.92782
311.995,21.06239,-0.0479922,6.28873,0.92573
314.495,21.1303,-0.05089182,6.28427,0.92363
316.995,21.19823,-0.05228671,6.28443,0.92152
319.495,21.2663,-0.0546946,6.28627,0.9194
321.995,21.33436,-0.05763783,6.28042,0.91728
324.495,21.40235,-0.05893425,6.26873,0.91515
326.995,21.47048,-0.05889499,6.25855,0.91301
329.495,21.53849,-0.06042465,6.25276,0.91087
331.995,21.60667,-0.06284002,6.22126,0.90872
334.495,21.67478,-0.06567498,6.20807,0.90656
336.995,21.7429,-0.06789826,6.16833,0.9044
339.495,21.81115,-0.07032162,6.13239,0.90223
341.995,21.87945,-0.07376809,6.09395,0.90005
344.495,21.9478,-0.07513004,6.04776,0.89787
346.995,22.01633,-0.0764454,6.01457,0.89569
349.495,22.08476,-0.07986757,5.95906,0.8935
351.995,22.15331,-0.08159785,5.89088,0.8913
354.495,22.22169,-0.08414112,5.82985,0.8891
356.995,22.2904,-0.08867607,5.77398,0.88689
359.495,22.35905,-0.09019628,5.70037,0.88468
361.995,22.428,-0.09266243,5.63278,0.88247
364.495,22.49694,-0.09554206,5.56492,0.88025
366.995,22.5659,-0.0991383,5.48432,0.87803
369.495,22.63486,-0.10192,5.39984,0.87581
371.995,22.704,-0.10521,5.3105,0.87358
374.495,22.7731,-0.10922,5.23742,0.87135
376.995,22.8424,-0.11253,5.13507,0.86912
379.495,22.91176,-0.11602,5.07257,0.86688
381.995,22.98105,-0.12064,5.00426,0.86465
384.495,23.05059,-0.12295,4.96386,0.86241
386.995,23.12024,-0.12999,4.92958,0.86017
389.495,23.18995,-0.13489,4.92606,0.85792
391.995,23.25979,-0.13545,4.93595,0.85568
394.495,23.32987,-0.14368,4.99041,0.85343
396.995,23.3998,-0.14991,5.12911,0.85119
399.495,23.46999,-0.15837,5.23538,0.84894
401.995,23.54009,-0.16563,5.41661,0.84669
404.495,23.61047,-0.17347,5.63797,0.84445
406.995,23.6808,-0.18347,5.94523,0.8422
409.495,23.75149,-0.19467,6.3378,0.83995
411.995,23.8221,-0.20729,6.77762,0.8377
414.495,23.89285,-0.22132,7.32752,0.83545
416.995,23.9638,-0.23801,8.05576,0.83321
419.495,24.03491,-0.25922,8.82277,0.83096
421.995,24.10599,-0.27945,9.8352,0.82871
424.495,24.17735,-0.30482,11.0116,0.82647
426.995,24.24881,-0.33474,12.45283,0.82423
429.495,24.3203,-0.37145,14.2572,0.82198
431.995,24.39225,-0.41753,16.52422,0.81974
434.495,24.46431,-0.47824,19.1319,0.81751
436.995,24.5366,-0.55182,22.30715,0.81527
439.495,24.60915,-0.64718,25.68318,0.81304
441.995,24.68206,-0.75872,29.36239,0.8108
444.495,24.75546,-0.88881,33.39894,0.80857
446.995,24.8289,-1.04661,37.3005,0.80635
449.495,24.9026,-1.21165,41.18741,0.80413
451.995,24.97635,-1.43785,44.6593,0.80191
454.495,25.05056,-1.65592,47.30189,0.79969
456.995,25.1246,-1.89224,48.9296,0.79747
459.495,25.19845,-2.13491,49.02811,0.79526
461.995,25.2722,-2.37634,47.66729,0.79306
464.495,25.34544,-2.60349,44.87415,0.79086
466.995,25.4189,-2.81559,40.89179,0.78866
469.495,25.49188,-3.00428,36.25138,0.78646
471.995,25.56455,-3.16272,31.4549,0.78427
474.495,25.63701,-3.29459,26.73885,0.78209
476.995,25.70935,-3.41043,22.3816,0.77991
479.495,25.78161,-3.51091,18.48325,0.77773
481.995,25.85399,-3.58725,15.1535,0.77556
484.495,25.92655,-3.65486,12.44748,0.77339
486.995,25.9991,-3.70669,10.26248,0.77123
489.495,26.07232,-3.75349,8.50158,0.76908
491.995,26.1457,-3.79232,7.01851,0.76693
494.495,26.2191,-3.82731,5.77446,0.76478
496.995,26.29275,-3.85254,4.67558,0.76264
499.495,26.3666,-3.87618,3.69219,0.76051
501.995,26.4406,-3.89204,2.83452,0.75838
504.495,26.5147,-3.90309,2.10503,0.75626
506.995,26.589,-3.91299,1.51363,0.75415
509.495,26.6633,-3.91782,1.04939,0.75204
511.995,26.73785,-3.92239,0.7341,0.74994
514.495,26.81242,-3.92467,0.51449,0.74784
516.995,26.887,-3.92505,0.38313,0.74575
519.495,26.962,-3.92741,0.28132,0.74367
521.995,27.0371,-3.92741,0.2268,0.7416
524.495,27.11225,-3.92873,0.1745,0.73953
526.995,27.1875,-3.92741,0.14739,0.73747
529.495,27.26284,-3.92741,0.12472,0.73542
531.995,27.33827,-3.92793,0.11029,0.73337
534.495,27.41382,-3.92825,0.05757348,0.73133
536.995,27.4895,-3.92796,0.03046133,0.7293
539.495,27.5651,-3.92791,-0.03219905,0.72728
541.995,27.6409,-3.92928,-0.05509221,0.72527
544.495,27.7169,-3.92895,-0.09860924,0.72326
546.995,27.79294,-3.93028,-0.12088,0.72126
549.495,27.869,-3.93027,-0.14538,0.71927
551.995,27.9453,-3.93027,-0.16497,0.71729
554.495,28.02164,-3.9289,-0.18498,0.71531
556.995,28.098,-3.92895,-0.20273,0.71334
559.495,28.1744,-3.92895,-0.21508,0.71139
561.995,28.25098,-3.92989,-0.23528,0.70944
564.495,28.32762,-3.92631,-0.24289,0.7075
566.995,28.4043,-3.92669,-0.24033,0.70556
569.495,28.48123,-3.92764,-0.22942,0.70364
571.995,28.5582,-3.92759,-0.25675,0.70173
574.495,28.63537,-3.92762,-0.27958,0.69982
576.995,28.7126,-3.92731,-0.28584,0.69792
579.495,28.78993,-3.92763,-0.27714,0.69603
581.995,28.8672,-3.92617,-0.28634,0.69416
584.495,28.9446,-3.92621,-0.29707,0.69229
586.995,29.0221,-3.92752,-0.31266,0.69043
589.495,29.09965,-3.92752,-0.32366,0.68857
591.995,29.17734,-3.92752,-0.32926,0.68673
594.495,29.2551,-3.92752,-0.36363,0.6849
596.995,29.33278,-3.92752,-0.3624,0.68308
599.495,29.41065,-3.92752,-0.38331,0.68126
601.995,29.4887,-3.92752,-0.39149,0.67946
604.495,29.5668,-3.92685,-0.4073,0.67766
606.995,29.6451,-3.92725,-0.42237,0.67588
609.495,29.72318,-3.92709,-0.4369,0.6741
611.995,29.8016,-3.92698,-0.43611,0.67233
614.495,29.87995,-3.92587,-0.438,0.67058
616.995,29.95838,-3.92587,-0.44897,0.66883
618.295,29.99942,-3.92587,-0.44832,0.66793