Folder: fsri_materials_database/01_Data/HIPS/STA/N2/30K_min (part 2)

File: HIPS_STA_N2_30KData_211022_R3.csv
##Temp./Â°C,Time/min,Mass loss(subtr.2)/mg,DSC(subtr.2)/(mW/mg),Sensit./(uV/mW)
49.539,10.00583,-0.02446,0.0023292,1.05401
52.039,11.5363,-0.02703483,0.10772,1.05405
54.539,11.88255,-0.02697639,0.18057,1.05406
57.039,12.138,-0.02725862,0.23711,1.05404
59.539,12.35058,-0.02759382,0.28432,1.05399
62.039,12.54006,-0.02738748,0.32289,1.05391
64.539,12.71424,-0.02831086,0.35827,1.0538
67.039,12.87756,-0.02837004,0.39129,1.05365
69.539,13.03387,-0.02789784,0.42001,1.05348
72.039,13.18319,-0.02753366,0.44712,1.05328
74.539,13.3273,-0.0293892,0.47235,1.05305
77.039,13.46679,-0.02883474,0.49261,1.05279
79.539,13.6022,-0.02893326,0.51765,1.0525
82.039,13.73311,-0.02987759,0.54385,1.05218
84.539,13.8597,-0.02805567,0.55767,1.05183
87.039,13.98342,-0.02948754,0.55878,1.05146
89.539,14.1026,-0.02821373,0.5718,1.05105
92.039,14.21866,-0.02895675,0.59352,1.05062
94.539,14.33255,-0.02950143,0.62222,1.05016
97.039,14.44292,-0.02897533,0.65865,1.04967
99.539,14.5511,-0.02913418,0.69683,1.04915
102.039,14.65675,-0.02997554,0.74006,1.04861
104.539,14.7606,-0.03170984,0.77892,1.04804
107.039,14.8628,-0.03038598,0.81415,1.04744
109.539,14.96296,-0.03038003,0.83997,1.04681
112.039,15.0616,-0.03227941,0.86385,1.04616
114.539,15.15884,-0.03096946,0.88859,1.04547
117.039,15.25451,-0.03062781,0.90997,1.04477
119.539,15.3486,-0.03172433,0.9297,1.04403
122.039,15.4418,-0.03203053,0.95008,1.04327
124.539,15.5335,-0.03193031,0.9714,1.04249
127.039,15.6242,-0.032128,0.99376,1.04168
129.539,15.71321,-0.03213005,1.01492,1.04084
132.039,15.802,-0.03238315,1.03292,1.03998
134.539,15.8894,-0.03220816,1.0509,1.03909
137.039,15.97582,-0.03222743,1.07022,1.03818
139.539,16.0614,-0.03222363,1.08888,1.03724
142.039,16.14593,-0.03092606,1.10621,1.03628
144.539,16.23003,-0.03227494,1.12602,1.03529
147.039,16.31322,-0.03225186,1.14536,1.03428
149.539,16.39552,-0.03224161,1.16112,1.03325
152.039,16.47725,-0.0347549,1.1798,1.03219
154.539,16.5582,-0.03489102,1.19893,1.03111
157.039,16.63889,-0.03293392,1.215,1.03001
159.539,16.71896,-0.03498019,1.23398,1.02888
162.039,16.79841,-0.03368519,1.24999,1.02773
164.539,16.87741,-0.03451825,1.26742,1.02655
167.039,16.95591,-0.034052,1.28438,1.02536
169.539,17.0339,-0.03378978,1.30302,1.02414
172.039,17.11141,-0.03245135,1.319,1.0229
174.539,17.1886,-0.03372979,1.33488,1.02164
177.039,17.26516,-0.03378028,1.35155,1.02036
179.539,17.3412,-0.03377864,1.36821,1.01905
182.039,17.41679,-0.0326288,1.38513,1.01773
184.539,17.49193,-0.03378601,1.39966,1.01638
187.039,17.5667,-0.0351,1.41671,1.01501
189.539,17.64109,-0.03508889,1.43048,1.01363
192.039,17.71484,-0.03542144,1.44669,1.01222
194.539,17.78845,-0.03673957,1.46009,1.01079
197.039,17.8618,-0.03640999,1.47736,1.00935
199.539,17.9348,-0.03640032,1.49305,1.00788
202.039,18.00753,-0.03509996,1.50485,1.0064
204.539,18.07988,-0.03641986,1.52114,1.00489
207.039,18.15209,-0.03510011,1.53761,1.00337
209.539,18.22392,-0.036421,1.55329,1.00183
212.039,18.29579,-0.03773807,1.56534,1.00027
214.539,18.36714,-0.03904962,1.58397,0.99869
217.039,18.4386,-0.03775245,1.599,0.99709
219.539,18.5097,-0.03764723,1.61406,0.99548
222.039,18.58055,-0.03773154,1.62879,0.99385
224.539,18.65129,-0.03642005,1.64309,0.9922
227.039,18.72174,-0.03772289,1.65908,0.99054
229.539,18.79211,-0.03805057,1.67135,0.98886
232.039,18.86221,-0.03936993,1.68567,0.98716
234.539,18.93221,-0.03937,1.69838,0.98545
237.039,19.00204,-0.03936633,1.71081,0.98372
239.539,19.07173,-0.04036,1.72434,0.98197
242.039,19.14145,-0.03999472,1.73742,0.98021
244.539,19.21094,-0.03904285,1.75155,0.97844
247.039,19.28036,-0.0394897,1.76204,0.97665
249.539,19.34955,-0.04159025,1.77165,0.97484
252.039,19.4187,-0.04168,1.78297,0.97302
254.539,19.48776,-0.04168,1.79202,0.97119
257.039,19.55667,-0.04167723,1.80358,0.96934
259.539,19.62547,-0.04431002,1.81444,0.96748
262.039,19.69415,-0.04431,1.82371,0.96561
264.539,19.76284,-0.04535335,1.83319,0.96372
267.039,19.83124,-0.04530004,1.84435,0.96182
269.539,19.8999,-0.04562018,1.85192,0.95991
272.039,19.96839,-0.04793407,1.86258,0.95798
274.539,20.03681,-0.04792865,1.87146,0.95605
277.039,20.10516,-0.04922446,1.87496,0.9541
279.539,20.1734,-0.05056,1.88358,0.95214
282.039,20.24159,-0.05172353,1.89257,0.95016
284.539,20.30998,-0.05188001,1.89868,0.94818
287.039,20.3782,-0.05354131,1.90342,0.94619
289.539,20.4463,-0.05484648,1.91009,0.94418
292.039,20.5143,-0.05617767,1.91593,0.94216
294.539,20.58257,-0.05643117,1.91871,0.94014
297.039,20.65079,-0.05878292,1.92728,0.9381
299.539,20.71882,-0.05879027,1.92982,0.93606
302.039,20.7868,-0.06011031,1.93567,0.934
304.539,20.85494,-0.06011157,1.93937,0.93194
307.039,20.9229,-0.0616381,1.94384,0.92986
309.539,20.99098,-0.06418207,1.94861,0.92778
312.039,21.05901,-0.06679261,1.95173,0.92569
314.539,21.127,-0.0681195,1.95527,0.92359
317.039,21.1949,-0.06974869,1.96021,0.92148
319.539,21.2629,-0.07219164,1.96546,0.91937
322.039,21.33089,-0.07469634,1.96981,0.91724
324.539,21.39895,-0.07741735,1.96996,0.91511
327.039,21.46708,-0.08056878,1.97391,0.91298
329.539,21.53519,-0.08183944,1.97267,0.91083
332.039,21.60323,-0.0831448,1.97046,0.90868
334.539,21.67136,-0.08533543,1.97065,0.90652
337.039,21.73948,-0.08799861,1.96717,0.90436
339.539,21.8078,-0.09127362,1.96003,0.90219
342.039,21.87611,-0.09285112,1.95604,0.90002
344.539,21.94446,-0.09506278,1.94708,0.89783
347.039,22.01291,-0.09752683,1.94331,0.89565
349.539,22.08136,-0.09882892,1.93426,0.89346
352.039,22.14989,-0.10162,1.92732,0.89126
354.539,22.21858,-0.10582,1.91627,0.88906
357.039,22.28726,-0.10892,1.9013,0.88685
359.539,22.35605,-0.11198,1.88983,0.88464
362.039,22.42476,-0.11414,1.87703,0.88243
364.539,22.49374,-0.11682,1.86435,0.88021
367.039,22.56269,-0.11945,1.84915,0.87799
369.539,22.6316,-0.12243,1.83351,0.87577
372.039,22.70083,-0.12472,1.81836,0.87354
374.539,22.76998,-0.12764,1.8,0.87131
377.039,22.83902,-0.13184,1.78383,0.86908
379.539,22.9084,-0.13847,1.7687,0.86685
382.039,22.97795,-0.14151,1.75817,0.86461
384.539,23.04749,-0.14628,1.74918,0.86237
387.039,23.1172,-0.15125,1.74574,0.86013
389.539,23.1868,-0.1557,1.74515,0.85788
392.039,23.25621,-0.15963,1.75679,0.85564
394.539,23.32636,-0.16549,1.76899,0.8534
397.039,23.3962,-0.17123,1.79064,0.85115
399.539,23.46623,-0.17917,1.82167,0.8489
402.039,23.53642,-0.18731,1.86735,0.84665
404.539,23.60674,-0.19739,1.92705,0.84441
407.039,23.67701,-0.20479,2.00132,0.84216
409.539,23.7476,-0.21329,2.09213,0.83991
412.039,23.8182,-0.22463,2.2092,0.83766
414.539,23.88888,-0.23774,2.34766,0.83541
417.039,23.9596,-0.25301,2.51484,0.83317
419.539,24.03055,-0.27264,2.71448,0.83092
422.039,24.10175,-0.29456,2.95809,0.82867
424.539,24.17301,-0.31858,3.25095,0.82643
427.039,24.2442,-0.34859,3.60976,0.82419
429.539,24.31576,-0.38466,4.05089,0.82194
432.039,24.3876,-0.42858,4.5965,0.8197
434.539,24.45966,-0.4874,5.26819,0.81747
437.039,24.532,-0.55753,6.05109,0.81523
439.539,24.60455,-0.65079,6.93353,0.813
442.039,24.67737,-0.75936,7.88131,0.81076
444.539,24.75071,-0.89683,8.90791,0.80854
447.039,24.8242,-1.05127,9.87874,0.80631
449.539,24.898,-1.22562,10.8245,0.80409
452.039,24.9718,-1.44185,11.6815,0.80187
454.539,25.04578,-1.66563,12.30034,0.79965
457.039,25.11983,-1.90057,12.65778,0.79744
459.539,25.19366,-2.14211,12.6131,0.79523
462.039,25.26739,-2.37783,12.19571,0.79302
464.539,25.3409,-2.6022,11.4316,0.79082
467.039,25.4141,-2.80209,10.42172,0.78862
469.539,25.4871,-2.98438,9.28588,0.78642
472.039,25.55981,-3.12776,8.10427,0.78423
474.539,25.63223,-3.26104,6.97689,0.78205
477.039,25.70459,-3.3674,5.94017,0.77987
479.539,25.7771,-3.4586,5.02012,0.77769
482.039,25.84949,-3.53262,4.25742,0.77552
484.539,25.92203,-3.59501,3.62846,0.77335
487.039,25.99485,-3.64714,3.11802,0.77119
489.539,26.068,-3.68879,2.70851,0.76904
492.039,26.14113,-3.72715,2.36821,0.76689
494.539,26.21472,-3.75824,2.07956,0.76474
497.039,26.28841,-3.78461,1.82719,0.7626
499.539,26.36223,-3.80502,1.60095,0.76047
502.039,26.4364,-3.82187,1.39728,0.75835
504.539,26.5105,-3.83295,1.22338,0.75622
507.039,26.58472,-3.84285,1.07684,0.75411
509.539,26.65922,-3.84812,0.96725,0.752
512.039,26.73382,-3.85399,0.88902,0.7499
514.539,26.8085,-3.85525,0.83357,0.74781
517.039,26.8833,-3.85394,0.79937,0.74572
519.539,26.9583,-3.85656,0.77957,0.74364
522.039,27.03327,-3.85755,0.76645,0.74156
524.539,27.1084,-3.85788,0.75467,0.73949
527.039,27.18383,-3.85788,0.75177,0.73743
529.539,27.2591,-3.85788,0.75038,0.73538
532.039,27.3346,-3.85924,0.75016,0.73334
534.539,27.4101,-3.85919,0.74384,0.7313
537.039,27.48589,-3.85919,0.73724,0.72927
539.539,27.5617,-3.85926,0.72342,0.72725
542.039,27.63768,-3.85919,0.7199,0.72523
544.539,27.71375,-3.85916,0.7166,0.72322
547.039,27.7899,-3.85886,0.71739,0.72122
549.539,27.86615,-3.85886,0.71501,0.71923
552.039,27.94237,-3.85983,0.7119,0.71725
554.539,28.01882,-3.86017,0.70956,0.71528
557.039,28.09543,-3.86018,0.7062,0.71331
559.539,28.172,-3.86018,0.71046,0.71135
562.039,28.24881,-3.86013,0.71263,0.7094
564.539,28.32569,-3.8615,0.71434,0.70746
567.039,28.4026,-3.85887,0.71254,0.70553
569.539,28.4797,-3.86018,0.71303,0.70361
572.039,28.55665,-3.85953,0.71395,0.70169
574.539,28.634,-3.85952,0.71575,0.69979
577.039,28.7111,-3.85952,0.71632,0.69789
579.539,28.7885,-3.85952,0.71951,0.696
582.039,28.8659,-3.85953,0.71716,0.69412
584.539,28.9434,-3.8605,0.71817,0.69225
587.039,29.02102,-3.86051,0.71848,0.69039
589.539,29.09849,-3.86051,0.71691,0.68854
592.039,29.1761,-3.86215,0.71734,0.6867
594.539,29.25388,-3.86084,0.71614,0.68487
597.039,29.33178,-3.86084,0.7173,0.68304
599.539,29.40962,-3.86084,0.71551,0.68123
602.039,29.48756,-3.86084,0.71695,0.67943
604.539,29.56577,-3.86084,0.72403,0.67763
607.039,29.644,-3.86086,0.72341,0.67585
609.539,29.7222,-3.85928,0.72624,0.67407
612.039,29.80058,-3.85953,0.72761,0.6723
614.539,29.87905,-3.86084,0.73285,0.67055
617.039,29.9573,-3.85953,0.73294,0.6688
618.339,29.99812,-3.85953,0.72864,0.6679