Folder: fsri_materials_database/01_Data/HIPS/STA/N2/3K_min

Note: README.md
# Materials and Products Database
### Repository of materials and products properties and fire test data to improve fire modeling and fire investigation.

This project was supported in part by Award No. 2019-DU-BX-0018, awarded by the National Institute of Justice, Office of Justice Programs, U.S. Department of Justice. The opinions, findings, and conclusions or recommendations expressed in this publication / program / exhibition are those of the author(s) and do not necessarily reflect those of the Department of Justice.

***
***

__Cite this database:__ "McKinnon, M., Weinschenk, C., Dow, N., DiDomizio, M., and Madrzykowski, D. Materials and Products Database (Version 1.0.0), Fire Safety Research Institute, UL Research Institutes. Columbia, MD 21045, 2023."

__Cite the Technical Reference Guide:__ "McKinnon, M., Weinschenk, C., and Madrzykowski, D. Materials and Products Database - Technical Reference Guide, Fire Safety Research Institute, UL Research Institutes. Columbia, MD 21045, 2023."

__Cite the User Guide:__ "McKinnon, M., and Weinschenk, C. Materials and Products Database - User Guide, Fire Safety Research Institute, UL Research Institutes. Columbia, MD 21045, 2023."

***
***

## Database Structure

## 01_Data/
Raw data generated from each apparatus are included here in plain-text format. The data is organized first by material, next by the short name of test apparatus used, and where applicable additional filtering by test settings.

### Test Apparatus and Data File Structure
- __Cone Calorimeter__ (Cone)
    + Data file structure includes the material, the short name for the apparatus, heat flux setting and scan/scalar, date of test, and replicate number. Scan is for the raw output data and scalar is for the initial conditions and high-level test parameters. 
        * Example: __MDF_Cone_HF25scalar_210323_R1__ stands for the first replicate of scalar data generated from a medium density fiber board test in cone calorimeter exposed to 25 kW/m<sup>2</sup> on March 23, 2021.
    + A _Cone_Notes.csv_ is generated for each material from the __plot_Cone_data.py__ script. For materials whose experiments deviated from typical behavior relevant pictures are included in the respective material directory.
- __Fourier Transform Infrared Spectrometer__ (FTIR)
    + The FTIR directory contains subdirectories for the Attenuated Total Reflectance method (ATR) and the Integrating Sphere (IS)
    + Data file structure for the ATR experiment files includes the material, the abbreviated name for the apparatus, date of test, and replicate number. 
        * Example: __MDF_ATR_210323_R5__ stands for the fifth replicate of data collected with the ATR accessory conducted on June 8, 2021.
    + Data file structure for the IS experiment files includes the material, the abbreviated name for the apparatus, the measurand, whether the test is a sample measurement or standard reference, date of test, and replicate number.
        * Example: __OSB_IS_REFLECT_MEAS_2

File: HIPS_STA_N2_3KData_211021_R1.csv
##Temp./Â°C,Time/min,Mass loss(subtr.2)/mg,DSC(subtr.2)/(mW/mg),Sensit./(uV/mW)
50.218,10.0158,-0.00921,0.00193075,0.99786
52.818,13.9515,-0.01255533,0.04588515,0.99983
55.418,15.4923,-0.01068712,0.05855727,1.00174
58.018,16.7611,-0.01055412,0.06851159,1.00357
60.618,17.89629,-0.01216166,0.07707282,1.00533
63.218,18.95209,-0.01271101,0.0811902,1.00702
65.818,19.95747,-0.01362225,0.08980704,1.00863
68.418,20.9281,-0.01355863,0.09291014,1.01017
71.018,21.8748,-0.01368741,0.09323216,1.01164
73.618,22.80517,-0.01456339,0.0967051,1.01304
76.218,23.72131,-0.01454686,0.09464432,1.01437
78.818,24.62606,-0.0116362,0.09457399,1.01563
81.418,25.5238,-0.01317523,0.0949897,1.01681
84.018,26.4112,-0.0142585,0.09735259,1.01793
86.618,27.2918,-0.01412372,0.10203,1.01898
89.218,28.1669,-0.01369418,0.10623,1.01996
91.818,29.03527,-0.01711919,0.11013,1.02087
94.418,29.8987,-0.01733029,0.11504,1.02171
97.018,30.7558,-0.01465485,0.11843,1.02248
99.618,31.6094,-0.01601528,0.12373,1.02319
102.218,32.45916,-0.01502783,0.12552,1.02383
104.818,33.30737,-0.01277574,0.12787,1.0244
107.418,34.1543,-0.01470502,0.12924,1.02491
110.018,34.9999,-0.01337975,0.13302,1.02535
112.618,35.8429,-0.01513709,0.13266,1.02573
115.218,36.68741,-0.01559621,0.13614,1.02604
117.818,37.53143,-0.01511841,0.1367,1.02628
120.418,38.37381,-0.01399335,0.13619,1.02647
123.018,39.2146,-0.01449794,0.14018,1.02659
125.618,40.0556,-0.01611724,0.14158,1.02664
128.218,40.89418,-0.01750088,0.14192,1.02664
130.818,41.7325,-0.01645399,0.14695,1.02657
133.418,42.56879,-0.01738685,0.1456,1.02644
136.018,43.40464,-0.01711,0.14828,1.02625
138.618,44.2396,-0.01656845,0.15075,1.026
141.218,45.07087,-0.01813227,0.1509,1.02568
143.818,45.90195,-0.01865793,0.15217,1.02531
146.418,46.73081,-0.01908136,0.1511,1.02488
149.018,47.5585,-0.01945315,0.15435,1.02439
151.618,48.38758,-0.01876071,0.15712,1.02385
154.218,49.21118,-0.02073611,0.15607,1.02324
156.818,50.0357,-0.02126554,0.16093,1.02258
159.418,50.8593,-0.02128041,0.15967,1.02187
162.018,51.68416,-0.0209534,0.16278,1.02109
164.618,52.5077,-0.01959298,0.16241,1.02027
167.218,53.33174,-0.02314171,0.16137,1.01938
169.818,54.1545,-0.02020777,0.16657,1.01845
172.418,54.9792,-0.02220731,0.16567,1.01746
175.018,55.80489,-0.02412989,0.16742,1.01641
177.618,56.6327,-0.02281898,0.16964,1.01532
180.218,57.4574,-0.0232024,0.16895,1.01417
182.818,58.28374,-0.02512291,0.16996,1.01297
185.418,59.108,-0.02470637,0.17197,1.01173
188.018,59.93181,-0.02577958,0.17526,1.01043
190.618,60.7535,-0.023809,0.17502,1.00908
193.218,61.57241,-0.02678976,0.17622,1.00768
195.818,62.3914,-0.02677,0.17509,1.00624
198.418,63.21139,-0.02742002,0.17812,1.00474
201.018,64.03242,-0.03235888,0.17957,1.00321
203.618,64.85346,-0.03169072,0.18107,1.00162
206.218,65.67578,-0.03305221,0.18109,0.99999
208.818,66.49969,-0.03368,0.18465,0.99831
211.418,67.3228,-0.03538243,0.18807,0.99659
214.018,68.1451,-0.03795821,0.18901,0.99482
216.618,68.9657,-0.03861991,0.18799,0.99302
219.218,69.7881,-0.03927726,0.19181,0.99117
221.818,70.61328,-0.04056909,0.19071,0.98927
224.418,71.43551,-0.03990693,0.1935,0.98734
227.018,72.25542,-0.04410012,0.19754,0.98536
229.618,73.07876,-0.04773607,0.20198,0.98335
232.218,73.90286,-0.04761359,0.20125,0.98129
234.818,74.7259,-0.05022007,0.20419,0.9792
237.418,75.54885,-0.05166134,0.2078,0.97707
240.018,76.37388,-0.05495988,0.20737,0.9749
242.618,77.19548,-0.05627972,0.21018,0.9727
245.218,78.0155,-0.05627216,0.20848,0.97045
247.818,78.83736,-0.06204398,0.21045,0.96818
250.418,79.6615,-0.06231,0.21137,0.96586
253.018,80.48947,-0.06559035,0.21279,0.96352
255.618,81.31565,-0.07185437,0.21667,0.96114
258.218,82.14054,-0.07249819,0.21604,0.95872
260.818,82.96689,-0.07326947,0.21514,0.95628
263.418,83.79338,-0.07589542,0.2157,0.9538
266.018,84.61926,-0.07821842,0.21172,0.95129
268.618,85.44032,-0.08279467,0.21396,0.94876
271.218,86.26184,-0.08412956,0.21024,0.94619
273.818,87.08434,-0.08709764,0.2149,0.94359
276.418,87.90867,-0.08972,0.21181,0.94097
279.018,88.73538,-0.09232446,0.21089,0.93831
281.618,89.56396,-0.09927395,0.20957,0.93563
284.218,90.39582,-0.10154,0.20918,0.93293
286.818,91.229,-0.10486,0.21202,0.9302
289.418,92.057,-0.10268,0.2132,0.92744
292.018,92.88807,-0.11002,0.21321,0.92466
294.618,93.71606,-0.11254,0.21401,0.92185
297.218,94.54267,-0.11689,0.21192,0.91903
299.818,95.37432,-0.11946,0.212,0.91618
302.418,96.20473,-0.12208,0.21247,0.9133
305.018,97.03448,-0.12568,0.21072,0.91041
307.618,97.86345,-0.12823,0.20854,0.9075
310.218,98.69669,-0.13064,0.21319,0.90456
312.818,99.5282,-0.13356,0.2132,0.90161
315.418,100.3591,-0.13575,0.21202,0.89864
318.018,101.191,-0.13854,0.21156,0.89565
320.618,102.0229,-0.14018,0.21247,0.89265
323.218,102.855,-0.14577,0.21209,0.88962
325.818,103.6895,-0.14952,0.2126,0.88659
328.418,104.523,-0.15008,0.21489,0.88353
331.018,105.357,-0.15382,0.21097,0.88046
333.618,106.192,-0.15675,0.21418,0.87738
336.218,107.025,-0.16007,0.21059,0.87429
338.818,107.859,-0.16449,0.21018,0.87118
341.418,108.698,-0.16673,0.21113,0.86806
344.018,109.537,-0.17122,0.21135,0.86492
346.618,110.374,-0.17532,0.21133,0.86178
349.218,111.212,-0.17755,0.2126,0.85863
351.818,112.047,-0.18395,0.21428,0.85547
354.418,112.886,-0.18802,0.21804,0.85229
357.018,113.7192,-0.19378,0.21928,0.84911
359.618,114.555,-0.19985,0.22765,0.84593
362.218,115.398,-0.20775,0.23612,0.84273
364.818,116.244,-0.21593,0.24783,0.83953
367.418,117.089,-0.22413,0.25842,0.83632
370.018,117.935,-0.23397,0.27483,0.83311
372.618,118.794,-0.24492,0.28978,0.82989
375.218,119.65,-0.25853,0.31041,0.82667
377.818,120.5,-0.27663,0.33535,0.82344
380.418,121.345,-0.29715,0.3653,0.82022
383.018,122.193,-0.32378,0.40283,0.81698
385.618,123.036,-0.3568,0.44825,0.81375
388.218,123.8806,-0.39985,0.49976,0.81052
390.818,124.739,-0.4526,0.57317,0.80728
393.418,125.593,-0.51997,0.66838,0.80405
396.018,126.446,-0.61101,0.77817,0.80081
398.618,127.319,-0.72573,0.91701,0.79758
401.218,128.169,-0.86929,1.06837,0.79435
403.818,129.015,-1.03886,1.22068,0.79112
406.418,129.863,-1.24442,1.36619,0.78789
409.018,130.721,-1.47188,1.47362,0.78467
411.618,131.579,-1.72786,1.53119,0.78145
414.218,132.439,-1.99046,1.52813,0.77823
416.818,133.293,-2.24472,1.48038,0.77502
419.418,134.1334,-2.48414,1.38985,0.77181
422.018,134.986,-2.7072,1.26959,0.76861
424.618,135.837,-2.90929,1.13475,0.76542
427.218,136.689,-3.0793,0.98735,0.76223
429.818,137.548,-3.225,0.83833,0.75905
432.418,138.407,-3.34556,0.70479,0.75588
435.018,139.2557,-3.43485,0.58748,0.75271
437.618,140.109,-3.50759,0.50516,0.74956
440.218,140.964,-3.5666,0.45032,0.74641
442.818,141.821,-3.61336,0.41339,0.74328
445.418,142.677,-3.65927,0.38589,0.74015
448.018,143.5381,-3.69558,0.36048,0.73704
450.618,144.4,-3.72814,0.33574,0.73393
453.218,145.241,-3.75506,0.30691,0.73084
455.818,146.106,-3.77728,0.2879,0.72776
458.418,146.963,-3.79094,0.26339,0.72469
461.018,147.812,-3.80293,0.24423,0.72164
463.618,148.6713,-3.80917,0.2318,0.71859
466.218,149.549,-3.80907,0.2305,0.71557
468.818,150.403,-3.81214,0.22343,0.71255
471.418,151.261,-3.81355,0.20669,0.70955
474.018,152.111,-3.8165,0.20626,0.70657
476.618,152.985,-3.81445,0.21423,0.7036
479.218,153.833,-3.81566,0.21703,0.70065
481.818,154.69,-3.81431,0.23096,0.69771
484.418,155.564,-3.81583,0.2373,0.69479
487.018,156.43,-3.81363,0.24831,0.69189
489.618,157.31,-3.81389,0.2462,0.689
492.218,158.177,-3.81262,0.24073,0.68614
494.818,159.06,-3.8144,0.25188,0.68329
497.418,159.919,-3.81632,0.25208,0.68045
500.018,160.778,-3.81439,0.2533,0.67764
502.618,161.646,-3.81741,0.2555,0.67485
505.218,162.504,-3.81731,0.25801,0.67207
507.818,163.358,-3.81448,0.25473,0.66932
510.418,164.246,-3.81665,0.26808,0.66659
513.018,165.106,-3.81478,0.27096,0.66387
515.618,165.97,-3.81658,0.277,0.66118
518.218,166.851,-3.81703,0.27767,0.65851
520.818,167.709,-3.81531,0.28074,0.65586
523.418,168.585,-3.81239,0.28854,0.65323
526.018,169.449,-3.81523,0.28428,0.65063
528.618,170.3,-3.81532,0.28811,0.64804
531.218,171.187,-3.81532,0.29451,0.64548
533.818,172.066,-3.81499,0.29305,0.64294
536.418,172.9421,-3.81407,0.28656,0.64043
539.018,173.841,-3.81573,0.29352,0.63793
541.618,174.687,-3.81631,0.29275,0.63547
544.218,175.542,-3.8156,0.3082,0.63302
546.818,176.4346,-3.81426,0.31648,0.6306
549.418,177.301,-3.81675,0.31855,0.6282
552.018,178.169,-3.81289,0.32407,0.62583
554.618,179.056,-3.81466,0.34215,0.62348
557.218,179.94,-3.81253,0.33778,0.62116
559.818,180.799,-3.81379,0.33185,0.61886
562.418,181.661,-3.81104,0.34015,0.61659
565.018,182.527,-3.81402,0.33391,0.61435
567.618,183.421,-3.80891,0.32927,0.61213
570.218,184.318,-3.81126,0.34011,0.60993
572.818,185.164,-3.81411,0.34242,0.60776
575.418,186.03,-3.81255,0.35689,0.60562
578.018,186.952,-3.81271,0.36918,0.60351
580.618,187.8031,-3.81302,0.35737,0.60142
583.218,188.6747,-3.8128,0.36295,0.59935
585.818,189.576,-3.8114,0.37505,0.59732
588.418,190.471,-3.80982,0.3844,0.59531
591.018,191.336,-3.81137,0.37723,0.59333
593.618,192.191,-3.81259,0.38975,0.59138
596.218,193.06,-3.80982,0.40142,0.58945
598.818,193.949,-3.81247,0.40757,0.58755
601.418,194.829,-3.81116,0.39585,0.58568
604.018,195.715,-3.81148,0.40903,0.58383
606.618,196.622,-3.81064,0.41072,0.58202
609.218,197.48,-3.81093,0.4171,0.58023
611.818,198.368,-3.80987,0.41777,0.57847
614.418,199.249,-3.8128,0.4189,0.57674
617.018,200.128,-3.81016,0.42295,0.57503
619.618,200.988,-3.81114,0.42085,0.57336
622.218,201.872,-3.81017,0.43289,0.57171
624.818,202.785,-3.80885,0.45274,0.57009
627.418,203.68,-3.80761,0.45593,0.5685
630.018,204.548,-3.81024,0.44578,0.56694
632.618,205.4423,-3.80712,0.45983,0.5654
635.218,206.2857,-3.80817,0.45118,0.5639
637.818,207.176,-3.80803,0.45586,0.56242
640.418,208.0974,-3.80776,0.46668,0.56097
643.018,208.978,-3.81087,0.46423,0.55955
645.618,209.852,-3.80771,0.47093,0.55816
646.018,209.987,-3.80517,0.4753,0.55795