Folder: fsri_materials_database/01_Data/Accent_Chair/Furniture_Calorimeter (part 2)

File: Accent_Chair_R3.csv
Time (s),Convective HRR,TCPlume1,TCPlume2,TCPlume3,DPPlume1,DPPlume2,DPPlume3,HF1,HF2,HF3,HF4,HF5,HF6,RAD2,RAD1,Load Cell,Heat Release Rate,Total Heat Released
-120,0.0,-7.51964,-7.1177,10.2917,-0.00421275,-0.0224664,0.0199144,-0.849561,0.105729,-0.595332,0.28983,-0.226862,0.116465,0.447131,1.92317,26.071,0.0,0.0
-91,0.0,-6.93894,-6.88928,9.94155,0.102127,0.0155095,0.133848,-1.65192,0.105729,1.03328,2.01432,-0.226862,-0.0249568,0.613177,2.88169,26.071,0.0,0.0
-62,0.0,-7.80065,-7.6726,10.2086,0.0337659,0.00791431,-0.00287227,0.755166,-0.792967,-0.595332,-0.572413,-0.226862,-0.0249568,0.613177,2.88169,25.9048,0.0,0.0
-33,0.0,-7.4823,-7.2369,10.2518,0.0793402,0.0686758,0.00472328,-0.849561,1.90312,0.218973,0.28983,0.897995,-0.0249568,0.613177,3.8402,25.9256,0.06591,0.0
-4,0.0,-6.82345,-6.8911,9.90157,0.00338297,-0.045252,-0.0256589,0.755166,0.105729,-1.40964,-0.572413,0.14809,0.116465,0.613177,2.88169,25.9256,0.0,0.0
25,0.0,-7.68499,-7.55696,10.0921,0.0793402,-0.0376568,-0.0104678,-0.0471979,1.00442,0.218973,0.28983,0.14809,-0.0249568,0.447131,2.88169,26.0502,0.0,0.0
54,0.0,-7.60161,-7.004,10.2118,0.00338297,-0.0300616,-0.04085,-0.849561,1.00442,-0.595332,0.28983,-0.226862,-0.0249568,0.613177,2.88169,25.9256,0.0,0.0
83,0.0,-7.32253,-7.11631,10.0638,-0.00421275,-0.0604424,0.118656,0.755166,-1.69166,0.218973,1.15207,0.14809,-0.0249568,0.613177,1.92317,25.9256,5.8273,0.109624
112,9.34728,-4.0073,-4.07446,14.0728,0.474318,0.980099,2.253,2.35989,1.00442,-0.595332,0.28983,0.14809,0.116465,0.613177,3.8402,25.9048,36.0796,0.922667
141,24.856,-0.102952,-0.707844,16.8157,0.360382,-0.106014,0.156634,1.55753,0.105729,1.03328,0.28983,0.14809,0.257887,0.945271,4.79872,25.7387,87.9296,2.56187
170,75.6792,19.8301,20.6761,30.7402,5.08492,1.32188,2.10869,4.76698,1.90312,2.66189,1.15207,1.27295,0.682152,1.27736,7.67427,25.6141,401.847,8.64422
199,301.22,77.6473,78.943,91.0176,3.29233,5.43088,1.4023,15.1977,8.19399,6.73341,5.46329,4.27257,2.9449,3.43597,15.3424,24.7419,1177.66,29.8879
228,723.395,168.801,212.152,248.272,8.03966,6.57775,9.87893,37.6639,18.9783,17.3194,10.6367,10.6468,6.90471,7.089,33.5542,22.9145,1407.24,70.2667
257,726.206,174.842,240.723,412.493,4.27978,6.42585,7.25847,45.6875,16.2822,15.6908,14.0857,8.772,5.49049,5.59458,41.2224,20.7548,783.189,102.775
286,520.591,109.979,151.951,302.779,8.99672,5.52202,6.33941,22.419,4.59921,6.73341,8.91226,4.27257,2.80348,2.93783,20.135,19.7996,480.909,122.223
315,286.529,67.2846,96.5171,226.274,4.48486,4.10932,6.17231,11.9883,1.90312,5.1048,5.46329,2.3978,1.24784,1.44341,10.5498,18.7613,262.439,131.883
344,235.386,45.1158,66.1065,178.855,0.869295,4.51186,3.00496,7.17407,1.00442,2.66189,2.01432,0.897995,0.823574,1.27736,9.5913,18.2837,240.672,139.222
373,212.164,43.4178,59.3565,149.701,0.975636,0.258556,0.825042,7.97644,3.70051,2.66189,2.01432,1.6479,0.823574,1.60946,7.67427,17.7645,253.207,147.03
402,196.172,35.1973,50.3808,127.778,0.550275,2.90168,0.179421,7.17407,1.90312,3.47619,2.87656,1.6479,1.24784,1.27736,8.63279,16.9339,276.71,154.753
431,204.105,43.7252,57.1215,122.527,0.664211,2.72699,6.92427,7.97644,1.90312,3.47619,2.01432,1.27295,0.823574,1.27736,8.63279,16.4355,275.445,162.63
460,211.442,41.35,55.5421,114.07,1.53772,5.30936,2.70874,7.97644,3.70051,1.84758,2.87656,0.523043,0.964996,1.27736,8.63279,15.9786,248.053,170.664
489,171.739,34.3511,48.398,99.6444,2.98091,2.06621,1.19722,6.37171,1.00442,1.84758,2.87656,1.27295,0.682152,1.11132,5.75724,15.501,212.137,177.253
518,165.56,33.9172,44.6693,90.5252,2.21374,5.07391,2.61759,6.37171,1.90312,2.66189,0.28983,1.6479,0.682152,1.27736,6.71575,15.1065,203.968,183.657
547,150.193,35.3879,45.4959,84.951,1.7504,1.7624,3.64299,5.56935,1.00442,1.84758,2.01432,1.27295,0.964996,1.27736,7.67427,14.7742,215.286,189.538
576,157.161,36.0076,45.5169,81.0818,2.75303,3.36499,2.22262,6.37171,1.90312,1.84758,2.87656,1.27295,0.682152,0.779224,6.71575,14.3381,230.491,195.719
605,163.97,37.4063,42.7469,78.3095,2.91255,1.35226,2.38972,6.37171,1.90312,2.66189,2.01432,1.27295,0.964996,1.27736,7.67427,14.0266,248.932,202.534
634,182.779,35.4138,42.7361,77.6387,4.14305,3.39537,0.680727,6.37171,1.90312,2.66189,2.01432,0.897995,0.823574,1.11132,8.63279,13.5282,234.172,209.383
663,172.888,37.5659,45.5054,80.1901,5.22924,0.699077,2.13907,7.17407,2.80182,2.66189,2.87656,0.523043,0.823574,1.11132,6.71575,12.9676,242.494,216.462
692,177.581,36.8716,42.5867,75.8778,1.79597,0.410459,0.908593,4.76698,1.90312,2.66189,2.01432,1.6479,0.823574,1.27736,6.71575,12.6145,246.115,223.585
721,172.534,30.5959,38.7339,72.1947,0.466722,2.18773,3.56703,5.56935,1.90312,1.84758,3.7388,1.27295,0.682152,1.11132,7.67427,11.95,197.472,229.983
750,161.088,34.3212,38.9306,71.2878,0.557871,1.97507,2.45808,6.37171,1.00442,1.84758,2.01432,1.27295,0.823574,1.27736,7.67427,11.6385,214.251,235.95
779,160.014,28.2674,35.1136,66.8062,2.03144,1.26112,1.0757,7.17407,1.90312,1.03328,1.15207,0.897995,0.823574,1.11132,7.67427,11.327,216.433,242.302
808,166.526,36.1226,43.9605,73.2362,1.88712,3.45613,1.59219,5.56935,2.80182,1.84758,2.87656,1.27295,0.823574,1.11132,6.71575,10.8494,235.665,249.236
837,172.729,36.977,42.208,74.001,1.42378,5.02074,6.0128,6.37171,1.90312,1.84758,1.15207,0.897995,0.682152,1.27736,5.75724,10.4341,214.978,255.761
866,167.238,35.1655,38.9882,70.6109,0.550275,2.50673,0.665536,6.37171,1.00442,1.84758,3.7388,1.27295,0.823574,0.945271,7.67427,9.998,219.595,261.698
895,157.917,31.0128,36.6085,67.9426,1.61368,1.07124,2.32896,5.56935,1.00442,1.84758,0.28983,0.523043,0.682152,1.11132,6.71575,9.66574,202.675,268.006
924,157.532,29.3416,37.5637,69.0641,1.72002,3.15992,1.36433,2.35989,1.90312,2.66189,1.15207,1.6479,0.964996,1.11132,4.79872,9.18812,225.257,274.996
953,155.923,30.1639,36.8484,70.4895,2.2821,3.26625,4.28861,3.16226,1.90312,1.84758,0.28983,1.27295,0.682152,1.11132,5.75724,8.62744,208.055,280.881
982,119.824,25.2038,30.0028,64.1919,2.77582,1.64088,0.847829,3.16226,1.00442,1.84758,0.28983,-0.226862,0.823574,0.779224,5.75724,8.48207,165.008,285.58
1011,107.257,23.1451,28.9327,62.1551,1.94029,2.03583,1.37952,3.16226,0.105729,1.84758,2.01432,0.897995,0.54073,0.779224,4.79872,8.14982,159.648,290.449
1040,102.398,17.7137,25.9485,58.6188,0.307212,1.55733,2.20743,1.55753,-1.69166,1.03328,1.15207,0.897995,0.54073,0.613177,3.8402,7.81756,164.056,295.357
1069,112.061,19.8407,27.1553,58.2131,1.34023,4.01817,1.66815,3.16226,1.00442,1.84758,1.15207,0.897995,0.682152,0.945271,4.79872,7.6722,150.343,299.958
1098,104.147,17.3215,24.3497,56.1029,0.535084,3.28144,1.33394,3.16226,1.00442,1.03328,1.15207,0.897995,0.682152,0.779224,4.79872,7.4853,138.351,303.945
1127,95.6524,14.6395,21.4556,52.8408,1.24908,1.67126,2.32136,3.96462,1.00442,1.03328,0.28983,0.14809,0.54073,1.11132,5.75724,7.17381,131.784,307.675
1156,96.2634,11.3415,17.0331,49.7572,0.656615,1.98266,3.30119,2.35989,1.90312,1.03328,1.15207,1.27295,0.682152,0.779224,4.79872,6.98691,177.942,311.815
1185,100.182,15.673,21.6878,50.6656,2.79101,1.42821,1.72132,2.35989,1.00442,1.03328,1.15207,0.14809,0.54073,1.27736,4.79872,6.65466,147.716,316.105
1214,100.784,11.3408,18.9334,50.0154,0.770551,0.691481,1.02253,3.16226,0.105729,0.218973,2.01432,0.523043,0.399309,1.11132,5.75724,6.63389,143.806,320.227
1243,75.9606,9.87781,15.8412,45.559,0.671807,3.35739,1.19722,3.16226,1.00442,-0.595332,0.28983,0.523043,0.399309,0.945271,4.79872,6.50929,131.91,324.459
1272,71.5061,10.2815,15.6341,45.0231,1.15034,2.089,1.63777,1.55753,1.00442,1.03328,1.15207,0.897995,0.257887,0.779224,3.8402,6.17704,142.861,328.315
1301,73.0937,12.5125,17.0966,44.5188,0.816125,0.721862,0.16423,2.35989,0.105729,1.03328,0.28983,0.523043,0.54073,1.11132,4.79872,6.01091,117.294,332.172
1330,67.8216,10.6302,15.0294,43.0215,0.413552,0.85098,1.09089,1.55753,-0.792967,1.84758,2.01432,0.523043,0.399309,1.11132,4.79872,5.82401,88.7718,335.338
1359,76.5141,9.95276,15.1159,41.6923,0.284425,0.159818,0.946571,1.55753,1.00442,0.218973,1.15207,0.523043,0.682152,0.945271,5.75724,5.67865,122.325,338.297
1388,72.5798,10.2418,14.8325,41.9738,1.68963,0.744648,1.0681,2.35989,1.00442,1.03328,0.28983,0.523043,0.399309,0.779224,4.79872,5.49175,139.245,341.938
1417,80.3281,11.9821,17.2528,42.8876,1.37821,1.64088,3.48348,3.16226,1.90312,1.03328,-0.572413,0.523043,0.54073,1.11132,4.79872,5.34639,119.309,346.077
1446,71.6249,11.2343,15.8985,42.0475,1.19591,2.33964,1.50864,2.35989,1.00442,0.218973,1.15207,0.897995,0.54073,0.613177,3.8402,5.32563,111.578,349.833
1475,58.5755,6.82085,13.1373,39.9454,1.18072,1.15479,0.718705,3.16226,1.00442,1.03328,1.15207,0.523043,0.399309,0.779224,3.8402,4.99337,104.044,352.671
1504,58.6852,6.0826,8.88614,35.7512,1.02881,1.58012,2.48847,3.16226,0.105729,1.03328,1.15207,0.523043,0.54073,0.945271,3.8402,5.01413,84.3492,355.333
1533,56.5412,4.22288,9.43736,35.6545,0.778147,0.418055,2.00235,2.35989,1.00442,1.03328,1.15207,0.523043,0.399309,0.779224,2.88169,4.84801,90.2885,357.831
1562,45.0951,4.02029,8.58503,34.8948,1.25668,0.919337,0.23259,2.35989,0.105729,1.03328,0.28983,0.523043,0.54073,0.779224,3.8402,4.82724,108.728,360.874
1591,48.8882,5.60022,8.78661,33.8933,0.360382,0.281341,1.89601,1.55753,1.00442,1.03328,0.28983,0.523043,0.399309,0.945271,4.79872,4.66111,84.376,363.725
1620,38.397,3.28649,6.24492,32.076,0.565467,1.12441,0.308545,0.755166,0.105729,0.218973,0.28983,0.14809,0.399309,0.779224,4.79872,4.53651,75.6765,366.133
1649,42.8903,1.92969,5.84544,31.2707,0.0413616,0.790219,1.01493,2.35989,1.90312,1.03328,0.28983,0.523043,0.257887,0.613177,3.8402,4.49498,101.788,368.801
1678,46.1823,0.852156,3.73432,29.7986,0.709785,0.64591,0.733896,1.55753,1.00442,1.84758,1.15207,1.6479,0.399309,0.779224,5.75724,4.32885,90.4384,371.665
1707,40.4102,2.35006,4.0837,28.4854,-0.0953614,0.0534855,-0.0712322,3.16226,0.105729,1.03328,1.15207,0.897995,0.399309,0.779224,2.88169,4.20426,82.6623,374.225
1736,44.5324,2.32773,4.86535,29.2544,-0.0877657,0.494006,1.08329,0.755166,0.105729,1.03328,0.28983,0.14809,0.399309,0.613177,3.8402,4.14196,104.68,377.032
1765,36.883,0.675919,3.51976,28.3072,0.170489,2.12697,1.00734,3.16226,0.105729,1.03328,0.28983,0.897995,0.399309,0.779224,3.8402,4.05889,110.249,380.287
1782,40.0061,2.38756,5.00173,28.7483,0.0489573,0.258556,0.179421,2.35989,1.00442,1.03328,0.28983,0.14809,0.257887,0.779224,3.8402,3.97583,0.0,380.573