Folder: fsri_materials_database/01_Data/Accent_Chair/Furniture_Calorimeter

Note: README.md
# Materials and Products Database
### Repository of materials and products properties and fire test data to improve fire modeling and fire investigation.

This project was supported in part by Award No. 2019-DU-BX-0018, awarded by the National Institute of Justice, Office of Justice Programs, U.S. Department of Justice. The opinions, findings, and conclusions or recommendations expressed in this publication / program / exhibition are those of the author(s) and do not necessarily reflect those of the Department of Justice.

***
***

__Cite this database:__ "McKinnon, M., Weinschenk, C., Dow, N., DiDomizio, M., and Madrzykowski, D. Materials and Products Database (Version 1.0.0), Fire Safety Research Institute, UL Research Institutes. Columbia, MD 21045, 2023."

__Cite the Technical Reference Guide:__ "McKinnon, M., Weinschenk, C., and Madrzykowski, D. Materials and Products Database - Technical Reference Guide, Fire Safety Research Institute, UL Research Institutes. Columbia, MD 21045, 2023."

__Cite the User Guide:__ "McKinnon, M., and Weinschenk, C. Materials and Products Database - User Guide, Fire Safety Research Institute, UL Research Institutes. Columbia, MD 21045, 2023."

***
***

## Database Structure

## 01_Data/
Raw data generated from each apparatus are included here in plain-text format. The data is organized first by material, next by the short name of test apparatus used, and where applicable additional filtering by test settings.

### Test Apparatus and Data File Structure
- __Cone Calorimeter__ (Cone)
    + Data file structure includes the material, the short name for the apparatus, heat flux setting and scan/scalar, date of test, and replicate number. Scan is for the raw output data and scalar is for the initial conditions and high-level test parameters. 
        * Example: __MDF_Cone_HF25scalar_210323_R1__ stands for the first replicate of scalar data generated from a medium density fiber board test in cone calorimeter exposed to 25 kW/m<sup>2</sup> on March 23, 2021.
    + A _Cone_Notes.csv_ is generated for each material from the __plot_Cone_data.py__ script. For materials whose experiments deviated from typical behavior relevant pictures are included in the respective material directory.
- __Fourier Transform Infrared Spectrometer__ (FTIR)
    + The FTIR directory contains subdirectories for the Attenuated Total Reflectance method (ATR) and the Integrating Sphere (IS)
    + Data file structure for the ATR experiment files includes the material, the abbreviated name for the apparatus, date of test, and replicate number. 
        * Example: __MDF_ATR_210323_R5__ stands for the fifth replicate of data collected with the ATR accessory conducted on June 8, 2021.
    + Data file structure for the IS experiment files includes the material, the abbreviated name for the apparatus, the measurand, whether the test is a sample measurement or standard reference, date of test, and replicate number.
        * Example: __OSB_IS_REFLECT_MEAS_2

File: Accent_Chair_R1.csv
Time (s),Convective HRR,TCPlume1,TCPlume2,TCPlume3,DPPlume1,DPPlume2,DPPlume3,HF1,HF2,HF3,HF4,HF5,HF6,RAD2,RAD1,Load Cell,Heat Release Rate,Total Heat Released
-120,0.0,-7.84716,-7.8758,9.78068,-0.100595,-0.0217644,0.13506,0.0134851,-0.823175,0.239501,0.144915,0.226862,0.0998271,0.613177,1.92317,26.1333,0.0,0.0
-90,3.94022,-8.25093,-7.45689,10.1132,-0.115787,-0.0445499,0.0287227,0.0134851,-0.823175,0.239501,0.144915,-0.14809,0.0998271,0.779224,1.92317,26.424,0.0,0.0
-60,1.45001,-8.35828,-7.52494,9.89383,-0.0626168,-0.0445499,-0.00925508,-0.788878,0.0755206,1.05381,0.144915,0.226862,-0.0415946,0.613177,1.92317,26.1125,0.0,0.0
-30,3.94301,-8.20769,-8.27557,10.1171,0.0361276,0.00861639,0.00593601,0.0134851,0.0755206,-0.574803,1.00716,-0.523043,0.241249,0.613177,2.88169,26.2579,0.0,0.0
0,1.76624,-8.18609,-7.9796,9.75592,0.0437233,-0.0597403,-0.0852105,-0.788878,-1.72187,-0.574803,0.144915,0.601814,-0.0415946,0.613177,3.8402,26.2579,0.8923,0.0
30,2.03357,-8.13098,-7.41538,9.65676,0.0133404,-0.0141692,0.127465,0.0134851,0.0755206,0.239501,-1.57957,0.226862,-0.183016,0.779224,2.88169,26.0917,3.10543,0.0552956
60,3.78303,-8.06452,-7.70139,10.2186,0.0361276,0.0162116,0.173038,-0.788878,1.87291,1.05381,-0.717328,-0.523043,-0.183016,0.779224,2.88169,26.0917,5.16604,0.259585
90,1.16143,-8.55262,-6.9362,10.7748,0.165255,0.0541875,0.00593601,0.815849,0.974216,-0.574803,1.8694,0.226862,-0.0415946,0.447131,3.8402,26.2579,19.407,0.4773979
120,11.5292,-3.60088,-1.84686,14.7766,0.301978,0.935229,-0.00165953,3.22294,-0.823175,-0.574803,0.144915,0.226862,0.241249,0.613177,4.79872,26.2786,53.058,1.76836
150,29.5977,1.08511,1.05741,19.0986,-0.0398297,0.563065,0.575602,0.815849,0.974216,1.05381,1.00716,0.976767,-0.0415946,0.945271,3.8402,25.7387,49.0695,3.49599
180,61.9283,11.4472,13.8624,31.3372,0.993189,1.50487,3.02137,5.63003,1.87291,2.68241,1.8694,0.976767,0.665514,0.945271,6.71575,26.0294,294.113,7.98551
210,266.573,50.3304,61.5081,84.6887,6.55326,6.59365,5.89248,14.456,4.569,5.12533,3.59389,3.22648,1.93831,2.43969,15.3424,25.095,971.85,25.3459
240,667.453,184.763,252.668,318.843,8.20153,8.02914,13.564,43.3411,15.3533,16.5256,12.2163,11.1005,7.17092,7.25505,38.3468,23.4337,1341.83,62.8982
270,756.341,188.608,278.561,477.314,11.2474,9.45703,8.64967,41.7364,13.556,13.2684,12.2163,8.85077,5.47385,5.59458,38.3468,21.4401,748.549,97.0457
300,438.828,114.26,162.906,323.804,5.22401,8.25699,6.30264,14.456,4.569,5.12533,4.45613,2.47658,1.51404,1.7755,13.4254,19.6127,303.277,112.585
330,258.562,61.8507,95.7067,232.632,2.45157,3.58595,7.62427,10.4442,3.6703,2.68241,3.59389,1.35172,0.948358,1.44341,9.5913,19.2804,218.742,120.369
360,181.438,45.5133,69.2879,179.761,4.50241,1.81627,5.09495,5.63003,0.0755206,2.68241,1.8694,0.976767,0.665514,1.27736,7.67427,18.6159,187.059,126.017
390,167.825,33.0885,52.9928,144.222,0.788104,3.36569,3.12771,5.63003,1.87291,1.05381,1.8694,1.35172,0.665514,1.27736,7.67427,18.2006,193.915,131.854
420,160.822,37.3656,51.5629,125.717,2.77818,5.19613,3.62901,6.43239,2.77161,2.68241,1.8694,1.72667,0.665514,1.27736,6.71575,17.4323,223.205,138.421
450,201.839,43.7457,58.1726,118.554,2.17812,1.73272,2.8011,8.83948,1.87291,1.86811,2.73164,0.976767,0.665514,1.27736,8.63279,17.1415,296.35,146.701
480,239.544,50.7162,66.4085,118.372,1.98823,1.89982,7.35083,9.64185,1.87291,4.31102,2.73164,1.72667,0.948358,1.27736,9.5913,16.477,282.352,155.728
510,226.907,49.839,61.0197,109.347,3.68207,8.67473,5.08736,9.64185,1.87291,1.86811,1.8694,0.976767,0.806936,1.60946,10.5498,15.7917,274.954,164.044
540,231.684,48.3005,62.799,109.288,5.79369,4.89992,3.16568,8.03712,1.87291,2.68241,1.8694,1.72667,0.948358,1.27736,6.71575,15.1272,282.049,172.45
570,203.192,42.0974,54.4762,103.099,2.20091,2.57579,2.20864,8.83948,2.77161,2.68241,2.73164,1.35172,0.806936,1.27736,7.67427,14.6288,301.875,180.579
600,205.454,40.4113,51.4389,95.5602,2.20091,1.53525,1.66176,7.23476,1.87291,1.86811,1.8694,1.35172,0.806936,1.11132,6.71575,14.1512,250.107,188.314
630,190.774,37.0155,50.7362,89.7088,2.17053,4.91511,1.67696,8.03712,2.77161,1.86811,0.144915,0.976767,0.806936,1.27736,7.67427,13.6321,237.276,196.143
660,173.56,33.9307,42.1929,81.2843,2.29965,4.59611,2.35296,6.43239,1.87291,3.49672,1.8694,1.35172,0.806936,1.11132,5.75724,13.1544,205.7,203.242
690,172.178,31.014,39.4844,77.9565,3.30988,1.47449,0.507242,6.43239,0.974216,1.05381,2.73164,1.35172,0.665514,1.11132,6.71575,12.6561,234.03,210.195
720,172.136,30.643,41.6125,77.6312,0.780508,0.775731,2.35296,6.43239,1.87291,2.68241,1.00716,0.976767,0.665514,1.11132,6.71575,12.1161,255.881,217.604
750,178.726,34.0044,42.08,72.958,1.59325,1.80108,1.48707,5.63003,1.87291,1.86811,1.8694,1.35172,0.665514,0.779224,5.75724,11.8254,251.694,225.256
780,160.717,32.5897,43.3544,72.7113,1.61604,4.36066,1.38073,8.83948,0.974216,3.49672,1.00716,1.35172,0.806936,0.945271,8.63279,11.3478,286.909,233.415
810,189.923,40.2063,51.0878,79.1549,3.06682,4.41383,4.03158,5.63003,2.77161,1.05381,2.73164,0.976767,0.806936,1.27736,6.71575,10.7871,257.888,241.181
840,166.279,37.1569,46.8793,77.2212,2.64906,2.50743,1.06172,7.23476,0.974216,1.86811,0.144915,0.976767,0.948358,0.945271,7.67427,10.351,239.264,248.153
870,157.795,35.2763,45.0513,75.8537,1.64642,1.25423,1.61619,6.43239,2.77161,1.86811,1.00716,1.35172,0.806936,1.27736,8.63279,9.81111,247.867,255.504
900,161.799,31.0489,40.3391,74.6903,2.44397,1.97577,2.4517,7.23476,1.87291,2.68241,1.00716,0.976767,0.806936,1.11132,8.63279,9.47885,188.206,262.854
930,137.487,25.1598,35.3245,70.242,1.3274,2.28717,1.83646,6.43239,1.87291,1.86811,1.8694,1.35172,0.665514,1.27736,6.71575,9.18812,202.049,268.994
960,152.681,22.4952,28.6629,63.5821,1.16789,2.64415,6.2039,4.0253,0.974216,1.86811,1.8694,0.601814,0.948358,1.11132,5.75724,8.35748,242.765,275.971
990,154.667,26.1898,36.0082,69.0047,1.13751,0.730159,1.4339,4.82767,0.974216,1.86811,1.8694,0.976767,0.806936,1.44341,6.71575,8.14982,261.223,283.433
1020,147.845,25.5205,33.2471,64.6099,2.08697,0.920039,0.962975,4.0253,0.974216,2.68241,0.144915,1.72667,0.948358,0.945271,5.75724,7.83832,234.948,290.914
1050,159.928,27.7303,37.3104,67.4575,2.61867,0.942825,1.35035,5.63003,1.87291,1.05381,1.8694,1.35172,0.665514,0.945271,4.79872,7.33994,231.986,298.02
1080,141.201,22.4559,31.5951,63.691,1.28183,0.441542,0.537624,3.22294,-0.823175,2.68241,1.8694,0.976767,0.665514,0.945271,6.71575,6.98691,210.045,304.77
1110,127.601,16.8471,23.9537,57.1539,1.60844,1.07194,0.583197,4.0253,0.0755206,1.05381,0.144915,1.35172,0.806936,1.11132,4.79872,6.82079,182.602,310.871
1140,109.947,12.1532,21.6004,54.1627,0.879253,4.26192,3.54546,3.22294,0.974216,1.05381,1.8694,0.976767,0.665514,1.44341,3.8402,6.53006,154.013,315.945
1170,100.23,11.209,16.292,50.0356,0.719743,1.33777,1.06931,4.0253,0.974216,1.05381,0.144915,0.226862,0.665514,1.27736,4.79872,6.17704,173.947,321.217
1200,91.6316,10.6193,15.4757,46.6496,1.61604,2.12767,1.01614,2.42058,-0.823175,2.68241,1.00716,0.976767,0.806936,0.945271,3.8402,6.01091,159.016,326.299
1230,81.6507,9.41788,14.4683,44.1839,2.38321,1.58842,1.88963,1.61821,0.0755206,1.05381,0.144915,0.976767,0.665514,0.945271,4.79872,5.80325,196.242,331.488
1260,78.0404,8.29231,13.689,41.974,-0.00185106,0.0921635,0.0667004,2.42058,0.0755206,1.05381,0.144915,0.976767,0.665514,0.945271,3.8402,5.67865,162.393,336.42
1290,78.7816,7.5704,11.9767,40.2282,0.051319,0.616232,0.0742959,0.815849,0.974216,1.05381,1.8694,1.35172,0.241249,0.779224,4.79872,5.51252,165.143,341.237
1320,71.6449,4.6451,7.75579,35.9548,0.241212,0.228877,0.233802,2.42058,0.974216,-0.574803,1.00716,0.601814,0.524092,0.779224,4.79872,5.32563,138.855,345.89
1350,70.3499,4.50797,7.38921,33.9107,0.317169,0.958015,1.04653,0.815849,1.87291,1.05381,0.144915,0.601814,0.241249,0.945271,3.8402,5.18026,167.102,350.872
1380,61.6502,1.39562,6.2301,32.8497,0.317169,0.844087,0.993357,1.61821,1.87291,1.05381,0.144915,0.226862,0.382671,0.945271,3.8402,4.99337,126.25,355.604
1410,57.3792,1.94204,4.70939,31.2827,0.0665105,0.464328,0.393309,2.42058,0.0755206,1.05381,0.144915,0.976767,0.665514,0.945271,4.79872,4.99337,131.489,359.646
1440,60.098,3.99283,6.60651,30.7401,1.58566,0.752945,0.773086,0.815849,0.974216,1.86811,1.00716,0.976767,0.524092,0.779224,5.75724,4.84801,140.018,363.85
1470,55.1999,4.12368,7.04341,30.9062,0.712147,0.768135,1.00855,3.22294,0.974216,0.239501,1.00716,0.226862,0.382671,0.613177,4.79872,4.70264,149.978,368.304
1500,48.2764,2.56433,7.16861,32.3064,1.00078,0.55547,2.06433,2.42058,0.0755206,1.86811,1.00716,0.976767,0.524092,0.613177,3.8402,4.68188,169.252,372.939
1530,50.3237,2.54203,6.34273,31.3455,0.545041,0.33521,0.811064,2.42058,0.0755206,1.86811,1.8694,0.976767,0.382671,1.11132,3.8402,4.51575,153.783,377.801
1560,39.1137,1.03216,4.06749,29.185,0.233616,0.152925,1.02374,1.61821,0.974216,1.86811,0.144915,0.226862,0.241249,0.779224,4.79872,4.39115,123.036,382.103
1590,44.8854,0.954857,4.29647,28.9207,0.188042,1.67196,0.83385,2.42058,1.87291,1.05381,0.144915,0.226862,0.382671,0.945271,3.8402,4.30809,146.413,386.591
1620,42.6504,0.0632955,3.32813,27.6661,0.256404,0.471923,0.674344,0.815849,1.87291,1.05381,1.8694,0.226862,0.524092,0.945271,4.79872,4.22502,140.004,391.25
1650,40.0084,-1.69231,2.69321,27.9834,0.0665105,0.282043,0.0515093,2.42058,0.0755206,0.239501,-0.717328,0.226862,0.382671,0.945271,4.79872,4.18349,166.608,395.983
1680,39.5737,0.253923,2.33188,26.1182,0.226021,0.0238068,0.347736,2.42058,-0.823175,1.05381,0.144915,0.226862,0.241249,0.779224,2.88169,4.01736,150.578,400.884
1710,40.5953,-0.965566,1.30852,25.3729,-0.0626168,0.114949,0.651557,0.815849,0.974216,0.239501,0.144915,0.226862,0.382671,0.779224,4.79872,3.85123,162.77,405.83
1740,43.9753,0.356843,2.2051,25.1242,0.0892976,1.20866,1.17565,2.42058,0.974216,0.239501,1.00716,0.601814,0.382671,0.779224,3.8402,3.83047,149.81,410.721
1770,44.2214,0.137572,2.13891,26.4188,0.0361276,0.320019,0.803468,1.61821,0.974216,-0.574803,1.8694,0.226862,0.241249,0.945271,3.8402,3.66434,0.0,415.508
1783,36.7561,-0.944643,1.71217,25.5824,0.0589147,0.107354,0.157847,1.61821,0.974216,1.05381,1.00716,0.226862,0.241249,1.11132,2.88169,3.66434,0.0,415.508

File: Accent_Chair_R2.csv
Time (s),Convective HRR,TCPlume1,TCPlume2,TCPlume3,DPPlume1,DPPlume2,DPPlume3,HF1,HF2,HF3,HF4,HF5,HF6,RAD2,RAD1,Load Cell,Heat Release Rate,Total Heat Released
-120,0.0,5.30144,6.65162,16.8203,0.0695743,-0.00434011,0.0297439,-0.0269702,0.0755206,0.143701,0.384024,0.248918,-0.0677398,0.447131,1.92317,26.8601,0.0,0.0
-91,0.0,3.57869,5.5417,16.5157,0.0619786,0.0640166,-0.0158294,-0.829334,-0.823175,-0.670604,-0.478219,-0.126034,0.0736819,0.281084,1.92317,26.9224,0.0,0.0
-62,0.0,2.38624,4.34942,16.0913,0.0543828,0.0108503,-0.0841893,-0.829334,0.974216,0.958005,0.384024,0.62387,-0.0677398,0.447131,1.92317,27.0677,0.0,0.0
-33,0.0,1.51119,3.28291,15.4492,0.0543828,0.0260406,0.0145528,1.57776,-0.823175,-1.48491,-0.478219,-0.126034,-0.209162,0.115037,0.964651,27.047,0.0,0.0
-4,0.0,0.799965,3.10762,15.0461,0.0847657,0.0564214,0.0145528,-0.829334,-0.823175,0.958005,0.384024,-0.126034,0.0736819,0.281084,1.92317,27.2546,0.0,0.0
25,0.0,1.17172,2.13934,14.6538,0.0847657,0.0488262,-0.0158294,0.775393,0.0755206,0.143701,1.24627,-0.126034,0.0736819,0.447131,1.92317,27.2131,0.0,0.0
54,0.0,0.553686,1.48292,14.267,0.00880849,0.00325508,0.0753172,-0.0269702,-0.823175,0.958005,-0.478219,0.248918,0.0736819,0.447131,3.8402,27.2546,0.0,0.0
83,0.0,0.793984,1.99127,14.1251,0.0239999,-0.0954824,-0.0538071,0.775393,0.0755206,0.958005,-0.478219,0.62387,-0.0677398,0.613177,2.88169,27.2131,0.0,0.0
112,0.0,1.82211,3.05782,15.3014,0.502531,0.436181,0.644983,0.775393,0.0755206,0.958005,0.384024,-0.126034,0.356525,0.447131,1.92317,27.2339,9.83968,0.026132
141,0.0,8.60723,10.7585,22.1912,2.46223,1.33241,0.508263,1.57776,0.0755206,1.77231,0.384024,0.248918,0.0736819,0.613177,3.8402,27.2754,74.1857,1.41871
170,8.52751,19.64,22.0785,34.8664,3.03191,2.90462,2.10333,4.78721,0.974216,0.143701,1.24627,0.998823,0.215104,0.779224,5.75724,27.0054,208.859,4.93615
199,114.666,48.0938,53.4277,64.0158,3.3965,4.30213,2.90846,10.4038,3.6703,5.84383,2.97075,1.74873,1.62932,1.60946,9.5913,26.7355,646.529,16.1625
228,407.755,134.811,159.423,185.184,7.4906,2.82107,7.56452,33.6723,16.252,15.6155,10.7309,9.62273,6.15482,6.09272,32.5957,25.3857,1402.98,45.9814
257,704.54,173.998,241.095,366.032,3.3965,10.3935,1.33618,44.103,17.1507,16.4298,12.4554,8.87282,6.15482,5.92667,39.3053,23.579,1117.76,82.9481
286,569.519,135.397,193.276,327.278,5.03718,8.49468,8.53675,21.6368,6.36639,7.47244,7.28197,3.62349,2.47785,2.43969,17.2594,22.2915,683.21,107.151
315,381.175,103.336,149.319,268.023,5.23467,6.83133,5.24029,21.6368,5.46769,8.28674,5.55748,3.62349,2.19501,2.1076,19.1765,20.7548,414.601,123.189
344,250.332,69.5801,99.9673,211.9,5.55369,3.75528,4.46554,13.6132,3.6703,4.21522,4.69524,1.74873,1.20506,1.27736,10.5498,20.1111,299.704,133.001
373,175.541,51.4367,74.385,169.989,1.77102,2.37295,4.92887,8.79903,0.974216,2.58661,2.97075,0.998823,0.780791,0.945271,6.71575,19.5919,218.454,140.086
402,130.974,43.5457,61.8727,141.733,0.9127,1.59065,3.93385,7.99667,2.77161,1.77231,3.833,0.998823,0.639369,1.11132,5.75724,18.9274,246.334,146.719
431,160.813,43.8586,58.1003,125.84,3.2142,2.37295,2.61223,7.99667,2.77161,2.58661,2.10851,1.37378,0.497947,1.11132,8.63279,18.4083,241.153,154.213
460,161.012,52.053,66.5987,124.428,3.65476,4.43125,2.05775,8.79903,2.77161,3.40092,2.10851,1.37378,1.06363,0.945271,6.71575,17.9307,267.327,161.747
489,180.261,54.4987,68.5534,120.216,4.52067,7.56806,5.82515,7.1943,3.6703,2.58661,2.10851,0.998823,0.780791,1.11132,8.63279,17.2869,257.699,169.594
518,143.863,44.107,59.2663,109.988,3.96618,3.95275,1.51847,7.1943,2.77161,2.58661,2.97075,1.37378,0.922213,0.945271,6.71575,16.7678,223.016,176.523
547,121.127,39.6788,49.8252,96.9719,3.73831,4.87937,3.26545,7.1943,1.87291,2.58661,1.24627,1.37378,0.922213,1.27736,6.71575,16.2694,257.718,183.57
576,134.393,41.5516,54.1933,95.2872,3.35093,2.12231,3.02239,7.1943,1.87291,2.58661,2.97075,1.74873,0.780791,1.27736,6.71575,15.7917,222.973,190.281
605,112.432,40.7321,51.7569,93.7034,1.99129,2.74512,2.45272,7.99667,3.6703,3.40092,2.10851,1.37378,0.780791,1.11132,7.67427,15.3141,232.19,197.309
634,134.599,37.2307,46.6188,85.4007,3.63956,2.4565,3.15151,8.79903,3.6703,2.58661,2.97075,1.37378,1.06363,1.27736,6.71575,14.795,240.876,204.77
663,120.428,38.6491,48.6186,83.7484,2.12042,5.13001,1.21465,7.1943,2.77161,1.77231,1.24627,1.74873,0.780791,1.11132,9.5913,14.2758,268.983,211.747
692,121.309,36.1887,47.4757,80.8546,3.32814,0.831131,1.9742,7.1943,1.87291,2.58661,0.384024,0.998823,0.780791,1.11132,6.71575,13.9643,255.906,218.623
721,136.074,34.2045,45.2136,77.5532,0.426573,0.960249,1.53366,7.99667,1.87291,2.58661,2.97075,1.37378,0.780791,1.11132,7.67427,13.4452,242.245,226.277
750,122.39,37.1597,44.8792,78.3596,2.1508,5.66927,1.33618,7.1943,2.77161,2.58661,3.833,1.37378,0.639369,1.11132,6.71575,12.9468,212.506,233.363
779,114.156,36.7483,46.5851,76.3422,3.2142,2.02358,4.69341,7.1943,2.77161,2.58661,2.97075,1.37378,0.639369,1.11132,7.67427,12.6353,251.947,240.332
808,137.49,41.4846,50.0647,84.3757,0.981061,2.31219,5.77198,7.99667,3.6703,3.40092,2.97075,1.74873,0.780791,0.945271,7.67427,12.0954,239.381,247.522
837,114.275,42.1858,53.3095,82.6451,3.53322,1.84129,2.05016,7.1943,1.87291,3.40092,2.97075,1.37378,1.06363,1.11132,6.71575,11.6801,250.327,254.687
866,114.583,41.7443,52.7978,84.4116,0.616466,2.80588,2.12611,7.1943,1.87291,3.40092,2.10851,0.998823,1.06363,1.11132,7.67427,11.1194,278.084,262.078
895,121.378,37.9366,47.3563,83.782,5.47013,4.43885,4.66303,8.79903,2.77161,3.40092,2.97075,1.37378,0.639369,1.11132,7.67427,10.8079,239.366,269.317
924,138.128,35.0468,45.5657,83.771,1.48238,3.36033,4.73139,7.99667,2.77161,3.40092,3.833,1.37378,0.639369,1.27736,9.5913,10.4341,255.534,276.611
953,125.583,39.5931,48.8523,84.1637,3.70793,2.72993,2.51349,9.60139,2.77161,3.40092,2.97075,1.74873,1.06363,1.27736,8.63279,9.97723,290.772,284.438
982,117.801,41.131,53.4076,88.2502,3.62437,4.26416,2.46791,9.60139,2.77161,3.40092,2.10851,0.998823,1.06363,1.60946,7.67427,9.45808,257.328,292.112
1011,98.9973,35.5961,47.7037,85.1908,1.03423,0.352634,0.926018,7.99667,2.77161,2.58661,3.833,1.37378,1.06363,1.11132,8.63279,9.16736,237.546,298.801
1040,87.5056,35.1412,46.1044,81.9921,4.96122,1.64382,3.15151,7.99667,1.87291,1.77231,3.833,0.998823,1.20506,0.945271,8.63279,8.8351,216.896,305.113
1069,81.8022,34.2046,44.5456,79.754,2.49261,5.31229,2.23245,7.99667,2.77161,2.58661,2.97075,0.998823,0.780791,1.27736,6.71575,8.48207,211.925,310.855
1098,68.3184,28.4779,38.8351,75.7402,1.48238,2.72233,3.349,6.39194,1.87291,2.58661,1.24627,0.998823,0.639369,1.11132,6.71575,7.85909,181.062,316.701
1127,73.6338,26.4038,35.1725,72.146,1.35325,3.89959,2.61982,6.39194,2.77161,2.58661,2.10851,1.37378,0.780791,1.11132,4.79872,7.50607,175.461,322.195
1156,45.603,22.3954,31.4223,67.0461,0.28985,0.0184455,2.29322,6.39194,3.6703,1.77231,1.24627,0.998823,0.497947,0.945271,4.79872,7.31917,160.328,326.798
1185,32.1525,19.1457,28.1287,62.2741,1.22282,0.262352,1.79806,5.89162,1.81213,2.22332,2.83046,1.55266,0.675858,0.897208,7.08183,7.06766,188.653,331.651
1214,46.2503,22.4215,30.9222,63.3627,2.61414,4.63632,1.3058,4.78721,2.77161,2.58661,1.24627,0.62387,0.497947,1.11132,5.75724,6.80002,182.029,337.01
1243,42.2191,19.1535,26.812,61.1517,0.905104,1.73496,3.55408,4.78721,2.77161,3.40092,0.384024,0.998823,0.497947,0.779224,5.75724,6.65466,179.262,341.988
1272,38.0335,19.7497,26.0459,60.0006,0.988657,0.709608,0.196846,4.78721,2.77161,2.58661,2.10851,0.62387,0.497947,0.945271,4.79872,6.48853,180.846,347.076
1301,43.0144,19.451,26.0132,58.4232,1.82419,1.37039,3.93385,3.18248,0.974216,2.58661,2.97075,0.998823,0.780791,0.945271,4.79872,6.09397,174.785,352.393
1330,40.2481,21.7215,29.2494,58.8224,0.373403,0.777964,0.280397,4.78721,1.87291,2.58661,3.833,1.37378,0.780791,0.945271,3.8402,5.96938,182.208,357.671
1359,30.0062,18.9725,25.2729,56.7808,1.6191,2.54764,0.758916,3.98485,3.6703,1.77231,1.24627,1.37378,0.639369,0.945271,3.8402,5.80325,176.877,363.173
1388,23.9477,18.4726,24.6246,55.1165,0.981061,0.702013,0.136082,3.18248,2.77161,1.77231,1.24627,0.998823,0.639369,0.945271,3.8402,5.65788,164.952,368.127
1417,19.768,15.7599,22.1532,51.8207,0.373403,1.11975,0.508263,3.98485,1.87291,1.77231,1.24627,0.998823,0.497947,0.779224,4.79872,5.45022,172.44,372.585
1446,16.5347,15.2969,21.2376,50.4844,1.14817,0.512133,1.91344,3.18248,1.87291,2.58661,2.10851,0.62387,0.356525,0.779224,4.79872,5.32563,142.557,377.392
1475,1.56764,10.4833,16.5205,46.2941,0.403786,0.269087,0.720939,2.38012,1.87291,1.77231,1.24627,0.62387,0.497947,0.779224,2.88169,5.13873,134.344,381.645
1504,0.0,9.63662,14.267,42.351,0.798764,0.21592,0.432308,3.18248,0.974216,1.77231,1.24627,0.248918,0.356525,0.945271,1.92317,5.0349,161.606,385.787
1533,0.0,8.24867,12.8061,40.7017,0.327829,0.337443,0.287992,3.18248,1.87291,2.58661,2.10851,0.62387,0.497947,0.613177,3.8402,5.01413,149.488,389.992
1562,0.0,9.65191,14.8159,40.467,1.095,1.81851,0.447499,2.38012,1.87291,2.58661,2.97075,0.998823,0.215104,0.779224,3.8402,4.80647,138.685,394.031
1591,0.0,10.263,14.8154,40.1684,0.722806,0.80075,2.22486,3.98485,0.974216,1.77231,1.24627,0.62387,0.356525,0.945271,2.88169,4.66111,149.806,398.036
1620,0.0,8.1488,12.0194,37.6945,0.624062,0.155159,0.318375,2.38012,2.77161,1.77231,1.24627,1.37378,0.497947,0.613177,2.88169,4.66111,143.783,402.042
1649,0.0,5.91813,10.2508,36.7863,0.669636,1.27165,0.895636,3.18248,0.974216,1.77231,1.24627,0.998823,0.497947,0.613177,3.8402,4.47422,132.132,405.894
1678,0.0,7.02196,10.5888,36.0325,1.57353,0.4058,1.3058,3.18248,1.87291,2.58661,2.97075,0.62387,0.356525,0.779224,4.79872,4.32885,133.6,409.642
1707,0.0,5.32101,9.76927,34.893,0.624062,0.648846,0.895636,3.98485,1.87291,1.77231,2.10851,0.998823,0.215104,0.613177,2.88169,4.16272,113.99,413.201
1736,0.0,4.25975,7.2941,32.2034,0.312637,0.246301,0.158868,3.18248,0.974216,0.958005,1.24627,0.62387,0.639369,0.779224,5.75724,4.16272,140.073,416.743
1765,0.0,6.15114,8.95453,32.7444,0.267063,0.664037,1.58683,1.57776,1.87291,1.77231,2.10851,0.998823,0.497947,0.779224,3.8402,3.97583,118.41,420.759
1781,0.0,4.93138,8.00351,31.6981,0.0543828,-0.110673,0.128486,3.18248,1.87291,1.77231,2.10851,1.37378,0.639369,1.11132,2.88169,4.01736,0.0,420.92