Folder: fsri_materials_database/01_Data/Pressure_Treated_Deck/Cone (part 3)

File: Pressure_Treated_Deck_Cone_HF25Scan_230614_R4.csv
Names,Time,Stack TC,Smoke TC,Exh Press,Smoke Comp,Smoke Meas,CO Meter,CO2 Meter,O2 Meter,Sample Mass,Ext Coeff,Start Test,Flame Verif
Chan Gain,,500,500,1,1,1,1,1,1,1,1,1.0,1.0
Offset,,0,0,0.13972,0,0,0,0,0,0,0,0.0,0.0
Gain,,1,1,25.011,13.3261,15.6582,1,1,1,1.0009,1.01862,1.0,1.0
Units,sec,C,C,Pa,%,%,%,%,%,g,/m,,
Baseline,,18.5049,20.0119,165.231,99.736,100.259,0.000623745,0.0494177,20.9535,-443.694,-0.0466999,,
65,16,17.3231,19.7014,166.118,100.18,100.616,0.00122687,0.0586691,20.9407,208.909,-0.0388344,0.0,0.0
130,32.25,17.6143,19.3331,167.18,100.403,100.595,0.000865448,0.058443,20.9485,208.559,-0.0170754,0.0,0.0
195,48.5,18.3213,19.1027,163.55,100.429,100.543,0.000760684,0.0532317,20.9523,208.428,-0.0101675,0.0,0.0
260,64.75,17.9988,20.7173,168.016,100.165,100.414,0.000798047,0.051964,20.9564,208.198,-0.0221717,0.0,0.0
325,81,19.0055,19.9544,162.002,99.7097,99.476,0.000624672,0.0518377,20.9544,208.038,0.0209655,0.0,0.0
390,97.25,18.8393,20.9209,164.171,99.972,99.2873,0.000638859,0.0552589,20.9541,207.748,0.0614114,0.0,0.0
455,113.5,19.1811,21.0444,163.364,100.333,99.1291,0.000944413,0.0547068,20.9495,207.468,0.107839,0.0,0.0
520,129.75,19.4541,21.5212,164.544,100.146,98.9055,0.000859711,0.0514004,20.9532,207.127,0.111416,0.0,0.0
585,146,20.04,20.9836,163.255,99.3624,97.353,0.00137635,0.0519853,20.9575,206.807,0.182556,0.0,0.0
650,162.25,20.2553,22.5771,163.05,99.2213,99.3422,0.00178945,0.0535151,20.9569,206.296,-0.0108846,0.0,1.0
715,178.5,26.1272,36.0184,148.236,100.056,99.5468,0.00206737,0.249367,20.8195,204.555,0.045612,0.0,0.0
780,194.75,32.6572,43.2556,148.039,100.781,99.9773,0.00289802,0.369265,20.5892,202.583,0.0715337,0.0,0.0
845,211,35.3396,44.6902,150.626,100.955,99.66,0.00309041,0.336964,20.6226,200.771,0.115355,0.0,0.0
910,227.25,37.2933,44.1899,149.273,100.966,99.316,0.00288404,0.326797,20.6328,198.92,0.147264,0.0,0.0
975,243.5,37.8874,45.0453,151.741,100.983,99.077,0.00244158,0.312303,20.6589,197.308,0.170296,0.0,0.0
1040,259.75,38.8424,45.3825,148.602,100.965,100.059,0.00342209,0.302377,20.6646,195.567,0.0805099,0.0,0.0
1105,276,38.6664,44.1345,153.165,100.9,99.801,0.00262372,0.28336,20.6843,194.055,0.097902,0.0,0.0
1170,292.25,38.4333,43.7848,148.589,100.683,100.14,0.00279969,0.267632,20.7052,192.454,0.0483319,0.0,0.0
1235,308.5,38.5208,43.087,149.661,100.344,100.643,0.00271741,0.258202,20.719,191.063,-0.0266037,0.0,0.0
1300,324.75,38.188,42.2574,150.578,99.9118,99.25,0.00271514,0.24791,20.7309,189.651,0.0593854,0.0,0.0
1365,341,37.2733,42.4903,152.265,99.5247,99.6151,0.0029315,0.236396,20.7473,188.27,-0.00811331,0.0,0.0
1430,357.25,37.3318,41.7391,151.868,99.214,99.2792,0.00294089,0.230392,20.753,186.859,-0.00586779,0.0,0.0
1495,373.5,36.8434,41.2539,150.502,99.1936,99.6356,0.00265592,0.225412,20.7643,185.558,-0.0397256,0.0,0.0
1560,389.75,37.5249,41.3544,149.532,99.5483,100.118,0.00272963,0.225153,20.7615,184.187,-0.0509732,0.0,0.0
1625,406,36.8032,40.6833,152.514,100.063,100.314,0.00291738,0.214154,20.77,182.925,-0.0224269,0.0,0.0
1690,422.25,36.5503,40.5553,151.8,100.397,100.526,0.0031767,0.204625,20.7792,181.584,-0.01154,0.0,0.0
1755,438.5,36.6002,39.4949,151.685,100.123,100.898,0.00291664,0.202112,20.7875,180.293,-0.0688736,0.0,0.0
1820,454.75,36.7461,39.8468,152.336,99.7333,99.7059,0.00308634,0.202287,20.7873,179.002,0.00245806,0.0,0.0
1885,471,36.2611,39.7957,149.383,100.383,100.745,0.00269811,0.202474,20.7857,177.591,-0.0321234,0.0,0.0
1950,487.25,36.0629,39.8496,152.092,100.292,100.146,0.00316993,0.201947,20.7876,176.46,0.0129834,0.0,0.0
2015,503.5,36.6752,40.08,152.018,100.516,100.564,0.00261017,0.202766,20.7861,175.108,-0.00429631,0.0,0.0
2080,519.75,35.7647,39.7457,149.784,100.953,100.97,0.00273081,0.203966,20.7867,173.907,-0.00149828,0.0,0.0
2145,536,36.3069,40.1751,153.913,100.899,100.776,0.00309674,0.204095,20.7875,172.676,0.0108623,0.0,0.0
2210,552.25,36.0431,39.9075,150.473,100.857,100.637,0.00259166,0.200238,20.7904,171.545,0.0195319,0.0,0.0
2275,568.5,36.3172,39.9102,150.312,100.915,101.061,0.00249822,0.197373,20.7918,170.304,-0.0129074,0.0,0.0
2340,584.75,36.5188,39.5053,156.986,100.895,100.804,0.00292284,0.197027,20.7936,169.203,0.00800219,0.0,0.0
2405,601,36.3454,39.5483,149.944,100.575,100.809,0.00252684,0.195623,20.7955,168.062,-0.0207677,0.0,0.0
2470,617.25,36.5096,39.4199,153.6,100.152,100.319,0.00268703,0.195496,20.7962,166.981,-0.0149029,0.0,0.0
2535,633.5,36.3604,39.5329,151.478,100.429,100.452,0.00253481,0.195164,20.7931,165.87,-0.0020592,0.0,0.0
2600,649.75,36.045,39.0464,151.311,100.239,100.262,0.00268388,0.193574,20.7946,164.729,-0.00207625,0.0,0.0
2665,666,35.9293,39.4492,154.078,99.687,99.5898,0.00265271,0.193661,20.7964,163.608,0.00871518,0.0,0.0
2730,682.25,35.7408,38.9735,156.402,99.7597,99.9319,0.0024006,0.192697,20.801,162.487,-0.015407,0.0,0.0
2795,698.5,35.5995,38.3637,150.141,99.7825,99.746,0.00278356,0.193496,20.7983,161.326,0.00326839,0.0,0.0
2860,714.75,35.7044,38.3215,149.344,99.7097,99.6748,0.00292489,0.195511,20.7953,160.245,0.00312891,0.0,0.0
2925,731,36.0811,38.9865,150.946,99.8968,99.8526,0.00241844,0.197174,20.794,159.194,0.00395514,0.0,0.0
2990,747.25,36.2231,39.3093,154.418,100.368,100.386,0.00227181,0.198944,20.7952,158.033,-0.00157818,0.0,0.0
3055,763.5,36.571,39.3148,151.789,100.475,100.841,0.00250212,0.199227,20.7948,157.002,-0.032497,0.0,0.0
3120,779.75,36.9804,39.7381,155.525,100.161,100.43,0.00234949,0.201348,20.7909,155.751,-0.0239802,0.0,0.0
3185,796,36.9996,40.456,151.416,100.31,100.939,0.00257115,0.204402,20.7875,154.74,-0.0557962,0.0,0.0
3250,812.25,36.3538,40.2579,152.359,100.706,100.603,0.00248667,0.207459,20.7849,153.629,0.00920361,0.0,0.0
3315,828.5,37.1889,40.788,150.793,100.961,101.654,0.0022306,0.210034,20.7793,152.518,-0.0610449,0.0,0.0
3380,844.75,37.6263,41.1678,151.908,100.789,101.085,0.00209311,0.212855,20.7769,151.407,-0.0262004,0.0,0.0
3445,861,38.563,42.2822,145.833,100.204,100.579,0.00209939,0.22254,20.7678,150.286,-0.0334261,0.0,0.0
3510,877.25,39.3374,43.3165,145.687,99.4995,99.6242,0.00196375,0.227401,20.7633,149.095,-0.0111918,0.0,0.0
3575,893.5,39.3737,43.7854,148.277,99.1827,99.1889,0.00175588,0.230412,20.7587,147.834,-0.000557631,0.0,0.0
3640,909.75,39.8521,44.5198,147.065,99.2937,98.9198,0.00207319,0.23791,20.7504,146.613,0.0337063,0.0,0.0
3705,926,40.4908,45.0523,145.077,99.6914,99.5558,0.00207496,0.24611,20.7429,145.311,0.0121602,0.0,0.0
3770,942.25,40.9064,45.2058,146.895,100.179,100.138,0.00221347,0.25911,20.7274,143.96,0.00363041,0.0,0.0
3835,958.5,41.7201,46.8036,144.001,100.367,100.16,0.00221695,0.264666,20.7178,142.689,0.0184541,0.0,0.0
3900,974.75,42.8617,47.9044,148.473,100.38,100.004,0.0023482,0.281135,20.6991,141.168,0.0335991,0.0,0.0
3965,991,43.8445,48.9647,145.555,100.369,99.8765,0.002141,0.29406,20.6827,139.666,0.0439862,0.0,0.0
4030,1007.25,44.5722,50.4398,148.545,100.328,98.9332,0.00243436,0.306664,20.668,138.185,0.125118,0.0,0.0
4095,1023.5,45.7811,52.1055,152.105,100.116,99.0173,0.00241649,0.322011,20.6529,136.503,0.0985995,0.0,0.0
4160,1039.75,47.3245,53.6377,147.36,99.6479,98.6575,0.00301519,0.332436,20.6383,134.942,0.0892534,0.0,0.0
4225,1056,48.4063,54.709,141.681,99.227,97.5823,0.00279894,0.338488,20.6294,133.13,0.149342,0.0,0.0
4290,1072.25,48.7991,55.3851,144.307,99.1627,97.8671,0.00289646,0.343942,20.6183,131.479,0.117514,0.0,0.0
4355,1088.5,49.1769,55.8614,143.812,99.5109,97.675,0.00296288,0.351274,20.6148,129.677,0.166383,0.0,0.0
4420,1104.75,49.6577,55.678,147.354,100.148,98.7072,0.00260907,0.350162,20.6104,128.036,0.129496,0.0,0.0
4485,1121,50.4398,55.3027,144.008,100.619,98.3536,0.00233113,0.360607,20.6016,126.254,0.203517,0.0,0.0
4550,1137.25,50.9551,57.1073,146.276,100.771,98.3196,0.0026993,0.360416,20.6016,124.493,0.220024,0.0,0.0
4615,1153.5,51.4164,58.0362,145.573,100.76,98.6508,0.00312322,0.369978,20.5892,122.661,0.189007,0.0,0.0
4680,1169.75,52.0427,58.2228,142.612,100.639,98.1189,0.00340233,0.375013,20.5822,120.809,0.226556,0.0,0.0
4745,1186,52.647,58.9341,142.718,100.369,97.5173,0.0032255,0.38134,20.5727,118.958,0.257503,0.0,0.0
4810,1202.25,53.648,59.815,149.786,99.8895,97.3979,0.0037043,0.38695,20.5666,117.116,0.225704,0.0,0.0
4875,1218.5,53.039,59.6198,139.879,99.3803,96.7929,0.00396283,0.376992,20.5654,115.294,0.235715,0.0,0.0
4940,1234.75,52.8176,57.8419,143.457,99.1497,95.9098,0.00370733,0.365771,20.5806,113.563,0.296852,0.0,0.0
5005,1251,52.6282,57.551,142.938,99.4494,97.146,0.00298393,0.353944,20.5982,112.081,0.209389,0.0,0.0
5070,1267.25,50.9154,56.4124,145.595,99.996,97.383,0.00281323,0.323051,20.6278,110.66,0.23659,0.0,0.0
5135,1283.5,50.0322,53.4269,147.931,100.374,98.1175,0.00257492,0.287925,20.6625,109.419,0.20315,0.0,0.0
5200,1299.75,48.1527,50.9107,148.513,100.26,97.8155,0.00259421,0.252921,20.6979,108.388,0.220515,0.0,0.0
5265,1316,45.5468,47.0022,151.385,99.7541,98.0224,0.00282795,0.209761,20.7556,107.777,0.15647,0.0,0.0
5330,1332.25,42.759,43.135,152.49,100.353,99.9759,0.00399711,0.173068,20.7957,107.117,0.0336862,0.0,0.0
5395,1348.5,40.1944,40.0418,153.525,100.055,99.7006,0.00563501,0.141214,20.8375,106.787,0.0317377,0.0,0.0
5460,1364.75,37.5242,36.7304,156.325,100.643,100.492,0.00660511,0.121012,20.8634,106.576,0.0134184,0.0,0.0
5525,1381,35.7132,35.7853,162.216,100.907,100.768,0.00718085,0.114879,20.8764,106.246,0.0123389,0.0,0.0
5590,1397.25,34.4404,34.0552,152.482,100.268,99.8784,0.00832787,0.116624,20.8729,106.066,0.0347589,0.0,0.0
5655,1413.5,33.3043,33.479,154.958,99.5536,99.3537,0.0085265,0.110709,20.8759,105.816,0.0179555,0.0,0.0
5720,1429.75,30.851,31.0967,157.279,99.2961,99.2476,0.00716922,0.105824,20.8882,105.475,0.00436504,0.0,0.0
5785,1446,30.3233,30.7455,155.895,99.2717,99.1731,0.00850951,0.102216,20.8954,105.385,0.00888331,0.0,0.0
5850,1462.25,28.9326,29.4761,155.264,99.4621,99.7809,0.00907726,0.0987033,20.9003,105.125,-0.028599,0.0,0.0
5915,1478.5,28.8566,29.0001,153.516,99.9066,99.51,0.00804603,0.0987279,20.8995,104.855,0.0355398,0.0,0.0
5980,1494.75,27.8268,29.0172,153.839,100.533,100.644,0.00797854,0.0988103,20.9001,104.725,-0.00987154,0.0,0.0
6045,1511,28.4755,28.604,156.651,100.87,101.324,0.00728165,0.0954337,20.9032,104.444,-0.0400814,0.0,0.0
6110,1527.25,28.1794,28.8124,158.323,100.548,100.902,0.00776948,0.0974458,20.9005,104.304,-0.0314499,0.0,0.0
6175,1543.5,27.8008,28.5913,159.249,100.015,100.025,0.00719407,0.0973413,20.9029,104.034,-0.000888924,0.0,0.0

File: Pressure_Treated_Deck_Cone_HF50Scalar_230612_R1.csv
LABORATORY,FSRI
TEST IDENT,PTDB_HF50_R1
OPERATOR,Marino
MATERIAL,Pressure Treated Deck Board
ORIENTATION,Horizontal
HEAT FLUX,50
SURF AREA,0.01
C FACTOR,0.039956
SPEC HOLDER DIFF,-566
SPECIMEN MASS,129.34
SCAN TIME,0.25
O2 DELAY TIME,11
CO DELAY TIME,11
CO2 DELAY TIME,8
FLOW FACTOR,1
SCAN COUNT,4550
TIME TO IGN,30.75
END OF TEST SCAN,4070
END OF TEST TIME,1017.5
TEST STATUS,1
PRE TEST CMT,Dimensions: 101.29 x 101.61 x 19.49 mm; with tie wires
POST TEST CMT,"Sample fractured, charred, and reduced in surface area."

File: Pressure_Treated_Deck_Cone_HF50Scalar_230612_R2.csv
LABORATORY,FSRI
TEST IDENT,PTDB_HF50_R2
OPERATOR,Marino
MATERIAL,Pressure Treated Deck Board
ORIENTATION,Horizontal
HEAT FLUX,50
SURF AREA,0.01
C FACTOR,0.0401802
SPEC HOLDER DIFF,-566
SPECIMEN MASS,127.77
SCAN TIME,0.25
O2 DELAY TIME,11
CO DELAY TIME,11
CO2 DELAY TIME,8
FLOW FACTOR,1
SCAN COUNT,4354
TIME TO IGN,31
END OF TEST SCAN,3874
END OF TEST TIME,968.5
TEST STATUS,1
PRE TEST CMT,Dimensions: 101.59 x 102.22 x 19.41 mm; with tie wires
POST TEST CMT,"Sample fractured, charred, and reduced in surface area."

File: Pressure_Treated_Deck_Cone_HF50Scalar_230613_R3.csv
LABORATORY,FSRI
TEST IDENT,PTDB_HF50_R3
OPERATOR,Marino
MATERIAL,Pressure Treated Deck Board
ORIENTATION,Horizontal
HEAT FLUX,50
SURF AREA,0.01
C FACTOR,0.0401802
SPEC HOLDER DIFF,-566
SPECIMEN MASS,127.05
SCAN TIME,0.25
O2 DELAY TIME,11
CO DELAY TIME,11
CO2 DELAY TIME,8
FLOW FACTOR,1
SCAN COUNT,4508
TIME TO IGN,31.5
END OF TEST SCAN,4028
END OF TEST TIME,1007
TEST STATUS,1
PRE TEST CMT,"Dimensions: 102.23 x 101.42 x 19.22 mm; with tie wires
"
POST TEST CMT,"Sample fractured, charred, and reduced in surface area."

File: Pressure_Treated_Deck_Cone_HF50Scan_230612_R1.csv
Names,Time,Stack TC,Smoke TC,Exh Press,Smoke Comp,Smoke Meas,CO Meter,CO2 Meter,O2 Meter,Sample Mass,Ext Coeff,Start Test,Flame Verif
Chan Gain,,500,500,1,1,1,1,1,1,1,1,1.0,1.0
Offset,,0,0,0.13972,0,0,0,0,0,0,0,0.0,0.0
Gain,,1,1,25.011,13.4433,15.8108,1,1,1,1.0009,1.01862,1.0,1.0
Units,sec,C,C,Pa,%,%,%,%,%,g,/m,,
Baseline,,34.3413,37.096,154.732,101.404,101.449,0.000614397,0.0464676,20.9655,-444.374,-0.00400759,,
48,11.75,31.7225,34.7774,154.708,100.583,100.06,0.0011554,0.0513208,20.9599,203.204,0.046571,0.0,0.0
96,23.75,33.0948,35.1428,155.747,100.935,98.4945,0.00071018,0.0579805,20.956,202.693,0.218703,0.0,0.0
144,35.75,33.8598,40.3234,142.965,101.207,101.851,0.00111071,0.0523552,20.9626,201.882,-0.0566628,0.0,0.0
192,47.75,43.7452,57.8303,136.972,101.222,100.453,0.00236843,0.362732,20.7439,199.921,0.0681613,0.0,0.0
240,59.75,50.997,66.7573,137.082,100.952,98.6586,0.00323819,0.481915,20.4742,197.969,0.205322,0.0,0.0
288,71.75,54.7665,69.9967,137.521,100.617,97.8137,0.00408373,0.477154,20.4456,196.177,0.25249,0.0,0.0
336,83.75,57.8169,70.4881,135.083,100.576,97.9184,0.00423698,0.463093,20.4637,194.236,0.239322,0.0,0.0
384,95.75,59.3669,71.5901,139.794,100.775,97.0615,0.0044335,0.444367,20.4911,192.574,0.33545,0.0,0.0
432,107.75,59.9051,70.7829,136.359,100.763,97.9097,0.00454941,0.415431,20.5201,190.822,0.256646,0.0,0.0
480,119.75,60.4117,70.6003,134.906,100.652,98.2412,0.00422179,0.395519,20.5507,189.251,0.216583,0.0,0.0
528,131.75,60.6272,69.7356,142.046,100.47,97.6979,0.00425949,0.382052,20.563,187.67,0.250022,0.0,0.0
576,143.75,59.9787,68.9911,138.066,100.524,97.9874,0.00382915,0.360659,20.5898,186.268,0.228362,0.0,0.0
624,155.75,60.1184,67.6949,139.794,100.646,99.0209,0.00345932,0.355371,20.5992,184.767,0.145471,0.0,0.0
672,167.75,59.8076,68.1953,146.221,100.859,99.4634,0.00329385,0.343856,20.6162,183.326,0.124481,0.0,0.0
720,179.75,59.7747,67.103,140.618,101.065,99.7987,0.0030543,0.334949,20.6252,181.924,0.112632,0.0,0.0
768,191.75,59.3658,67.5289,139.097,101.166,99.8272,0.00300499,0.327387,20.6365,180.463,0.119039,0.0,0.0
816,203.75,59.3523,66.1234,142.658,101.162,100.769,0.0031074,0.317083,20.6474,179.142,0.034848,0.0,0.0
864,215.75,59.3274,66.5148,140.59,100.98,100.988,0.0028204,0.314248,20.6517,177.761,-0.000694514,0.0,0.0
912,227.75,59.5443,66.49,141.042,100.632,100.449,0.00271389,0.307183,20.6619,176.54,0.0163194,0.0,0.0
960,239.75,58.9955,66.4535,139.613,100.195,100.42,0.0026684,0.300403,20.6706,175.248,-0.0200641,0.0,0.0
1008,251.75,58.5314,66.2632,142.958,99.9677,99.6627,0.00248532,0.297389,20.6709,173.927,0.0273042,0.0,0.0
1056,263.75,59.1086,65.7118,143.196,100.165,100.041,0.00261888,0.296412,20.6739,172.516,0.0110666,0.0,0.0
1104,275.75,58.5153,65.8473,144.62,100.503,100.445,0.00234891,0.291402,20.6805,171.145,0.00513794,0.0,0.0
1152,287.75,58.7866,65.6044,142.366,100.762,100.851,0.00255281,0.294839,20.6791,169.904,-0.00793793,0.0,0.0
1200,299.75,59.2293,65.0704,145.419,100.826,100.151,0.00232686,0.291278,20.6811,168.642,0.0600107,0.0,0.0
1248,311.75,58.5475,64.9571,145.158,100.743,101.12,0.00253496,0.287641,20.686,167.291,-0.0333186,0.0,0.0
1296,323.75,58.3513,64.9618,140.978,100.545,100.822,0.00251253,0.282152,20.6905,166.02,-0.0246387,0.0,0.0
1344,335.75,58.3569,64.5964,139.224,100.267,100.251,0.00228022,0.281336,20.6936,164.699,0.0014549,0.0,0.0
1392,347.75,58.3693,63.6948,140.845,100.045,100.424,0.00239863,0.279229,20.6951,163.438,-0.0337297,0.0,0.0
1440,359.75,58.3759,65.0995,136.362,99.9779,99.8923,0.00226284,0.280431,20.6966,162.147,0.00765312,0.0,0.0
1488,371.75,58.8427,64.8248,142.839,100.175,100.694,0.00210966,0.280924,20.6917,160.915,-0.0461731,0.0,0.0
1536,383.75,58.958,64.7958,143.553,100.573,101.52,0.00184237,0.279555,20.6917,159.734,-0.083786,0.0,0.0
1584,395.75,58.9571,65.0524,146.276,100.969,101.716,0.00200888,0.287506,20.6907,158.503,-0.0659077,0.0,0.0
1632,407.75,59.0762,65.3753,139.331,101.205,101.359,0.00232488,0.28537,20.6907,157.212,-0.0135624,0.0,0.0
1680,419.75,58.3217,65.1148,139.522,101.075,101.491,0.00224364,0.28489,20.6901,155.941,-0.0366929,0.0,0.0
1728,431.75,58.9905,66.0412,142.139,100.652,100.511,0.00220199,0.285103,20.6872,154.61,0.0124537,0.0,0.0
1776,443.75,59.0445,66.0186,141.048,100.728,100.771,0.00201815,0.286693,20.6886,153.479,-0.00374377,0.0,0.0
1824,455.75,59.3584,65.9125,139.039,101.232,101.339,0.00241764,0.289417,20.6865,152.238,-0.00942208,0.0,0.0
1872,467.75,59.754,66.2213,137.679,101.034,101.143,0.0022468,0.293178,20.6811,150.936,-0.00956124,0.0,0.0
1920,479.75,59.9197,65.9528,143.419,101.042,100.723,0.00208085,0.296297,20.6744,149.765,0.0282896,0.0,0.0
1968,491.75,60.0524,67.2555,139.925,101.457,101.118,0.00215869,0.299443,20.6729,148.424,0.0299055,0.0,0.0
2016,503.75,59.9566,66.8055,139.226,101.714,100.672,0.00216977,0.302545,20.669,147.113,0.0919791,0.0,0.0
2064,515.75,60.2467,67.0715,141.381,101.688,101.832,0.00224345,0.306608,20.6632,145.902,-0.012613,0.0,0.0
2112,527.75,61.1992,68.2236,138.518,101.293,101.336,0.00164348,0.310883,20.6623,144.641,-0.0038157,0.0,0.0
2160,539.75,61.3969,68.4075,139.111,100.635,100.233,0.00216334,0.317585,20.6509,143.43,0.0357371,0.0,0.0
2208,551.75,61.7999,68.5949,136.427,100.098,99.4866,0.00248177,0.320744,20.6483,142.169,0.0547603,0.0,0.0
2256,563.75,61.8511,68.8867,138.96,100.069,99.2656,0.00231578,0.323396,20.642,140.787,0.0720293,0.0,0.0
2304,575.75,62.0241,69.1019,137.841,100.535,100.299,0.00248886,0.323523,20.6416,139.556,0.0209974,0.0,0.0
2352,587.75,62.5548,69.6294,141.604,101.042,99.9609,0.00237005,0.331086,20.6351,138.215,0.096134,0.0,0.0
2400,599.75,62.4465,69.6856,137.643,101.242,99.5763,0.0024865,0.336686,20.629,136.864,0.148262,0.0,0.0
2448,611.75,63.0263,70.1905,135.567,101.05,99.7553,0.0030732,0.343807,20.6209,135.352,0.115216,0.0,0.0
2496,623.75,63.2854,70.2757,137.545,100.754,98.5177,0.00272659,0.346703,20.6127,134.121,0.200535,0.0,0.0
2544,635.75,64.1181,71.4204,136.686,100.558,98.4226,0.00320871,0.364379,20.592,132.77,0.191752,0.0,0.0
2592,647.75,64.9033,72.8612,140.198,100.521,97.667,0.0030325,0.373693,20.5888,131.449,0.257334,0.0,0.0
2640,659.75,65.7616,73.6707,133.371,100.655,98.0965,0.00364768,0.381592,20.5732,129.957,0.230086,0.0,0.0
2688,671.75,66.1642,74.3863,136.454,100.861,96.8709,0.00385118,0.386685,20.5684,128.636,0.360685,0.0,0.0
2736,683.75,66.5323,74.0112,133.317,101.038,97.0079,0.00385805,0.388141,20.5595,127.205,0.363704,0.0,0.0
2784,695.75,66.987,74.5604,134.461,101.193,97.2723,0.0046886,0.395552,20.5519,125.614,0.353086,0.0,0.0
2832,707.75,67.7041,75.1444,131.784,101.204,97.3042,0.00454749,0.404713,20.5451,124.172,0.351104,0.0,0.0
2880,719.75,67.8709,76.4361,136.119,101.108,97.3915,0.00434556,0.408892,20.5359,122.681,0.334643,0.0,0.0
2928,731.75,68.688,76.8645,139.7,100.782,96.3208,0.00482243,0.417388,20.5272,121.14,0.404584,0.0,0.0
2976,743.75,69.5206,77.6341,132.733,100.334,96.3001,0.00521176,0.423421,20.5225,119.628,0.366665,0.0,0.0
3024,755.75,69.2719,78.1307,138.905,100.007,94.6803,0.00542588,0.427863,20.5091,118.037,0.489033,0.0,0.0
3072,767.75,70.6754,78.5264,137.351,100.097,93.1831,0.00524971,0.432632,20.5067,116.535,0.639555,0.0,0.0
3120,779.75,70.927,78.8744,134.3,100.658,94.9148,0.00467644,0.433204,20.5014,114.924,0.524912,0.0,0.0
3168,791.75,71.0531,80.2806,136.015,101.312,95.0132,0.00499483,0.433725,20.502,113.393,0.57355,0.0,0.0
3216,803.75,71.2882,79.8468,134.897,101.674,95.4243,0.0049008,0.433056,20.4962,111.841,0.566794,0.0,0.0
3264,815.75,71.4022,79.8169,136.651,101.533,96.4,0.00454992,0.432409,20.501,110.43,0.463563,0.0,0.0
3312,827.75,70.9612,78.9879,137.595,101.107,96.4168,0.00467001,0.420268,20.5083,108.979,0.42437,0.0,0.0
3360,839.75,70.9667,78.0696,137.44,100.821,95.6062,0.00427941,0.405069,20.5282,107.617,0.47454,0.0,0.0
3408,851.75,69.9834,77.4174,137.492,100.936,95.7611,0.00343788,0.387225,20.5438,106.326,0.470251,0.0,0.0
3456,863.75,69.4987,75.031,135.577,100.973,96.6822,0.00320634,0.367277,20.565,105.155,0.38802,0.0,0.0
3504,875.75,67.7286,73.805,140.787,100.893,97.5652,0.00323367,0.340256,20.5958,104.144,0.299703,0.0,0.0
3552,887.75,66.2169,71.0363,140.965,100.821,97.8837,0.00295292,0.305666,20.6317,103.233,0.264226,0.0,0.0
3600,899.75,64.1854,67.9622,139.428,100.965,99.613,0.00223914,0.262335,20.6801,102.603,0.120426,0.0,0.0
3648,911.75,62.2544,65.2973,141.746,101.232,100.437,0.00230594,0.222085,20.7298,102.072,0.0704474,0.0,0.0
3696,923.75,59.8571,61.7929,145.165,101.543,101.538,0.00171566,0.184525,20.7759,101.722,0.000395167,0.0,0.0
3744,935.75,57.4096,58.2811,146.523,101.724,102.084,0.00194247,0.153668,20.8155,101.392,-0.0315926,0.0,0.0
3792,947.75,55.4888,55.9059,147.205,101.654,101.698,0.00192974,0.133356,20.8411,101.081,-0.00387058,0.0,0.0
3840,959.75,53.1956,53.9658,145.781,101.384,101.588,0.00198344,0.121556,20.8637,100.911,-0.0179661,0.0,0.0
3888,971.75,51.8028,53.2303,148.886,100.948,100.969,0.00203167,0.118442,20.8681,100.771,-0.00190418,0.0,0.0
3936,983.75,50.5846,51.9763,144.53,100.433,100.676,0.002238,0.116343,20.8713,100.601,-0.0215951,0.0,0.0
3984,995.75,49.9791,51.143,145.16,100.081,100.256,0.00235665,0.114199,20.872,100.511,-0.0155948,0.0,0.0
4032,1007.75,49.2316,50.6634,145.753,100.039,100.188,0.00206873,0.111168,20.8744,100.211,-0.0132237,0.0,0.0
4080,1019.75,46.8633,48.3599,147.525,100.448,100.539,0.0024544,0.111313,20.8778,100.04,-0.00811118,0.0,0.0
4128,1031.75,45.4104,47.4466,148.045,100.948,101.236,0.00258686,0.110373,20.8775,99.9103,-0.0254489,0.0,0.0
4176,1043.75,45.9181,47.1288,147.282,101.242,101.093,0.00272992,0.108736,20.8802,99.8803,0.0132068,0.0,0.0
4224,1055.75,45.4848,46.6796,148.433,101.118,101.371,0.00274205,0.109462,20.8815,99.7402,-0.0223442,0.0,0.0
4272,1067.75,44.9317,47.1397,148.92,100.699,100.623,0.00277313,0.106697,20.8839,99.4799,0.00673675,0.0,0.0
4320,1079.75,44.8968,46.2633,149.029,100.627,100.705,0.00279978,0.106219,20.8863,99.4199,-0.00699608,0.0,0.0
4368,1091.75,44.22,45.8701,147.248,101.134,100.826,0.00277107,0.105336,20.8861,99.1796,0.0272639,0.0,0.0
4416,1103.75,43.7301,45.3124,145.757,101.098,100.863,0.00272942,0.103691,20.8879,99.0395,0.0208189,0.0,0.0
4464,1115.75,43.5242,45.3628,151.502,100.874,100.763,0.00291702,0.104875,20.8908,99.0495,0.00988671,0.0,0.0
4512,1127.75,43.3002,45.7109,148.309,101.224,101.086,0.00300108,0.104139,20.8897,98.9094,0.0122538,0.0,0.0
4550,1137.25,43.4713,45.6571,149.073,101.491,101.332,0.00287043,0.104801,20.8906,98.7092,0.0140002,0.0,0.0