Folder: fsri_materials_database/01_Data/Pressure_Treated_Deck/Cone (part 6)

File: Pressure_Treated_Deck_Cone_HF75Scan_230620_R3.csv
Names,Time,Stack TC,Smoke TC,Exh Press,Smoke Comp,Smoke Meas,CO Meter,CO2 Meter,O2 Meter,Sample Mass,Ext Coeff,Start Test,Flame Verif
Chan Gain,,500,500,1,1,1,1,1,1,1,1,1.0,1.0
Offset,,0,0,0.245636,0,0,0,0,0,0,0,0.0,0.0
Gain,,1,1,25.011,13.7537,14.9165,1,1,1,1.00094,1.03834,1.0,1.0
Units,sec,C,C,Pa,%,%,%,%,%,g,/m,,
Baseline,,41.2121,44.5186,139.233,99.9048,99.9413,0.000540746,0.0498487,20.9572,-444.792,-0.00331953,,
44,10.75,39.2969,42.6913,137.69,99.8732,97.5458,0.00120352,0.0624869,20.9419,200.719,0.214772,0.0,0.0
88,21.75,43.5649,53.9797,118.949,99.9824,98.8063,0.00143025,0.0913702,20.946,199.058,0.107776,0.0,0.0
132,32.75,55.2623,73.3107,116.87,100.124,96.0395,0.00348808,0.542673,20.5171,196.906,0.379344,0.0,0.0
176,43.75,63.2767,83.3943,119.898,100.227,94.0183,0.00567576,0.668132,20.2689,194.573,0.582462,0.0,0.0
220,54.75,68.7313,88.433,119.059,100.327,94.7772,0.00635885,0.675358,20.2405,192.281,0.518315,0.0,0.0
264,65.75,72.6612,90.7037,114.677,100.44,94.8108,0.00693483,0.641169,20.2739,190.169,0.525361,0.0,0.0
308,76.75,75.0538,91.857,120.19,100.477,94.535,0.00664489,0.609951,20.3124,188.137,0.555211,0.0,0.0
352,87.75,76.1453,91.3845,117.26,100.442,95.4491,0.00624209,0.574857,20.352,186.136,0.464446,0.0,0.0
396,98.75,76.2594,90.7086,122.756,100.254,95.2428,0.00602869,0.544147,20.3876,184.334,0.467,0.0,0.0
440,109.75,77.3497,90.6901,123.653,99.8585,94.5486,0.0059495,0.520602,20.4171,182.562,0.497677,0.0,0.0
484,120.75,76.9594,90.7311,116.541,99.4241,95.0567,0.00583162,0.505678,20.4341,180.73,0.409158,0.0,0.0
528,131.75,77.7398,89.7771,119.301,99.0258,95.19,0.00558654,0.497,20.4491,178.829,0.359822,0.0,0.0
572,142.75,77.5387,90.201,120.526,98.8109,95.795,0.00526084,0.484663,20.4635,177.227,0.28233,0.0,0.0
616,153.75,78.1752,89.5921,122.193,98.74,95.5615,0.00475292,0.473012,20.4707,175.455,0.29802,0.0,0.0
660,164.75,77.0535,89.1021,121.533,98.6967,95.8719,0.00432881,0.458016,20.4934,173.904,0.264489,0.0,0.0
704,175.75,77.8001,88.1953,122.317,98.7127,96.6699,0.00494162,0.445214,20.5083,172.282,0.190462,0.0,0.0
748,186.75,77.0993,87.996,120.81,98.7311,97.1033,0.00383159,0.436938,20.5213,170.711,0.151424,0.0,0.0
792,197.75,78.9762,88.3934,121.665,98.7849,96.7546,0.00393768,0.434925,20.5237,169.089,0.189147,0.0,0.0
836,208.75,77.5346,88.3522,121.945,98.9188,96.5812,0.00417248,0.432517,20.5253,167.438,0.217825,0.0,0.0
880,219.75,77.5945,88.1921,118.868,99.1303,96.9244,0.00411122,0.425082,20.531,165.846,0.204971,0.0,0.0
924,230.75,77.8407,88.4208,119.891,99.4073,97.8298,0.00394768,0.420255,20.5401,164.225,0.145699,0.0,0.0
968,241.75,78.1484,88.3074,122.475,99.7091,98.6988,0.0037447,0.426738,20.5363,162.683,0.0927574,0.0,0.0
1012,252.75,78.294,87.6344,122.206,100.043,98.4098,0.0034882,0.422955,20.5376,161.102,0.149904,0.0,0.0
1056,263.75,78.4668,88.6715,120.052,100.301,98.53,0.00356112,0.41831,20.5395,159.56,0.162258,0.0,0.0
1100,274.75,78.1518,87.9456,121.937,100.425,99.7426,0.00368011,0.412642,20.5449,158.059,0.0620765,0.0,0.0
1144,285.75,77.9815,87.3952,122.935,100.444,99.4841,0.00336308,0.408792,20.5505,156.367,0.087469,0.0,0.0
1188,296.75,77.1922,87.1911,121.604,100.464,99.6379,0.003348,0.402242,20.5577,154.796,0.0751827,0.0,0.0
1232,307.75,77.5106,86.8068,119.118,100.442,99.4377,0.00332822,0.402395,20.5556,153.184,0.0915697,0.0,0.0
1276,318.75,77.9197,87.3789,124.235,100.462,99.393,0.00344167,0.410297,20.5503,151.683,0.0974455,0.0,0.0
1320,329.75,77.8072,86.8967,119.36,100.447,98.7944,0.00314258,0.40556,20.5538,150.272,0.151097,0.0,0.0
1364,340.75,78.0572,86.8387,120.203,100.242,98.6041,0.00320707,0.402125,20.5625,148.76,0.150065,0.0,0.0
1408,351.75,78.0629,86.9206,119.925,99.8946,98.6765,0.00335516,0.397618,20.5655,147.279,0.111748,0.0,0.0
1452,362.75,77.4229,86.2438,121.442,99.4946,99.0789,0.00318354,0.397514,20.5657,145.757,0.0381344,0.0,0.0
1496,373.75,77.8544,86.6856,118.571,99.1618,97.6978,0.00309953,0.398762,20.5686,144.296,0.135472,0.0,0.0
1540,384.75,78.152,86.9158,121.013,98.8617,96.9485,0.00330261,0.412666,20.5539,142.765,0.177989,0.0,0.0
1584,395.75,78.2615,87.9849,119.636,98.7152,98.1107,0.00325692,0.410728,20.5552,141.273,0.0559479,0.0,0.0
1628,406.75,78.9879,87.959,122.368,98.7362,97.6459,0.00275185,0.417539,20.5436,139.842,0.101135,0.0,0.0
1672,417.75,79.1029,88.5567,117.009,98.9502,97.7725,0.00325923,0.426488,20.5343,138.31,0.109063,0.0,0.0
1716,428.75,79.4031,89.1506,121.968,99.281,98.4985,0.00345916,0.428032,20.5285,136.789,0.0720679,0.0,0.0
1760,439.75,79.7349,89.0541,121.828,99.5891,97.5025,0.00338531,0.431184,20.5268,135.288,0.192859,0.0,0.0
1804,450.75,80.3283,89.5143,123.293,99.8308,97.9145,0.00340996,0.434579,20.523,133.756,0.176542,0.0,0.0
1848,461.75,80.8148,89.8546,120.894,99.94,97.5039,0.00393359,0.440069,20.5196,132.295,0.224768,0.0,0.0
1892,472.75,80.9314,89.5808,121.26,99.8355,98.0788,0.00378742,0.441342,20.5194,130.723,0.161689,0.0,0.0
1936,483.75,80.5318,90.3697,118.782,99.608,96.8406,0.0040582,0.447697,20.5121,129.202,0.256628,0.0,0.0
1980,494.75,81.5485,90.8707,120.568,99.2982,97.5125,0.00379616,0.454829,20.503,127.72,0.165283,0.0,0.0
2024,505.75,82.0572,91.4653,119.376,99.422,96.674,0.00427362,0.45757,20.4963,126.229,0.255293,0.0,0.0
2068,516.75,82.7519,92.0272,121.324,99.8057,97.5699,0.00393056,0.466729,20.4896,124.537,0.206355,0.0,0.0
2112,527.75,82.9022,93.1294,118.058,99.937,96.3058,0.0041468,0.481036,20.479,123.196,0.337116,0.0,0.0
2156,538.75,83.8526,93.1676,116.323,99.9265,95.8155,0.0046921,0.48257,20.4667,121.665,0.382645,0.0,0.0
2200,549.75,83.4238,93.4519,120.414,99.932,96.8224,0.00486394,0.483236,20.4672,120.043,0.287922,0.0,0.0
2244,560.75,83.6751,93.4672,122.667,99.9114,95.3953,0.00478622,0.494787,20.4566,118.562,0.421296,0.0,0.0
2288,571.75,84.6198,94.5708,119.936,99.8716,94.9114,0.00513845,0.503951,20.4463,117,0.46398,0.0,0.0
2332,582.75,85.0506,95.3565,117.882,99.8078,94.9902,0.00479336,0.50326,20.4368,115.399,0.450606,0.0,0.0
2376,593.75,85.9187,95.4827,114.551,99.7095,95.0576,0.00532974,0.511424,20.4301,113.857,0.43518,0.0,0.0
2420,604.75,86.3097,96.4299,121.28,99.6529,93.9273,0.0052517,0.516178,20.4245,112.236,0.538955,0.0,0.0
2464,615.75,86.0854,97.0329,117.12,99.5379,93.9364,0.0057474,0.517,20.4241,110.684,0.527554,0.0,0.0
2508,626.75,86.2918,96.2973,119.695,99.4925,94.3784,0.00600751,0.51794,20.4219,109.143,0.480648,0.0,0.0
2552,637.75,86.2862,95.9139,118.541,99.4271,93.3546,0.00598342,0.51681,20.4305,107.611,0.573995,0.0,0.0
2596,648.75,86.5468,96.7027,114.181,99.2206,93.3906,0.00608206,0.520699,20.4128,105.89,0.551548,0.0,0.0
2640,659.75,86.5534,97.4906,119.192,99.2071,93.5249,0.00616701,0.528412,20.4077,104.338,0.537229,0.0,0.0
2684,670.75,85.4476,95.2734,118.392,99.336,93.8745,0.00608891,0.51288,20.4181,102.817,0.515067,0.0,0.0
2728,681.75,86.7508,96.547,120.17,99.5349,95.7113,0.00593772,0.5126,20.4138,101.296,0.356795,0.0,0.0
2772,692.75,85.8497,96.1126,122.6,99.6117,96.5234,0.00560624,0.48963,20.4414,99.8942,0.286864,0.0,0.0
2816,703.75,85.473,94.2864,123.012,99.6017,96.4287,0.00579195,0.472047,20.4497,98.593,0.294882,0.0,0.0
2860,714.75,84.3253,92.5729,120.204,99.5123,96.3317,0.00442479,0.42982,20.4961,97.4419,0.295867,0.0,0.0
2904,725.75,83.0799,90.1737,123.409,99.3267,97.483,0.00295497,0.381638,20.5503,96.491,0.170665,0.0,0.0
2948,736.75,80.9172,86.905,124.497,99.2059,99.3694,0.00261966,0.3269,20.6088,95.8103,-0.0149995,0.0,0.0
2992,747.75,77.8045,82.9825,126.751,99.4468,101.025,0.0023899,0.263995,20.6713,95.2398,-0.143452,0.0,0.0
3036,758.75,76.1018,79.8432,127.228,99.8229,101.764,0.0018762,0.217309,20.7342,94.8895,-0.1754,0.0,0.0
3080,769.75,73.6037,76.1582,126.607,99.9526,101.814,0.00130774,0.18028,20.7796,94.5792,-0.168054,0.0,0.0
3124,780.75,70.8648,72.8822,128.973,99.8359,101.495,0.00146233,0.153946,20.8136,94.419,-0.150101,0.0,0.0
3168,791.75,68.9177,70.8657,132.293,99.5429,101.266,0.00190006,0.133044,20.8418,94.1788,-0.156338,0.0,0.0
3212,802.75,66.7504,69.445,126.965,99.728,102.043,0.00174816,0.127742,20.8487,94.0487,-0.209042,0.0,0.0
3256,813.75,65.658,67.9082,128.176,99.9878,101.568,0.00111544,0.126456,20.851,93.9186,-0.142824,0.0,0.0
3300,824.75,64.7739,66.9368,131.01,100.211,102.006,0.00148615,0.122144,20.8533,93.7284,-0.161733,0.0,0.0
3344,835.75,63.5027,66.1389,127.788,100.414,102.399,0.0016804,0.120192,20.8586,93.5482,-0.178258,0.0,0.0
3388,846.75,62.6716,65.5531,134.061,100.411,102.194,0.00148169,0.118121,20.8596,93.4781,-0.160244,0.0,0.0
3432,857.75,62.2491,65.0076,130.731,100.107,101.391,0.0013041,0.115083,20.8635,93.348,-0.116038,0.0,0.0
3476,868.75,61.807,64.6324,132.966,99.5996,100.655,0.00175249,0.114409,20.8662,93.2279,-0.0959998,0.0,0.0
3520,879.75,61.1721,64.044,132.808,99.0455,100.074,0.00187879,0.113704,20.8672,93.0177,-0.0941363,0.0,0.0
3564,890.75,60.8496,63.1241,133.72,98.766,100.13,0.00182288,0.1142,20.8672,92.8275,-0.124974,0.0,0.0
3608,901.75,60.321,63.1207,132.769,98.9167,100.5,0.0017849,0.116083,20.8691,92.7975,-0.144608,0.0,0.0
3652,912.75,59.8713,61.9406,130.244,99.1996,100.932,0.00143804,0.113507,20.8708,92.7274,-0.157706,0.0,0.0
3696,923.75,58.664,62.2696,132.512,99.4464,101.15,0.00216444,0.114563,20.8683,92.6474,-0.154688,0.0,0.0
3740,934.75,58.629,61.2469,131.837,99.6604,100.993,0.00201173,0.11482,20.8698,92.5473,-0.120991,0.0,0.0
3784,945.75,56.9306,59.363,128.216,99.8136,101.172,0.0021442,0.1149,20.8722,92.4472,-0.12308,0.0,0.0
3828,956.75,56.8636,59.6812,128.735,99.8808,101.145,0.00257792,0.11425,20.8747,92.277,-0.114536,0.0,0.0
3872,967.75,56.3809,59.564,133.054,99.9068,101.125,0.00262983,0.115233,20.873,92.1669,-0.110399,0.0,0.0
3916,978.75,56.1362,58.4328,132.373,99.9374,101.441,0.00245181,0.116123,20.8727,92.1369,-0.135976,0.0,0.0
3960,989.75,55.5801,58.8768,131.644,99.9597,100.992,0.00238683,0.117127,20.8738,92.0068,-0.0935998,0.0,0.0
4004,1000.75,55.2227,58.3609,132.756,99.9694,101.195,0.00251943,0.116983,20.8734,91.8966,-0.11097,0.0,0.0
4048,1011.75,55.661,58.3187,133.592,99.8854,100.882,0.00262364,0.116837,20.8743,91.7565,-0.0903895,0.0,0.0
4092,1022.75,55.411,58.4691,133.336,99.6894,100.698,0.00281098,0.117872,20.8733,91.7065,-0.0916611,0.0,0.0
4136,1033.75,54.7222,58.015,133.46,99.3473,100.631,0.00255785,0.116914,20.8767,91.6264,-0.116915,0.0,0.0
4180,1044.75,55.3332,57.6047,132.576,99.0065,100.017,0.00273124,0.119081,20.875,91.4562,-0.0925045,0.0,0.0
4224,1055.75,54.4383,57.8085,131.499,98.7597,99.673,0.002919,0.116843,20.8764,91.3862,-0.0838439,0.0,0.0
4231,1057.5,54.2423,58.0056,130.82,98.7513,100.259,0.00305695,0.117503,20.8765,91.3261,-0.13804,0.0,0.0

File: Pressure_Treated_Deck_HRRPUA_25.csv
Time after Ignition,Pressure_Treated_Deck_R1,Pressure_Treated_Deck_R2,Pressure_Treated_Deck_R3,Pressure_Treated_Deck_R4,Mean,Std. Dev.
0.0,6.4,2.9,3.7,-1.9,2.8,3.4
4.5,6.1,2.8,4.2,-1.5,2.9,3.2
9.0,6.9,3.5,4.8,-0.3,3.7,3.0
13.5,44.4,14.0,24.0,10.8,23.3,15.2
18.0,141.9,79.2,92.5,62.2,94.0,34.3
22.5,203.9,131.4,134.1,113.2,145.7,39.9
27.0,228.7,153.5,165.2,163.3,177.7,34.4
31.5,224.9,172.6,175.8,182.3,188.9,24.4
36.0,205.9,174.6,185.9,187.6,188.5,13.0
40.5,191.5,174.3,182.6,179.6,182.0,7.2
45.0,178.3,176.0,179.1,175.6,177.3,1.7
49.5,167.7,172.4,176.4,169.3,171.5,3.8
54.0,156.4,166.9,169.0,164.7,164.3,5.5
58.5,150.0,166.7,161.8,162.4,160.2,7.2
63.0,146.3,162.5,157.3,168.5,158.7,9.4
67.5,143.6,168.3,151.7,163.1,156.7,11.1
72.0,141.5,164.2,150.8,158.1,153.7,9.8
76.5,137.5,158.6,146.0,148.7,147.7,8.7
81.0,131.6,155.3,141.0,148.9,144.2,10.3
85.5,132.6,150.5,135.2,148.7,141.7,9.1
90.0,125.2,148.0,133.7,147.1,138.5,11.0
94.5,125.1,145.2,135.4,146.6,138.1,10.0
99.0,122.8,140.6,133.1,144.3,135.2,9.5
103.5,120.7,138.5,128.8,143.1,132.8,10.0
108.0,120.3,134.1,129.3,139.3,130.7,8.1
112.5,116.3,132.0,126.8,136.7,128.0,8.7
117.0,113.5,128.7,123.8,137.1,125.8,9.9
121.5,110.9,128.5,121.7,132.4,123.4,9.4
126.0,111.1,127.0,124.5,129.4,123.0,8.2
130.5,109.2,127.1,122.7,126.9,121.5,8.4
135.0,107.6,123.9,121.3,128.6,120.3,9.0
139.5,106.3,117.5,122.2,123.7,117.4,7.9
144.0,105.6,117.7,121.3,121.1,116.4,7.4
148.5,102.3,115.9,125.4,117.8,115.4,9.6
153.0,102.1,113.9,125.0,115.3,114.1,9.4
157.5,104.3,112.7,123.3,116.4,114.2,7.9
162.0,105.6,108.9,120.8,114.7,112.5,6.7
166.5,107.4,107.6,119.5,112.0,111.6,5.7
171.0,106.4,107.2,115.3,109.5,109.6,4.0
175.5,102.2,105.5,112.7,108.9,107.3,4.5
180.0,102.0,103.2,111.0,104.4,105.2,4.0
184.5,104.9,101.3,106.9,104.9,104.5,2.4
189.0,103.3,100.0,104.1,103.5,102.7,1.9
193.5,106.5,100.8,103.4,100.6,102.8,2.8
198.0,108.3,97.4,99.8,101.8,101.8,4.6
202.5,107.1,94.4,98.6,98.8,99.7,5.4
207.0,108.8,94.0,96.4,96.9,99.0,6.6
211.5,108.9,91.0,95.8,96.9,98.1,7.6
216.0,108.9,89.9,90.6,95.9,96.3,8.8
220.5,109.0,88.0,91.4,97.2,96.4,9.2
225.0,106.1,87.6,89.5,96.9,95.0,8.4
229.5,100.9,87.9,88.7,96.1,93.4,6.2
234.0,97.4,86.6,89.3,96.8,92.5,5.4
238.5,97.4,86.6,88.1,94.5,91.7,5.2
243.0,93.6,86.2,88.5,94.0,90.6,3.9
247.5,93.3,87.2,87.8,91.2,89.9,2.9
252.0,90.2,86.2,87.4,91.1,88.7,2.3
256.5,90.3,85.4,88.4,90.2,88.6,2.3
261.0,88.9,85.8,90.0,91.0,88.9,2.2
265.5,87.2,84.8,88.1,86.0,86.5,1.4
270.0,86.1,83.2,88.6,86.6,86.1,2.2
274.5,86.4,85.9,89.3,88.1,87.4,1.5
279.0,83.8,84.6,88.2,85.6,85.5,1.9
283.5,84.8,85.6,88.9,82.9,85.6,2.5
288.0,82.6,85.3,89.4,82.8,85.0,3.2
292.5,82.2,84.4,87.4,84.2,84.5,2.1
297.0,79.1,82.4,87.7,83.9,83.3,3.6
301.5,79.5,84.7,85.5,84.9,83.7,2.8
306.0,78.2,82.5,86.8,83.9,82.8,3.6
310.5,77.8,82.8,86.8,85.0,83.1,3.9
315.0,79.0,81.3,87.6,84.5,83.1,3.8
319.5,80.6,81.9,87.0,83.1,83.2,2.7
324.0,84.7,83.2,88.4,84.0,85.1,2.3
328.5,85.1,81.4,86.5,85.0,84.5,2.2
333.0,83.3,82.7,87.2,85.8,84.7,2.1
337.5,81.5,81.0,87.0,84.7,83.5,2.8
342.0,80.0,80.6,86.2,86.3,83.3,3.4
346.5,78.8,79.4,87.1,85.0,82.6,4.1
351.0,78.5,79.1,84.9,84.1,81.6,3.3
355.5,77.4,80.8,84.1,84.4,81.7,3.3
360.0,75.6,79.7,84.1,85.5,81.2,4.5
364.5,76.0,77.8,84.3,84.3,80.6,4.3
369.0,77.4,76.9,83.3,84.5,80.5,3.9
373.5,77.1,77.6,83.2,85.4,80.8,4.1
378.0,78.6,78.6,82.7,85.4,81.3,3.3
382.5,78.6,79.0,83.4,84.6,81.4,3.0
387.0,80.7,76.6,83.0,83.9,81.0,3.3
391.5,82.5,77.3,82.1,82.7,81.1,2.6
396.0,82.9,76.9,82.5,84.7,81.7,3.4
400.5,82.9,77.1,83.9,82.4,81.6,3.0
405.0,81.4,77.3,82.7,82.5,81.0,2.5
409.5,82.8,77.8,84.7,81.7,81.7,2.9
414.0,80.2,78.1,85.2,81.2,81.2,3.0
418.5,81.6,78.4,84.5,80.9,81.4,2.5
423.0,83.5,77.9,84.7,82.2,82.1,2.9
427.5,83.2,77.1,84.9,81.4,81.7,3.3
432.0,83.6,77.8,83.7,81.8,81.7,2.8
436.5,84.5,77.3,84.5,80.2,81.6,3.5
441.0,83.7,75.2,85.6,79.8,81.1,4.6
445.5,83.0,75.2,86.3,80.1,81.1,4.7
450.0,82.0,74.4,84.8,76.6,79.5,4.8
454.5,81.3,74.1,86.4,80.4,80.6,5.0
459.0,82.6,75.9,86.1,79.8,81.1,4.3
463.5,82.9,73.6,84.7,80.2,80.3,4.9
468.0,79.7,73.9,85.4,81.4,80.1,4.8
472.5,82.6,72.7,84.2,81.1,80.1,5.1
477.0,81.9,73.3,83.1,81.0,79.8,4.5
481.5,82.3,73.9,84.5,82.7,80.9,4.7
486.0,84.2,73.3,83.7,81.5,80.7,5.0
490.5,84.6,74.0,82.4,80.7,80.5,4.6
495.0,84.0,72.4,83.2,79.4,79.7,5.3
499.5,84.7,72.8,82.3,81.8,80.4,5.2
504.0,85.9,73.4,83.1,79.6,80.5,5.4
508.5,85.0,72.6,81.9,80.1,79.9,5.3
513.0,84.7,72.9,86.4,78.9,80.7,6.1
517.5,85.2,73.2,84.3,79.4,80.5,5.5
522.0,83.6,75.1,83.7,77.1,79.9,4.4
526.5,84.0,74.7,82.1,79.0,79.9,4.1
531.0,83.3,74.1,82.4,77.3,79.3,4.4
535.5,83.7,75.0,83.7,78.9,80.3,4.2
540.0,84.5,73.0,82.3,79.1,79.7,5.0
544.5,85.9,73.2,85.2,80.4,81.2,5.9
549.0,86.2,73.8,85.9,81.1,81.8,5.8
553.5,85.5,74.1,86.5,80.0,81.5,5.7
558.0,83.8,73.5,86.0,81.7,81.3,5.5
562.5,82.2,74.6,85.9,80.5,80.8,4.7
567.0,83.4,75.0,86.1,79.7,81.1,4.8
571.5,82.8,74.4,84.0,81.3,80.6,4.3
576.0,81.9,75.2,85.4,81.4,81.0,4.2
580.5,81.9,75.5,85.9,79.5,80.7,4.4
585.0,83.6,76.3,84.5,78.8,80.8,3.9
589.5,81.5,76.8,85.8,81.4,81.4,3.7
594.0,82.6,76.6,88.5,79.4,81.8,5.1
598.5,82.4,76.8,86.8,81.5,81.9,4.1
603.0,80.9,76.5,86.1,80.3,81.0,3.9
607.5,79.8,74.6,86.5,81.5,80.6,4.9
612.0,84.0,75.1,87.9,83.1,82.5,5.3
616.5,85.6,77.0,89.5,81.5,83.4,5.4
621.0,82.7,77.0,90.2,83.2,83.3,5.4
625.5,84.4,77.7,90.6,83.6,84.1,5.3
630.0,83.3,78.6,91.6,84.0,84.4,5.4
634.5,85.4,80.9,91.3,83.9,85.4,4.4
639.0,87.4,81.3,93.6,84.1,86.6,5.3
643.5,88.6,83.3,94.6,86.9,88.3,4.7
648.0,89.1,84.7,94.1,84.6,88.1,4.5
652.5,91.2,85.0,94.7,84.9,89.0,4.9
657.0,90.6,87.3,96.1,87.5,90.4,4.1
661.5,91.2,87.0,99.1,87.4,91.2,5.6
666.0,94.5,86.7,100.5,88.1,92.5,6.3
670.5,95.3,89.7,103.2,88.4,94.1,6.7
675.0,96.6,90.8,103.3,87.9,94.7,6.8
679.5,96.9,93.6,103.7,88.7,95.7,6.3
684.0,98.6,94.0,106.6,90.0,97.3,7.1
688.5,101.8,95.4,106.2,88.5,98.0,7.7
693.0,101.1,97.6,110.5,92.5,100.4,7.6
697.5,100.9,97.7,110.6,95.6,101.2,6.6
702.0,100.5,99.5,111.0,93.1,101.0,7.4
706.5,102.2,100.9,112.1,94.4,102.4,7.3
711.0,103.2,102.4,115.3,93.4,103.6,9.0
715.5,101.1,104.9,116.3,94.0,104.1,9.3
720.0,104.3,105.1,117.5,95.7,105.6,9.0
724.5,106.3,108.2,121.1,96.0,107.9,10.3
729.0,108.4,108.8,121.6,97.0,108.9,10.0
733.5,109.6,111.6,127.0,97.4,111.4,12.2
738.0,112.0,113.3,129.1,98.1,113.1,12.7
742.5,114.2,115.2,130.0,100.4,114.9,12.1
747.0,115.1,119.0,131.9,101.7,116.9,12.4
751.5,115.8,120.6,133.9,104.2,118.6,12.3
756.0,117.8,123.3,138.3,104.4,121.0,14.0
760.5,121.6,125.0,138.2,103.3,122.0,14.4
765.0,125.8,127.0,140.3,104.7,124.4,14.7
769.5,126.5,130.2,143.7,106.3,126.7,15.4
774.0,128.9,130.0,142.9,109.9,127.9,13.6
778.5,129.4,130.0,147.0,110.1,129.1,15.1
783.0,127.6,134.6,152.2,111.8,131.5,16.7
787.5,131.9,137.3,151.4,115.3,134.0,14.9
792.0,134.0,137.8,157.1,113.7,135.7,17.8
796.5,134.8,142.6,155.2,116.0,137.1,16.4
801.0,136.3,147.6,158.0,115.8,139.4,18.1
805.5,138.7,145.5,161.1,122.4,141.9,16.0
810.0,143.2,149.3,164.1,123.3,145.0,16.9
814.5,146.1,149.9,167.5,125.8,147.3,17.1
819.0,146.7,152.8,168.8,128.5,149.2,16.7
823.5,147.5,157.8,172.7,130.8,152.2,17.6
828.0,151.7,156.5,170.8,131.4,152.6,16.3
832.5,152.6,161.8,177.0,133.7,156.3,18.1
837.0,156.3,162.1,177.7,136.3,158.1,17.1
841.5,157.4,165.2,183.2,137.9,160.9,18.8
846.0,157.6,169.1,184.0,138.7,162.3,19.1
850.5,160.5,165.8,181.1,139.6,161.8,17.1
855.0,160.6,174.2,182.9,143.4,165.3,17.2
859.5,163.9,175.1,187.6,147.1,168.4,17.2
864.0,164.8,180.3,192.7,148.8,171.6,19.0
868.5,169.0,179.2,197.3,148.7,173.5,20.3
873.0,174.9,181.8,193.1,148.2,174.5,19.1
877.5,177.1,181.1,195.4,154.0,176.9,17.2
882.0,176.5,187.0,196.4,153.4,178.3,18.5
886.5,178.8,186.5,196.7,153.6,178.9,18.4
891.0,178.2,191.1,202.2,157.2,182.2,19.3
895.5,184.8,191.4,201.7,157.7,183.9,18.8
900.0,185.2,195.0,203.4,160.1,185.9,18.8
904.5,189.4,192.7,201.5,158.6,185.5,18.7
909.0,185.9,195.0,201.2,162.9,186.3,16.8
913.5,190.8,195.9,204.2,161.5,188.1,18.6
918.0,192.5,195.7,201.3,160.2,187.4,18.5
922.5,193.3,196.2,207.3,166.5,190.8,17.3
927.0,193.9,202.0,206.3,165.2,191.9,18.5
931.5,193.1,201.9,209.7,163.9,192.1,20.0
936.0,192.5,203.2,206.5,163.1,191.3,19.7
940.5,192.8,201.0,211.4,166.2,192.9,19.3
945.0,198.2,207.5,213.9,165.6,196.3,21.4
949.5,194.8,204.5,205.4,163.0,191.9,19.8
954.0,194.9,207.8,211.6,165.2,194.9,21.0
958.5,198.2,204.4,214.4,168.5,196.4,19.8
963.0,199.3,209.8,216.2,173.6,199.7,18.8
967.5,201.2,211.4,214.0,169.9,199.1,20.2
972.0,198.4,215.3,214.4,168.4,199.1,21.9
976.5,201.3,214.6,213.1,170.1,199.8,20.7
981.0,196.4,218.6,215.5,171.0,200.4,21.9
985.5,194.6,216.3,218.7,172.4,200.5,21.6
990.0,196.5,218.8,218.5,173.0,201.7,21.8
994.5,192.8,217.9,215.0,174.5,200.0,20.4
999.0,192.9,218.4,212.3,176.1,199.9,19.3
1003.5,192.1,224.0,205.3,177.7,199.8,19.7
1008.0,187.0,219.8,196.4,176.5,194.9,18.5
1012.5,187.4,217.6,186.2,175.3,191.6,18.2
1017.0,191.5,217.1,179.3,180.8,192.2,17.5
1021.5,188.8,214.6,169.6,180.3,188.3,19.2
1026.0,186.8,211.3,162.7,182.2,185.8,20.0
1030.5,189.6,204.0,155.4,181.9,182.7,20.4
1035.0,190.0,194.3,143.4,182.2,177.5,23.3
1039.5,189.6,191.9,136.4,182.5,175.1,26.1
1044.0,184.8,181.4,129.1,185.3,170.1,27.4
1048.5,184.9,174.9,120.7,183.0,165.9,30.4
1053.0,187.0,167.1,107.9,183.8,161.4,36.8
1057.5,182.8,156.8,98.7,183.6,155.5,39.8
1062.0,179.9,147.9,88.0,179.5,148.8,43.2
1066.5,176.8,141.9,77.8,184.4,145.2,48.6
1071.0,171.2,132.9,71.8,178.3,138.5,48.7
1075.5,167.5,120.7,65.9,177.8,133.0,51.2
1080.0,159.9,112.1,61.3,176.8,127.5,52.0
1084.5,152.5,104.2,57.0,169.4,120.8,50.7
1089.0,145.6,97.1,53.6,168.7,116.3,51.3
1093.5,139.7,83.6,51.1,172.1,111.6,54.4
1098.0,134.5,74.3,51.0,167.1,106.7,53.5
1102.5,126.5,64.5,49.0,164.1,101.0,53.7
1107.0,115.8,57.7,47.0,159.3,94.9,52.5
1111.5,107.0,53.8,46.7,155.8,90.8,51.0
1116.0,98.0,52.8,46.7,151.4,87.2,48.5
1120.5,91.9,54.6,45.2,147.3,84.8,46.3
1125.0,84.9,55.2,44.2,139.3,80.9,42.5
1129.5,79.4,52.0,43.9,137.5,78.2,42.4
1134.0,74.9,,42.4,130.0,82.5,44.3
1138.5,70.7,,41.9,127.9,80.2,43.8
1143.0,65.7,,,122.0,93.9,39.8
1147.5,59.4,,,114.0,86.7,38.6
1152.0,55.6,,,103.5,79.6,33.8
1156.5,52.1,,,99.1,75.6,33.2
1161.0,50.4,,,94.4,72.4,31.1
1165.5,48.0,,,88.6,68.3,28.7
1170.0,46.5,,,82.2,64.3,25.2
1170.75,48.2,,,82.2,65.2,24.0