Folder: fsri_materials_database/01_Data/Pressure_Treated_Deck/Cone (part 4)

File: Pressure_Treated_Deck_Cone_HF50Scan_230612_R2.csv
Names,Time,Stack TC,Smoke TC,Exh Press,Smoke Comp,Smoke Meas,CO Meter,CO2 Meter,O2 Meter,Sample Mass,Ext Coeff,Start Test,Flame Verif
Chan Gain,,500,500,1,1,1,1,1,1,1,1,1.0,1.0
Offset,,0,0,0.245636,0,0,0,0,0,0,0,0.0,0.0
Gain,,1,1,25.011,13.2729,15.6672,1,1,1,1.00098,1.01809,1.0,1.0
Units,sec,C,C,Pa,%,%,%,%,%,g,/m,,
Baseline,,32.2225,34.6656,155.947,99.6897,99.7446,0.000584466,0.0525263,20.9479,-444.895,-0.00490909,,
46,11.25,30.8665,32.6249,156.793,99.6941,99.3405,0.000826133,0.0668084,20.9307,203.5,0.031735,0.0,0.0
92,22.75,31.6253,33.4916,156.67,99.7443,97.536,0.00102034,0.0634235,20.9355,202.92,0.199941,0.0,0.0
138,34.25,32.9317,37.2436,143.284,99.8687,99.2286,0.0010059,0.0695366,20.9293,202.159,0.0574233,0.0,1.0
184,45.75,40.1921,53.4687,137.633,99.9792,99.8783,0.0023208,0.302495,20.8031,200.317,0.00901697,0.0,0.0
230,57.25,48.5206,64.2922,133.401,99.9914,98.2666,0.00334681,0.513435,20.4437,198.225,0.155394,0.0,0.0
276,68.75,53.9884,68.7374,139.011,99.9148,97.4265,0.00401264,0.527482,20.3975,196.433,0.225228,0.0,0.0
322,80.25,55.9255,68.9354,140.133,99.752,97.9587,0.00460481,0.485772,20.4269,194.731,0.162015,0.0,0.0
368,91.75,56.9196,68.0149,143.191,99.5539,97.9888,0.00465232,0.438043,20.4844,193.01,0.141518,0.0,0.0
414,103.25,57.8071,67.6323,140.208,99.398,97.361,0.00376386,0.405605,20.5308,191.588,0.184917,0.0,0.0
460,114.75,57.535,67.0509,141.643,99.2919,97.0751,0.00366007,0.381616,20.5589,190.167,0.201642,0.0,0.0
506,126.25,57.4614,66.4966,145.177,99.4579,97.8248,0.00364862,0.369726,20.5764,188.595,0.147861,0.0,0.0
552,137.75,57.5598,65.9428,138.479,99.7706,97.9314,0.00361019,0.362491,20.5893,187.304,0.166168,0.0,0.0
598,149.25,57.8932,65.8635,139.304,99.9841,99.0813,0.00324197,0.362038,20.5925,185.853,0.081004,0.0,0.0
644,160.75,58.1245,65.8935,139.667,100.049,99.0703,0.00329012,0.361556,20.5912,184.371,0.0877819,0.0,0.0
690,172.25,58.5959,66.1968,142.697,99.9505,98.8494,0.00294366,0.351146,20.6042,183.07,0.0989263,0.0,0.0
736,183.75,58.3917,66.3924,147.779,99.6354,98.5329,0.00318616,0.343042,20.61,181.659,0.0993674,0.0,0.0
782,195.25,58.5817,65.1042,142.069,99.8581,99.3127,0.00288729,0.33592,20.6202,180.057,0.0489114,0.0,0.0
828,206.75,58.0329,65.2947,140.587,100.138,99.7975,0.00291588,0.321689,20.638,179.106,0.0304534,0.0,0.0
874,218.25,58.0457,65.1629,141.737,100.326,100.445,0.0027827,0.317006,20.6398,177.725,-0.0106248,0.0,0.0
920,229.75,57.6745,65.2099,138.647,100.423,100.084,0.00248383,0.309863,20.6511,176.484,0.0301415,0.0,0.0
966,241.25,57.3537,64.4942,142.272,100.473,100.861,0.00223269,0.305037,20.6571,175.232,-0.0343753,0.0,0.0
1012,252.75,57.508,63.6529,137.922,100.476,101.864,0.00219646,0.300344,20.6645,173.941,-0.122581,0.0,0.0
1058,264.25,57.5281,64.4699,137.999,100.452,101.219,0.0022386,0.296231,20.6679,172.76,-0.0680139,0.0,0.0
1104,275.75,57.6814,64.3357,142.144,100.411,101.099,0.00276567,0.293306,20.6702,171.549,-0.0609436,0.0,0.0
1150,287.25,57.9456,64.0816,140.831,100.323,101.998,0.00231235,0.291269,20.6743,170.197,-0.147888,0.0,0.0
1196,298.75,57.485,63.8169,141.561,100.212,101.08,0.0022266,0.290987,20.6763,168.986,-0.0770382,0.0,0.0
1242,310.25,57.8314,63.936,142.588,100.095,101.208,0.00224576,0.288339,20.6794,167.845,-0.098826,0.0,0.0
1288,321.75,57.6791,63.1877,137.338,99.9059,100.834,0.00242359,0.286374,20.6833,166.504,-0.0825873,0.0,0.0
1334,333.25,57.5288,63.4393,141.624,99.7747,100.034,0.00247049,0.285113,20.6829,165.293,-0.0231566,0.0,0.0
1380,344.75,57.6274,64.0156,139.824,99.6649,100.644,0.00233638,0.283261,20.6838,164.041,-0.0872879,0.0,0.0
1426,356.25,57.7648,63.5873,143.437,99.6021,100.41,0.00184962,0.279145,20.6896,162.77,-0.072145,0.0,0.0
1472,367.75,56.9851,62.9798,137.519,99.6641,100.594,0.00231347,0.284991,20.6825,161.599,-0.0829468,0.0,0.0
1518,379.25,57.6711,63.0929,141.845,99.8059,100.651,0.00198513,0.286991,20.6806,160.408,-0.0753025,0.0,0.0
1564,390.75,56.9254,63.6766,140.891,100.046,101.052,0.00237314,0.286303,20.6826,159.157,-0.0893512,0.0,0.0
1610,402.25,57.568,63.1998,136.84,100.309,101.484,0.00233969,0.284771,20.6857,158.015,-0.104039,0.0,0.0
1656,413.75,57.7519,63.5107,140.291,100.474,101.273,0.00231542,0.289155,20.6826,156.804,-0.0707145,0.0,0.0
1702,425.25,58.1768,63.6991,145.009,100.503,101.53,0.00209576,0.286475,20.6822,155.563,-0.0908202,0.0,0.0
1748,436.75,58.0712,64.4042,137.97,100.388,101.217,0.00206641,0.286986,20.6805,154.462,-0.0734228,0.0,0.0
1794,448.25,58.1434,64.2578,139.927,100.174,101.144,0.00194959,0.289442,20.6824,153.221,-0.0860485,0.0,0.0
1840,459.75,58.0795,64.0668,145.164,99.8719,100.956,0.00185396,0.291682,20.6773,151.969,-0.0964221,0.0,0.0
1886,471.25,57.8633,64.1698,139.552,99.5685,100.83,0.00205281,0.294127,20.675,150.878,-0.112419,0.0,0.0
1932,482.75,58.7075,64.4015,144.389,99.2348,100.213,0.00171734,0.295971,20.673,149.677,-0.0876088,0.0,0.0
1978,494.25,58.5106,64.127,142.763,98.9241,99.4796,0.00196568,0.296933,20.6708,148.456,-0.050011,0.0,0.0
2024,505.75,58.8624,64.4509,135.993,98.7835,99.5958,0.00213941,0.300135,20.6665,147.365,-0.0731324,0.0,0.0
2070,517.25,59.5182,65.4996,143.588,98.8803,99.0761,0.00191984,0.303617,20.6632,146.114,-0.0176597,0.0,0.0
2116,528.75,59.27,65.8861,138.597,99.2708,99.7019,0.00226278,0.306174,20.6606,144.882,-0.0387004,0.0,0.0
2162,540.25,60.0016,65.8094,141.981,99.7391,99.7373,0.00207361,0.310317,20.6566,143.821,0.000156497,0.0,0.0
2208,551.75,60.2698,66.6522,144.182,99.9975,100.335,0.00201162,0.312992,20.6533,142.55,-0.0301319,0.0,0.0
2254,563.25,60.1726,66.4866,138.406,99.8723,100.327,0.00226614,0.319915,20.6444,141.329,-0.0405931,0.0,0.0
2300,574.75,60.7634,67.1101,139.71,99.4985,99.4103,0.00222777,0.325545,20.6377,140.138,0.00791826,0.0,0.0
2346,586.25,60.7516,67.9417,137.525,99.3109,99.3926,0.00206098,0.333252,20.6293,138.897,-0.00734138,0.0,0.0
2392,597.75,61.6428,68.417,140.889,99.7358,99.9032,0.00219455,0.341183,20.617,137.645,-0.0149773,0.0,0.0
2438,609.25,62.5389,69.1223,139.049,99.9922,99.5924,0.00258659,0.35022,20.6078,136.354,0.0357769,0.0,0.0
2484,620.75,62.9683,70.1006,143.113,99.9375,99.5202,0.00232047,0.360004,20.5954,135.043,0.0373684,0.0,0.0
2530,632.25,63.3839,71.0137,140.867,99.8193,98.7538,0.00252512,0.370514,20.5836,133.711,0.0958366,0.0,0.0
2576,643.75,64.0331,71.3546,136.026,99.6475,98.1299,0.00252327,0.378827,20.5742,132.37,0.137061,0.0,0.0
2622,655.25,64.552,72.1676,141.454,99.5876,97.8501,0.00271601,0.384424,20.5659,130.939,0.157179,0.0,0.0
2668,666.75,64.9925,72.2074,135.353,99.6961,96.4588,0.00296012,0.390256,20.558,129.607,0.294806,0.0,0.0
2714,678.25,65.4306,72.9046,137.157,99.7314,97.4519,0.00308696,0.395751,20.5524,128.226,0.206489,0.0,0.0
2760,689.75,65.2308,73.4802,138.949,99.688,97.0206,0.00332284,0.40091,20.5469,126.815,0.242217,0.0,0.0
2806,701.25,66.1002,73.9675,139.026,99.6422,96.3608,0.00353096,0.407938,20.5365,125.433,0.299058,0.0,0.0
2852,712.75,66.5068,74.5918,132.904,99.5568,96.9814,0.00355758,0.408101,20.5334,123.912,0.234062,0.0,0.0
2898,724.25,67.6298,74.8807,141.979,99.5782,96.1824,0.00345845,0.41297,20.53,122.53,0.309863,0.0,0.0
2944,735.75,67.077,74.1819,134.592,99.5827,96.5764,0.00416075,0.411471,20.5294,121.089,0.273758,0.0,0.0
2990,747.25,67.4985,75.1734,136.54,99.7309,96.4483,0.00385821,0.420814,20.521,119.588,0.298899,0.0,0.0
3036,758.75,67.8216,75.5429,136.379,100.033,96.3259,0.00405103,0.426143,20.5114,118.076,0.337259,0.0,0.0
3082,770.25,67.736,75.6611,134.787,100.354,95.2621,0.00415877,0.429974,20.5029,116.645,0.464996,0.0,0.0
3128,781.75,68.5396,76.1536,131.785,100.495,95.3405,0.00467632,0.43583,20.4992,115.153,0.470219,0.0,0.0
3174,793.25,69.1015,76.3221,135.371,100.348,95.8822,0.00437579,0.433392,20.4999,113.622,0.406543,0.0,0.0
3220,804.75,69.5758,76.7502,137.88,99.9683,95.0283,0.00405931,0.433538,20.4995,112.23,0.452595,0.0,0.0
3266,816.25,69.2983,76.7605,136.035,99.4608,95.3692,0.00423595,0.430378,20.4986,110.769,0.375158,0.0,0.0
3312,827.75,69.3768,76.6409,133.813,99.0039,94.0242,0.00391311,0.424751,20.5038,109.348,0.460881,0.0,0.0
3358,839.25,68.8551,76.0128,133.32,98.8005,94.9704,0.00344068,0.414335,20.5145,108.106,0.353096,0.0,0.0
3404,850.75,68.8771,75.451,138.88,98.901,94.9781,0.00318533,0.398084,20.5299,106.855,0.361452,0.0,0.0
3450,862.25,68.403,74.4863,133.425,99.2072,96.4234,0.00304132,0.379418,20.5482,105.714,0.254179,0.0,0.0
3496,873.75,67.2892,72.4449,138.637,99.6625,97.7827,0.00287915,0.350584,20.5794,104.843,0.170052,0.0,0.0
3542,885.25,65.632,69.8375,143.604,99.9477,98.6395,0.00259837,0.312879,20.6146,103.982,0.117656,0.0,0.0
3588,896.75,63.7614,66.9573,146.295,99.974,99.5403,0.00227851,0.26734,20.6686,103.312,0.0388228,0.0,0.0
3634,908.25,61.7593,63.7216,136.642,99.6576,99.6249,0.00195586,0.222568,20.7193,102.921,0.0029304,0.0,0.0
3680,919.75,58.7206,60.1786,148.936,99.2688,100.33,0.00193823,0.179219,20.7719,102.521,-0.0949382,0.0,0.0
3726,931.25,56.6714,56.5946,147.185,99.7589,100.722,0.00197584,0.146968,20.8103,102.321,-0.085784,0.0,0.0
3772,942.75,54.4711,54.8412,145.204,99.9703,100.719,0.00222516,0.133472,20.8375,102.19,-0.066664,0.0,0.0
3818,954.25,52.7918,53.1935,146.647,99.7058,100.384,0.00221808,0.127409,20.8447,101.9,-0.0605127,0.0,0.0
3864,965.75,51.7687,52.3264,147.321,100.263,100.9,0.0023771,0.12528,20.8497,101.74,-0.0565873,0.0,0.0
3910,977.25,49.287,49.7858,151.083,100.495,101.243,0.00225948,0.123257,20.852,101.64,-0.066235,0.0,0.0
3956,988.75,48.4436,49.3703,147.282,100.266,100.99,0.0026509,0.123152,20.8543,101.42,-0.0642869,0.0,0.0
4002,1000.25,47.956,49.4311,146.359,99.9262,100.7,0.00240423,0.119978,20.8571,101.34,-0.068913,0.0,0.0
4048,1011.75,47.2593,48.3103,149.982,99.5381,100.353,0.00253133,0.119397,20.861,101.24,-0.0728228,0.0,0.0
4094,1023.25,46.5395,47.9465,147.681,99.2943,100.118,0.00254379,0.119171,20.8602,100.899,-0.0738119,0.0,0.0
4140,1034.75,46.3676,48.09,148.976,99.2291,99.7163,0.0024984,0.119027,20.8605,100.869,-0.043739,0.0,0.0
4186,1046.25,46.0791,47.2161,150.153,99.2048,100.09,0.00299194,0.11906,20.8605,100.779,-0.0793505,0.0,0.0
4232,1057.75,45.2001,46.9452,151.361,99.2817,100.072,0.00263622,0.118291,20.8645,100.549,-0.0708465,0.0,0.0
4278,1069.25,45.2075,47.5014,149.984,99.3988,100.119,0.00306421,0.117644,20.8651,100.479,-0.0644601,0.0,0.0
4324,1080.75,44.6905,46.6313,153.192,99.5547,100.082,0.00300126,0.116937,20.8645,100.349,-0.0471332,0.0,0.0
4354,1088.25,43.9445,46.2164,147.348,99.6568,100.125,0.00262841,0.115887,20.8639,100.179,-0.0418621,0.0,0.0

File: Pressure_Treated_Deck_Cone_HF50Scan_230613_R3.csv
Names,Time,Stack TC,Smoke TC,Exh Press,Smoke Comp,Smoke Meas,CO Meter,CO2 Meter,O2 Meter,Sample Mass,Ext Coeff,Start Test,Flame Verif
Chan Gain,,500,500,1,1,1,1,1,1,1,1,1.0,1.0
Offset,,0,0,0.245636,0,0,0,0,0,0,0,0.0,0.0
Gain,,1,1,25.011,13.3733,15.7861,1,1,1,1.00098,1.01809,1.0,1.0
Units,sec,C,C,Pa,%,%,%,%,%,g,/m,,
Baseline,,36.3079,38.7078,154.18,100.676,100.659,0.000532934,0.0536614,20.9444,-446.328,0.00152346,,
47,11.5,34.9056,37.924,149.811,100.241,100.024,0.000627859,0.0615065,20.9305,195.182,0.0194059,0.0,0.0
94,23.25,35.7594,38.6943,156.611,100.474,98.7239,0.000563521,0.0560902,20.939,194.721,0.156918,0.0,0.0
141,35,37.0064,41.8715,143.342,100.667,101.839,0.000850834,0.0553164,20.9451,193.991,-0.103377,0.0,1.0
188,46.75,43.9838,55.3433,137.886,100.614,100.315,0.00213939,0.268383,20.8321,192.299,0.0266362,0.0,0.0
235,58.5,50.7844,64.41,140.66,100.303,99.3121,0.00338401,0.443431,20.5208,190.407,0.0886896,0.0,0.0
282,70.25,55.5762,69.208,131.821,100.59,98.446,0.00382729,0.46816,20.4684,188.716,0.192431,0.0,0.0
329,82,58.9199,71.5411,131.576,100.856,99.6026,0.00409352,0.462251,20.4666,186.914,0.111635,0.0,0.0
376,93.75,61.216,73.1868,137.075,100.984,99.3459,0.00426966,0.451212,20.4794,185.302,0.1461,0.0,0.0
423,105.5,62.416,73.3921,135.919,100.993,98.7215,0.00422393,0.441183,20.4909,183.631,0.203196,0.0,0.0
470,117.25,63.4323,72.8574,140.824,101.003,98.3771,0.00446504,0.418382,20.5147,182.059,0.235241,0.0,0.0
517,129,62.4706,72.0518,133.361,100.892,99.2274,0.00390597,0.395905,20.5439,180.558,0.148599,0.0,0.0
564,140.75,62.4287,70.7601,140.637,100.712,99.0062,0.00395296,0.37592,20.5691,179.126,0.152577,0.0,0.0
611,152.5,62.3404,70.8475,140.824,100.542,99.2028,0.00367103,0.360915,20.5849,177.635,0.119725,0.0,0.0
658,164.25,62.2917,69.2823,141.597,100.392,99.6884,0.00329925,0.344634,20.6028,176.263,0.0628375,0.0,0.0
705,176,61.9432,69.385,141.884,100.262,99.7708,0.00296768,0.33461,20.6185,174.892,0.0438712,0.0,0.0
752,187.75,61.3151,69.1881,138.219,100.539,100.264,0.00326139,0.326169,20.6305,173.601,0.024478,0.0,0.0
799,199.5,61.4695,68.4144,138.976,100.617,100.525,0.00303023,0.319866,20.6351,172.279,0.00813099,0.0,0.0
846,211.25,61.1806,67.9488,141.333,100.387,100.133,0.00270312,0.311038,20.6446,171.058,0.0226188,0.0,0.0
893,223,61.0497,67.4301,141.049,100.002,100.025,0.00273608,0.300683,20.66,169.857,-0.00205494,0.0,0.0
940,234.75,60.3523,67.1734,139.969,100.178,100.916,0.00276072,0.294383,20.6684,168.616,-0.0655443,0.0,0.0
987,246.5,60.8304,66.6598,142.628,100.504,101.399,0.00246076,0.290039,20.6727,167.365,-0.079133,0.0,0.0
1034,258.25,60.2955,65.4674,143.807,100.712,101.738,0.00245941,0.285927,20.6775,166.063,-0.0905562,0.0,0.0
1081,270,58.6289,66.1631,141.8,100.74,101.796,0.00256809,0.286054,20.6801,164.852,-0.0930538,0.0,0.0
1128,281.75,60.0026,65.4874,132.807,100.731,102.536,0.00217986,0.281406,20.6809,163.571,-0.158606,0.0,0.0
1175,293.5,59.676,65.4623,143.053,100.734,101.606,0.00219731,0.278018,20.6905,162.28,-0.0769287,0.0,0.0
1222,305.25,58.9506,65.3311,141.875,100.738,102.471,0.00226873,0.273281,20.6946,161.038,-0.15233,0.0,0.0
1269,317,59.4167,64.7439,145.127,100.739,101.793,0.0025118,0.271746,20.6984,159.857,-0.0929505,0.0,0.0
1316,328.75,58.9087,64.6483,141.639,100.712,101.305,0.00229799,0.270814,20.6993,158.616,-0.0524153,0.0,0.0
1363,340.5,59.2248,64.5687,142.771,100.691,101.409,0.00219945,0.272283,20.6958,157.495,-0.0634656,0.0,0.0
1410,352.25,59.3297,64.395,145.398,100.638,102.353,0.00253824,0.272905,20.6956,156.254,-0.150984,0.0,0.0
1457,364,59.0995,65.0508,143.119,100.577,101.834,0.00244944,0.275324,20.6909,155.052,-0.110955,0.0,0.0
1504,375.75,59.2033,65.4131,140.43,100.54,101.807,0.00233686,0.276701,20.6857,153.841,-0.11185,0.0,0.0
1551,387.5,59.4311,65.3368,141.002,100.51,102.141,0.00204768,0.27607,20.6886,152.64,-0.143729,0.0,0.0
1598,399.25,59.8786,65.4297,142.684,100.498,101.302,0.0020761,0.276943,20.686,151.459,-0.0711078,0.0,0.0
1645,411,59.658,65.3877,144.102,100.399,101.46,0.00224799,0.27742,20.6902,150.228,-0.0938439,0.0,0.0
1692,422.75,59.8769,65.4999,135.92,100.258,101.085,0.00200393,0.276534,20.6918,149.017,-0.0732838,0.0,0.0
1739,434.5,59.9622,65.3919,146.389,100.08,101.085,0.00226403,0.278761,20.6863,147.835,-0.089263,0.0,0.0
1786,446.25,59.7751,65.1642,138.733,100.023,101.389,0.00230139,0.277789,20.6861,146.684,-0.121064,0.0,0.0
1833,458,59.9966,65.5545,136.856,100.342,101.748,0.0024693,0.280591,20.6872,145.493,-0.124329,0.0,0.0
1880,469.75,60.2048,65.8149,139.954,100.64,101.553,0.00210905,0.281869,20.6845,144.412,-0.0807104,0.0,0.0
1927,481.5,60.2593,66.1593,144.444,100.619,101.877,0.00189771,0.283763,20.6824,143.241,-0.111024,0.0,0.0
1974,493.25,60.8598,66.2104,138.37,100.352,101.484,0.00195417,0.287538,20.6799,142.04,-0.100182,0.0,0.0
2021,505,60.9757,66.8368,137.39,100.742,101.644,0.00184812,0.294123,20.6704,140.859,-0.0796287,0.0,0.0
2068,516.75,61.1752,67.096,142.688,101.131,101.712,0.00208128,0.300028,20.6655,139.697,-0.0512176,0.0,0.0
2115,528.5,61.4259,68.14,142.011,101.178,102.311,0.00220848,0.307312,20.661,138.436,-0.0993842,0.0,0.0
2162,540.25,62.3604,68.6705,138.605,100.731,101.14,0.00201961,0.314262,20.6493,137.175,-0.0362137,0.0,0.0
2209,552,62.7565,68.9742,141.869,100.303,100.659,0.00186386,0.317937,20.6431,135.984,-0.0316601,0.0,0.0
2256,563.75,63.1831,69.676,137.619,99.9613,100.371,0.0023968,0.322751,20.6383,134.702,-0.0364879,0.0,0.0
2303,575.5,63.3377,69.5536,135.971,99.7756,100.666,0.00194267,0.326006,20.6344,133.451,-0.07933,0.0,0.0
2350,587.25,64.0518,69.8648,139.634,99.6769,99.2871,0.00238675,0.335418,20.6262,132.25,0.034989,0.0,0.0
2397,599,63.862,71.1845,144.059,99.6638,99.8724,0.00259785,0.340031,20.6189,130.969,-0.0186747,0.0,0.0
2444,610.75,64.7752,71.8486,141.214,99.6875,100.307,0.0024633,0.345852,20.612,129.678,-0.0553275,0.0,0.0
2491,622.5,65.057,72.2923,140.907,99.7336,99.1522,0.00256062,0.355526,20.6016,128.376,0.0522121,0.0,0.0
2538,634.25,66.116,73.3487,133.916,99.8401,98.815,0.00264532,0.36974,20.5892,126.955,0.0921716,0.0,0.0
2585,646,66.539,74.3003,140.052,100.042,98.7682,0.00288471,0.379513,20.5746,125.664,0.11441,0.0,0.0
2632,657.75,67.4445,74.5463,138.882,100.308,99.2052,0.00353188,0.389169,20.5612,124.122,0.0987484,0.0,0.0
2679,669.5,68.2752,76.1897,137.187,100.725,99.1002,0.00310025,0.400039,20.5478,122.681,0.145229,0.0,0.0
2726,681.25,68.7159,76.8242,138.019,101.024,98.986,0.00339662,0.409249,20.5345,121.229,0.181973,0.0,0.0
2773,693,69.2622,76.8622,138.312,101.15,98.9576,0.00365217,0.410309,20.5291,119.808,0.195715,0.0,0.0
2820,704.75,69.8045,77.7101,139.483,101.127,98.3954,0.00358107,0.414591,20.5271,118.346,0.244579,0.0,0.0
2867,716.5,70.2632,77.7453,136.129,100.959,97.6723,0.00383655,0.420031,20.5183,116.925,0.29559,0.0,0.0
2914,728.25,70.5679,78.5968,136.822,100.716,98.5563,0.00389506,0.422224,20.5139,115.454,0.193619,0.0,0.0
2961,740,71.2753,78.7618,138.771,100.546,97.6116,0.00423729,0.429908,20.5063,113.872,0.264498,0.0,0.0
3008,751.75,71.1022,78.3985,135.81,100.522,96.8258,0.00455305,0.429991,20.5034,112.33,0.334537,0.0,0.0
3055,763.5,71.5978,79.2791,132.876,100.578,97.1847,0.00449797,0.441685,20.4938,110.779,0.306462,0.0,0.0
3102,775.25,71.7309,79.8741,138.228,100.711,96.755,0.00510538,0.43676,20.4987,109.287,0.357845,0.0,0.0
3149,787,71.4623,79.3095,134.506,100.893,95.9678,0.00504337,0.43972,20.4922,107.796,0.446998,0.0,0.0
3196,798.75,71.9086,79.585,139.397,101.083,97.2387,0.00502172,0.4348,20.4935,106.275,0.346291,0.0,0.0
3243,810.5,72.0194,79.0474,138.778,101.178,97.9305,0.00436292,0.426973,20.4996,104.833,0.291377,0.0,0.0
3290,822.25,72.005,79.1107,138.05,101.176,97.2738,0.00456599,0.421239,20.5072,103.422,0.35128,0.0,0.0
3337,834,71.4648,78.2369,131.725,101.11,97.4964,0.00440013,0.408479,20.5193,102.1,0.324995,0.0,0.0
3384,845.75,70.7165,77.1993,136.642,100.971,98.695,0.00353559,0.392379,20.5357,100.909,0.203609,0.0,0.0
3431,857.5,70.0159,76.3101,141.432,100.81,99.198,0.00366124,0.371841,20.5603,99.7981,0.143943,0.0,0.0
3478,869.25,68.7869,74.4404,140.659,100.638,98.8121,0.00327884,0.343802,20.5887,98.7871,0.163518,0.0,0.0
3525,881,67.7755,72.1065,139.149,100.386,99.7568,0.0027912,0.311861,20.6206,97.8863,0.0561295,0.0,0.0
3572,892.75,65.8746,69.6089,143.293,100.064,99.2317,0.00225094,0.281031,20.6565,97.1555,0.0746085,0.0,0.0
3619,904.5,64.4558,67.1408,138.661,99.7638,100.061,0.00214763,0.248885,20.6951,96.5449,-0.0265483,0.0,0.0
3666,916.25,62.0425,64.5629,145.115,99.576,100.132,0.00188519,0.217637,20.7313,95.9944,-0.049731,0.0,0.0
3713,928,60.1485,63.0442,147.578,99.5952,100.167,0.00134884,0.191693,20.764,95.554,-0.0511464,0.0,0.0
3760,939.75,57.7058,59.6566,147.858,99.8091,100.793,0.00180907,0.16606,20.7896,95.2737,-0.0876115,0.0,0.0
3807,951.5,56.7974,57.0253,148.388,100.191,100.795,0.00178548,0.13876,20.8245,95.0735,-0.0536314,0.0,0.0
3854,963.25,55.0508,55.7662,145.363,100.632,101.62,0.00216087,0.124436,20.8485,94.9734,-0.0872847,0.0,0.0
3901,975,53.3967,54.3428,147.697,100.782,102.116,0.00228135,0.122776,20.8543,94.8132,-0.117426,0.0,0.0
3948,986.75,51.883,53.2842,145.366,100.543,101.445,0.00254586,0.122904,20.8521,94.6531,-0.0797661,0.0,0.0
3995,998.5,51.2774,52.5173,145.5,100.078,100.783,0.00246642,0.122211,20.853,94.5129,-0.0626888,0.0,0.0
4042,1010.25,49.1561,49.9898,146.721,100.275,101.178,0.0022889,0.118735,20.8542,94.3928,-0.0800035,0.0,0.0
4089,1022,48.5738,49.7156,146.157,100.503,101.339,0.00242488,0.116415,20.8583,94.2226,-0.0739847,0.0,0.0
4136,1033.75,48.0237,49.5821,147.445,100.625,101.282,0.00258967,0.115766,20.8597,94.0725,-0.0580944,0.0,0.0
4183,1045.5,47.5157,48.6867,148.562,100.64,101.29,0.00239734,0.112785,20.8647,93.8423,-0.057512,0.0,0.0
4230,1057.25,47.0021,48.7448,150.632,100.616,101.291,0.0024304,0.113381,20.864,93.7021,-0.0597345,0.0,0.0
4277,1069,46.8048,48.582,146.84,100.635,101.381,0.00239039,0.111445,20.8658,93.582,-0.0659658,0.0,0.0
4324,1080.75,46.6767,47.4511,149.832,100.626,101.349,0.00285663,0.112297,20.8661,93.4919,-0.0639609,0.0,0.0
4371,1092.5,45.5093,47.0949,149.19,100.626,101.336,0.00234163,0.111027,20.8669,93.4319,-0.0627724,0.0,0.0
4418,1104.25,45.636,47.3051,147.808,100.651,101.33,0.00267313,0.111041,20.8672,93.3018,-0.0600534,0.0,0.0
4465,1116,45.424,46.7285,145.973,100.649,101.835,0.0024575,0.109714,20.868,93.2417,-0.104663,0.0,0.0
4508,1126.75,45.4319,47.0076,145.814,100.65,101.457,0.0026524,0.110194,20.8713,93.1116,-0.0713701,0.0,0.0

File: Pressure_Treated_Deck_Cone_HF75Scalar_230613_R1.csv
LABORATORY,FSRI
TEST IDENT,PTDB_HF75_R1
OPERATOR,Marino
MATERIAL,Pressure Treated Deck Board
ORIENTATION,Horizontal
HEAT FLUX,75
SURF AREA,0.01
C FACTOR,0.0414827
SPEC HOLDER DIFF,-566
SPECIMEN MASS,130.84
SCAN TIME,0.25
O2 DELAY TIME,11
CO DELAY TIME,11
CO2 DELAY TIME,8
FLOW FACTOR,1
SCAN COUNT,4275
TIME TO IGN,14.25
END OF TEST SCAN,3795
END OF TEST TIME,948.75
TEST STATUS,1
PRE TEST CMT,Dimensions: 101.48 x 102.40 x 19.60 mm; with tie wires
POST TEST CMT,"Sample fractured, charred, and reduced in surface area."

File: Pressure_Treated_Deck_Cone_HF75Scalar_230613_R2.csv
LABORATORY,FSRI
TEST IDENT,PTDB_HF75_R2
OPERATOR,Marino
MATERIAL,Pressure Treated Deck Board
ORIENTATION,Horizontal
HEAT FLUX,75
SURF AREA,0.01
C FACTOR,0.0414827
SPEC HOLDER DIFF,-566
SPECIMEN MASS,129.69
SCAN TIME,0.25
O2 DELAY TIME,11
CO DELAY TIME,11
CO2 DELAY TIME,8
FLOW FACTOR,1
SCAN COUNT,4055
TIME TO IGN,10.75
END OF TEST SCAN,3575
END OF TEST TIME,893.75
TEST STATUS,1
PRE TEST CMT,Dimensions: 102.64 x 101.94 x 19.67 mm; with tie wires
POST TEST CMT,"Sample fractured, charred, and reduced in surface area."

File: Pressure_Treated_Deck_Cone_HF75Scalar_230620_R3.csv
LABORATORY,FSRI
TEST IDENT,PTDB_HF75_R3
OPERATOR,Marino
MATERIAL,Pressure Treated Deck Board
ORIENTATION,Horizontal
HEAT FLUX,75
SURF AREA,0.01
C FACTOR,0.040763
SPEC HOLDER DIFF,-566
SPECIMEN MASS,131.94
SCAN TIME,0.25
O2 DELAY TIME,11
CO DELAY TIME,11
CO2 DELAY TIME,8
FLOW FACTOR,1
SCAN COUNT,4231
TIME TO IGN,13.5
END OF TEST SCAN,3751
END OF TEST TIME,937.75
TEST STATUS,1
PRE TEST CMT,Dimensions: 101.61 x 101.63 x 19.51 mm; with tie wires
POST TEST CMT,"Sample fractured, charred, and reduced in surface area."