Folder: fsri_materials_database/01_Data/Pressure_Treated_Deck/Cone (part 2)

File: Pressure_Treated_Deck_Cone_HF25Scan_230612_R2.csv
Names,Time,Stack TC,Smoke TC,Exh Press,Smoke Comp,Smoke Meas,CO Meter,CO2 Meter,O2 Meter,Sample Mass,Ext Coeff,Start Test,Flame Verif
Chan Gain,,500,500,1,1,1,1,1,1,1,1,1.0,1.0
Offset,,0,0,0.13972,0,0,0,0,0,0,0,0.0,0.0
Gain,,1,1,25.011,13.3025,15.4883,1,1,1,1.0009,1.01862,1.0,1.0
Units,sec,C,C,Pa,%,%,%,%,%,g,/m,,
Baseline,,26.0099,27.5868,159.286,100.095,99.157,0.000656969,0.0439777,20.9646,-443.757,0.084122,,
60,14.75,24.1767,24.9813,157.993,100.509,99.6518,0.000474511,0.045432,20.9623,194.536,0.0765262,0.0,0.0
120,29.75,24.0543,26.151,160.542,100.564,99.6059,0.000525585,0.0446338,20.9653,194.216,0.08551,0.0,0.0
180,44.75,24.1138,25.87,156.868,100.644,99.4022,0.00065697,0.0447814,20.9666,194.055,0.110906,0.0,0.0
240,59.75,24.7555,26.4212,158.97,100.577,99.8158,0.00070595,0.0480767,20.9611,193.765,0.0678938,0.0,0.0
300,74.75,25.1488,26.6182,161.269,100.183,99.2231,0.000654311,0.0466254,20.9637,193.555,0.0860585,0.0,0.0
360,89.75,24.7465,27.1063,164.537,99.7181,98.4743,0.000648611,0.0493177,20.9626,193.345,0.112146,0.0,0.0
420,104.75,24.8387,26.383,164.203,100.137,98.4559,0.000793347,0.0480394,20.9623,193.115,0.151245,0.0,0.0
480,119.75,25.0041,26.6316,158.9,99.6747,97.65,0.000884315,0.0522274,20.9581,192.924,0.183366,0.0,0.0
540,134.75,24.9973,27.0168,158.543,99.6925,96.9855,0.00139085,0.0498893,20.9593,192.654,0.245985,0.0,0.0
600,149.75,25.4919,26.7849,161.552,100.114,97.2979,0.00153846,0.0504133,20.9592,192.284,0.254899,0.0,0.0
660,164.75,25.4328,27.3712,162.541,99.7733,97.4945,0.00158175,0.0508611,20.9585,191.853,0.206446,0.0,0.0
720,179.75,25.169,27.95,161.303,99.1343,96.2278,0.00190923,0.0516782,20.9577,191.613,0.265893,0.0,0.0
780,194.75,26.2673,31.0578,147.753,98.9106,97.7989,0.0021574,0.0521123,20.9591,190.802,0.100999,0.0,0.0
840,209.75,33.352,43.0644,149.525,99.0669,97.7048,0.00247864,0.290365,20.7311,189.181,0.123704,0.0,0.0
900,224.75,37.9129,47.852,146.359,99.2411,97.8788,0.00299245,0.349386,20.6127,187.459,0.123505,0.0,0.0
960,239.75,40.5144,49.5801,150.325,99.3491,97.65,0.00286581,0.339075,20.62,185.738,0.154131,0.0,0.0
1020,254.75,42.2538,50.2295,144.685,99.4303,97.9369,0.00299348,0.336306,20.6291,184.257,0.135216,0.0,0.0
1080,269.75,42.8904,49.3013,148.358,99.5257,97.8764,0.00276236,0.310077,20.6514,182.755,0.149307,0.0,0.0
1140,284.75,43.0908,49.2331,148.903,99.602,98.229,0.00259579,0.293379,20.6776,181.354,0.124024,0.0,0.0
1200,299.75,43.0218,48.5591,149.675,99.4481,98.5226,0.00267734,0.275174,20.6972,179.953,0.0835506,0.0,0.0
1260,314.75,42.5932,47.939,150.15,99.1627,98.0376,0.00257619,0.267213,20.7105,178.661,0.101963,0.0,0.0
1320,329.75,42.0025,46.513,152.676,98.9387,98.3151,0.00223253,0.249563,20.7287,177.48,0.0564952,0.0,0.0
1380,344.75,41.7817,46.7846,151.328,98.9496,97.7091,0.00240358,0.239946,20.7399,176.269,0.112728,0.0,0.0
1440,359.75,41.2336,45.85,155.612,99.2561,98.7338,0.00263166,0.229285,20.7546,175.018,0.04714,0.0,0.0
1500,374.75,41.1209,44.8252,150.125,99.6682,99.25,0.00225992,0.221642,20.7633,173.807,0.037567,0.0,0.0
1560,389.75,40.4829,44.8219,149.27,100.028,99.4944,0.00236424,0.212155,20.7744,172.596,0.0478191,0.0,0.0
1620,404.75,39.7728,44.5744,151.275,100.15,99.7477,0.00271719,0.200687,20.7865,171.525,0.0360034,0.0,0.0
1680,419.75,40.5773,43.7988,147.999,99.9507,99.785,0.00313602,0.19677,20.7918,170.414,0.0148222,0.0,0.0
1740,434.75,40.0474,43.7749,151.704,99.5074,98.8927,0.00322766,0.195708,20.7919,169.303,0.0553711,0.0,0.0
1800,449.75,39.0226,43.4393,153.919,99.6905,99.5326,0.00319379,0.194528,20.7962,168.122,0.0141587,0.0,0.0
1860,464.75,39.6883,43.1288,152.134,100.141,99.5894,0.00320258,0.193458,20.7968,166.971,0.0493658,0.0,0.0
1920,479.75,39.7981,42.9754,153.41,99.9097,99.1129,0.00246542,0.193447,20.7966,165.9,0.0715443,0.0,0.0
1980,494.75,39.2427,43.1056,148.09,100.165,99.8588,0.00298507,0.191684,20.7996,164.879,0.0273987,0.0,0.0
2040,509.75,39.298,42.2779,155.037,100.641,99.9916,0.00280984,0.190263,20.8019,163.808,0.0578288,0.0,0.0
2100,524.75,39.1741,42.5849,151.049,100.458,99.8309,0.00305536,0.18768,20.8048,162.707,0.05593,0.0,0.0
2160,539.75,38.7023,42.0248,150.429,99.5545,98.6852,0.00269114,0.18651,20.8078,161.586,0.0783678,0.0,0.0
2220,554.75,38.7235,41.3521,152.723,98.9695,98.4436,0.00281883,0.184126,20.8102,160.705,0.047604,0.0,0.0
2280,569.75,38.793,41.6232,154.571,99.2265,99.0028,0.00297492,0.182098,20.811,159.744,0.0201653,0.0,0.0
2340,584.75,37.9643,40.9298,153.348,99.5675,99.37,0.00301938,0.17983,20.8137,158.754,0.0177355,0.0,0.0
2400,599.75,38.3883,40.7841,153.522,99.6178,99.3266,0.00306216,0.183587,20.8118,157.673,0.0261626,0.0,0.0
2460,614.75,38.3117,41.2988,149.418,99.4895,98.818,0.00293483,0.180664,20.8127,156.722,0.0605185,0.0,0.0
2520,629.75,37.9422,41.2413,150.092,99.2833,99.1843,0.00301677,0.178859,20.8155,155.801,0.00891524,0.0,0.0
2580,644.75,38.1608,41.0089,156.476,99.0365,98.299,0.00326636,0.178948,20.8168,154.8,0.066788,0.0,0.0
2640,659.75,37.8479,41.0816,153.704,98.9354,98.4035,0.00332974,0.176025,20.8214,153.869,0.0481719,0.0,0.0
2700,674.75,37.5282,39.9497,151.293,99.3016,98.3188,0.00334861,0.17598,20.8199,152.838,0.0888685,0.0,0.0
2760,689.75,37.399,39.7132,145.867,100.082,99.2335,0.00314831,0.175937,20.8216,151.957,0.0761027,0.0,0.0
2820,704.75,37.9863,40.6437,153.07,100.621,100.113,0.00337765,0.175778,20.8203,151.077,0.0452495,0.0,0.0
2880,719.75,37.3846,40.7923,152.359,100.396,99.8276,0.00354854,0.176456,20.819,150.096,0.0507364,0.0,0.0
2940,734.75,37.8773,40.7285,155.264,99.8338,99.6796,0.00306834,0.176001,20.8196,149.145,0.0138066,0.0,0.0
3000,749.75,37.5646,40.4435,154.285,100.086,99.4107,0.00319962,0.176728,20.8186,148.144,0.0605196,0.0,0.0
3060,764.75,37.6073,40.1834,152.898,100.139,99.5204,0.00254359,0.180113,20.817,147.243,0.0553785,0.0,0.0
3120,779.75,37.7137,40.6611,155.008,100.069,99.4665,0.00325004,0.180317,20.814,146.372,0.0539853,0.0,0.0
3180,794.75,37.6395,40.1109,153.576,100.059,99.3091,0.0028289,0.18104,20.8173,145.431,0.0672299,0.0,0.0
3240,809.75,37.3515,40.8585,148.817,100.101,99.7992,0.00253367,0.185377,20.8114,144.541,0.0270058,0.0,0.0
3300,824.75,38,40.9346,145.253,100.102,99.821,0.00271749,0.192591,20.8043,143.47,0.0251323,0.0,0.0
3360,839.75,38.3021,41.3047,150.379,100.134,99.4915,0.00242395,0.197821,20.7978,142.539,0.0575335,0.0,0.0
3420,854.75,38.5841,42.4277,148.608,100.164,99.5468,0.00186036,0.203823,20.7916,141.588,0.0552112,0.0,0.0
3480,869.75,38.8335,43.0138,149.651,100.182,99.6589,0.00189857,0.20915,20.78,140.577,0.0467914,0.0,0.0
3540,884.75,39.8712,44.2608,148.864,100.096,100.131,0.00202184,0.220629,20.7709,139.526,-0.00308738,0.0,0.0
3600,899.75,40.893,45.4681,150.463,99.8277,99.4291,0.00185706,0.231578,20.7606,138.315,0.0357456,0.0,0.0
3660,914.75,41.9933,47.088,149.629,99.9422,99.3521,0.00175859,0.241725,20.7462,137.234,0.0529138,0.0,0.0
3720,929.75,43.4277,48.4176,150.208,100.271,99.9027,0.00190755,0.255498,20.7315,136.063,0.0328404,0.0,0.0
3780,944.75,44.1425,49.8242,149.451,100.58,100.056,0.00223355,0.266341,20.7168,134.802,0.046642,0.0,0.0
3840,959.75,45.6065,50.7265,143.028,100.671,100.172,0.00206812,0.27976,20.7017,133.491,0.0444536,0.0,0.0
3900,974.75,46.3145,52.2311,146.002,100.385,99.2689,0.00214542,0.294455,20.6864,131.999,0.0999447,0.0,0.0
3960,989.75,46.9282,53.2962,149.611,99.7879,98.8128,0.00256068,0.307691,20.6665,130.498,0.0877463,0.0,0.0
4020,1004.75,48.6264,54.4595,146.671,99.1567,97.7871,0.00222063,0.322558,20.6539,129.097,0.124275,0.0,0.0
4080,1019.75,49.7491,56.3221,141.917,99.0032,97.5853,0.00224526,0.337819,20.6332,127.435,0.128897,0.0,0.0
4140,1034.75,50.7163,57.5496,148.629,99.3548,97.2903,0.00280176,0.349502,20.6195,125.684,0.187617,0.0,0.0
4200,1049.75,51.8296,59.0424,138.626,99.9491,97.0578,0.00294227,0.36774,20.6013,124.012,0.262291,0.0,0.0
4260,1064.75,52.7544,60.3348,143.154,100.168,97.2052,0.00319208,0.381187,20.5811,122.08,0.2683,0.0,0.0
4320,1079.75,54.46,61.2962,145.633,99.7843,96.4929,0.00294959,0.393367,20.568,120.309,0.299695,0.0,0.0
4380,1094.75,54.6076,62.4505,138.899,99.4473,95.4526,0.00303983,0.399029,20.5579,118.467,0.366331,0.0,0.0
4440,1109.75,55.4756,62.6521,142.485,99.4047,95.8076,0.00338555,0.408751,20.5493,116.605,0.329332,0.0,0.0
4500,1124.75,55.8808,62.982,143.441,99.4014,95.7953,0.00331563,0.413491,20.5387,114.544,0.330186,0.0,0.0
4560,1139.75,57.2206,63.6603,139.636,99.496,95.2985,0.0034191,0.420626,20.5294,112.642,0.385141,0.0,0.0
4620,1154.75,57.8531,65.4071,140.865,99.7798,94.8216,0.00477468,0.436852,20.5121,110.64,0.455418,0.0,0.0
4680,1169.75,58.6896,66.1981,142.739,100.059,94.6349,0.00471738,0.437215,20.5029,108.668,0.498005,0.0,0.0
4740,1184.75,59.1023,67.1519,143.679,100.152,95.1553,0.00545754,0.436783,20.5009,106.666,0.457266,0.0,0.0
4800,1199.75,59.7694,66.9346,138.538,99.8403,92.7782,0.00527487,0.433141,20.4999,104.625,0.655487,0.0,0.0
4860,1214.75,58.6492,64.8182,146.642,99.2878,94.0143,0.00493799,0.40264,20.5246,103.113,0.48765,0.0,0.0
4920,1229.75,57.2608,62.1208,148.071,98.9399,92.9148,0.00434655,0.357501,20.5705,101.712,0.561392,0.0,0.0
4980,1244.75,54.6116,57.6434,150.179,99.3556,94.4179,0.00315031,0.303358,20.629,100.691,0.455467,0.0,0.0
5040,1259.75,51.2283,53.2173,152.669,100.102,97.0304,0.00277317,0.241585,20.6973,99.8102,0.278486,0.0,0.0
5100,1274.75,48.2649,47.7815,148.714,100.594,99.959,0.00277904,0.189206,20.763,99.2097,0.0565608,0.0,0.0
5160,1289.75,44.6676,43.4812,159.575,100.612,99.7832,0.00397465,0.137189,20.8319,98.9595,0.0739511,0.0,0.0
5220,1304.75,41.5871,41.1548,155.067,100.545,99.4098,0.00627947,0.127237,20.8611,98.7292,0.101499,0.0,0.0
5280,1319.75,39.4313,38.0578,158.263,100.579,99.6541,0.00713561,0.114541,20.8679,98.469,0.0825206,0.0,0.0
5340,1334.75,36.0126,34.5766,154.342,100.648,99.7416,0.00791577,0.106563,20.882,98.2688,0.0808487,0.0,0.0
5400,1349.75,34.5773,34.1894,157.102,100.679,99.5166,0.00890388,0.101659,20.8911,97.9385,0.103765,0.0,0.0
5460,1364.75,33.4753,32.852,152.95,100.674,99.6622,0.00845299,0.0984659,20.8976,97.8184,0.0902352,0.0,0.0
5520,1379.75,32.9239,32.4329,156.664,100.562,99.7397,0.00822544,0.0965877,20.8997,97.6883,0.0734102,0.0,0.0
5580,1394.75,31.9388,31.8333,153.929,100.36,99.6981,0.00817482,0.0964177,20.8998,97.4981,0.0591198,0.0,0.0
5640,1409.75,31.8956,31.8489,159.288,100.038,99.3838,0.00732839,0.0989306,20.8961,97.308,0.0586637,0.0,0.0
5700,1424.75,30.7415,31.3223,155.583,99.6024,98.7003,0.00741979,0.0952669,20.9011,97.0577,0.0812963,0.0,0.0
5760,1439.75,30.6513,30.529,153.51,99.1737,98.4408,0.00679109,0.0951822,20.9026,96.9677,0.0662784,0.0,0.0
5762,1440.25,30.6918,30.9272,155.87,99.1709,97.78,0.00679883,0.0950576,20.9028,96.9677,0.126203,0.0,0.0

File: Pressure_Treated_Deck_Cone_HF25Scan_230612_R3.csv
Names,Time,Stack TC,Smoke TC,Exh Press,Smoke Comp,Smoke Meas,CO Meter,CO2 Meter,O2 Meter,Sample Mass,Ext Coeff,Start Test,Flame Verif
Chan Gain,,500,500,1,1,1,1,1,1,1,1,1.0,1.0
Offset,,0,0,0.13972,0,0,0,0,0,0,0,0.0,0.0
Gain,,1,1,25.011,13.3261,15.6582,1,1,1,1.0009,1.01862,1.0,1.0
Units,sec,C,C,Pa,%,%,%,%,%,g,/m,,
Baseline,,27.8788,29.2306,158.925,99.7097,99.8091,0.000537837,0.0448762,20.9696,-443.973,-0.00887732,,
61,15,24.8092,26.3959,159.311,99.3173,99.6137,0.000391793,0.0531724,20.9557,198.7,-0.0266245,0.0,0.0
122,30.25,25.4548,26.8661,162.2,99.7313,99.8932,0.000193914,0.0466623,20.9644,198.459,-0.0144959,0.0,0.0
183,45.5,25.3387,26.8959,158.556,100.351,100.415,0.000435778,0.0471308,20.9654,198.139,-0.00565675,0.0,0.0
244,60.75,25.8332,27.194,157.379,100.79,101.128,0.000449859,0.0461808,20.9664,197.939,-0.0298878,0.0,0.0
305,76,25.6324,27.5489,159.171,100.704,100.57,0.000467423,0.0465106,20.9666,197.659,0.0119166,0.0,0.0
366,91.25,26.1054,27.2018,162.244,100.07,100.072,0.000938392,0.0467077,20.9678,197.509,-0.000167765,0.0,0.0
427,106.5,26.3076,27.592,161.429,100.322,99.7346,0.000802113,0.0472535,20.9669,197.178,0.0524553,0.0,0.0
488,121.75,25.7601,27.6872,160.033,99.6426,98.4186,0.00090528,0.0480594,20.9686,197.008,0.110445,0.0,0.0
549,137,26.0808,27.5249,161.635,100.279,98.6651,0.00108851,0.0488249,20.9633,196.648,0.145015,0.0,0.0
610,152.25,26.6817,27.3968,154.674,99.9972,98.2609,0.00097662,0.0494057,20.9661,196.347,0.156517,0.0,0.0
671,167.5,26.0723,27.8532,160.834,99.1526,96.8096,0.00143081,0.0504142,20.9641,196.017,0.213671,0.0,0.0
732,182.75,29.0302,35.9578,139.812,99.5499,99.6949,0.00185161,0.0823906,20.9592,194.956,-0.013005,0.0,0.0
793,198,36.3617,46.7293,140.35,100.582,100.725,0.00250734,0.340171,20.6599,193.135,-0.0127026,0.0,0.0
854,213.25,40.4665,49.7309,151.513,100.868,100.167,0.00284815,0.362402,20.591,191.423,0.0623085,0.0,0.0
915,228.5,41.8726,49.7263,148.876,100.738,99.8512,0.00326358,0.327739,20.6292,189.842,0.0790287,0.0,0.0
976,243.75,42.4774,50.1423,148.525,100.501,99.3011,0.0028799,0.299901,20.6682,188.37,0.107292,0.0,0.0
1037,259,43.0797,48.904,146.642,100.258,100.198,0.00238737,0.27966,20.6962,187.019,0.00537853,0.0,0.0
1098,274.25,42.7901,48.3258,147.072,100.015,99.0436,0.00288995,0.271246,20.7046,185.608,0.0872221,0.0,0.0
1159,289.5,43.0915,48.2735,148.916,100.181,99.778,0.00263941,0.256771,20.7192,184.407,0.0359822,0.0,0.0
1220,304.75,42.7998,47.9725,146.713,100.219,100.205,0.00255452,0.255497,20.7236,183.025,0.00126,0.0,0.0
1281,320,43.1229,48.6285,150.34,100.038,100.383,0.00204636,0.260406,20.7168,181.794,-0.0307637,0.0,0.0
1342,335.25,43.4031,47.5556,153.734,100.177,100.179,0.00219154,0.249325,20.7266,180.483,-0.000174689,0.0,0.0
1403,350.5,42.8222,46.895,151.443,100.465,101.07,0.00246068,0.23489,20.7447,179.252,-0.0536239,0.0,0.0
1464,365.75,42.3119,45.8905,153.741,100.744,101.064,0.00262086,0.219024,20.7645,178.061,-0.0283816,0.0,0.0
1525,381,41.6912,45.4089,147.992,100.892,101.207,0.00211596,0.209564,20.7782,176.82,-0.0278847,0.0,0.0
1586,396.25,41.496,44.1453,154.616,100.821,101.722,0.0026504,0.199256,20.7899,175.529,-0.0795104,0.0,0.0
1647,411.5,41.4708,44.9866,149.131,100.442,100.739,0.00252671,0.198934,20.7933,174.518,-0.0263254,0.0,0.0
1708,426.75,40.7956,44.4535,151.983,99.7386,100.225,0.00258295,0.197568,20.7943,173.417,-0.0434545,0.0,0.0
1769,442,41.1435,45.0031,150.828,99.1855,99.5391,0.00274003,0.197981,20.7923,172.196,-0.0317984,0.0,0.0
1830,457.25,39.0441,43.8085,150.982,99.2961,99.6203,0.00246226,0.196657,20.7951,171.175,-0.0291275,0.0,0.0
1891,472.5,40.1796,43.6143,148.089,99.9196,100.621,0.00242427,0.195451,20.7973,169.994,-0.0625025,0.0,0.0
1952,487.75,40.2152,43.314,152.046,100.375,100.793,0.00269652,0.194318,20.7947,168.943,-0.0370908,0.0,0.0
2013,503,40.3788,43.8142,154.094,100.027,100.653,0.0028838,0.19392,20.7973,167.832,-0.0558284,0.0,0.0
2074,518.25,39.7758,43.3503,147.29,99.7305,99.8354,0.00248788,0.191786,20.7984,166.701,-0.00939543,0.0,0.0
2135,533.5,39.7722,43.3304,149.716,100.393,100.64,0.00271703,0.190915,20.8011,165.72,-0.0219331,0.0,0.0
2196,548.75,40.0142,42.9488,155.042,100.038,100.313,0.00251325,0.190717,20.8041,164.709,-0.0244785,0.0,0.0
2257,564,39.7002,43.384,145.556,100.472,101.061,0.00257083,0.18922,20.8069,163.548,-0.0522068,0.0,0.0
2318,579.25,40.1354,43.3375,155.51,100.645,100.602,0.00228587,0.190322,20.8042,162.677,0.00387529,0.0,0.0
2379,594.5,39.6334,42.2886,153.322,100.719,101.205,0.00303395,0.191813,20.803,161.526,-0.043036,0.0,0.0
2440,609.75,39.7263,42.9402,148.503,100.582,101.267,0.00265949,0.191531,20.8026,160.465,-0.0605645,0.0,0.0
2501,625,39.7555,42.9409,149.202,100.399,101.17,0.00255674,0.190592,20.7983,159.504,-0.0683106,0.0,0.0
2562,640.25,40.1365,43.1956,157.999,100.151,100.271,0.00254819,0.192024,20.8006,158.303,-0.0107124,0.0,0.0
2623,655.5,39.3355,42.4745,151.295,99.9651,100.325,0.0027173,0.190665,20.8044,157.462,-0.0321261,0.0,0.0
2684,670.75,39.6529,42.7971,152.779,100.212,100.469,0.00228207,0.190079,20.8037,156.351,-0.0228098,0.0,0.0
2745,686,39.3007,42.3187,158.392,100.322,100.603,0.0024759,0.189025,20.8025,155.4,-0.0250377,0.0,0.0
2806,701.25,39.3592,41.794,151.65,99.8435,100.524,0.0024622,0.189153,20.8057,154.38,-0.0607307,0.0,0.0
2867,716.5,39.124,42.0421,150.817,99.8248,99.9749,0.00293037,0.192322,20.8024,153.369,-0.0134253,0.0,0.0
2928,731.75,38.9605,42.3232,147.106,100.285,101.783,0.00259222,0.191613,20.8002,152.438,-0.132475,0.0,0.0
2989,747,39.0768,42.523,149.005,100.197,100.512,0.00275316,0.192518,20.8012,151.437,-0.0280124,0.0,0.0
3050,762.25,39.1331,42.6055,155.134,99.5572,99.8674,0.00292234,0.195744,20.7993,150.416,-0.0277955,0.0,0.0
3111,777.5,39.6296,42.8036,150.216,99.1001,99.4474,0.00244983,0.197153,20.7988,149.365,-0.0312554,0.0,0.0
3172,792.75,40.1461,43.44,148.51,99.447,99.9768,0.00257573,0.200565,20.7911,148.344,-0.0474773,0.0,0.0
3233,808,40.1868,43.3957,152.833,100.113,100.26,0.00237173,0.204446,20.7873,147.253,-0.0131506,0.0,0.0
3294,823.25,40.4793,43.6495,148.248,100.497,100.77,0.00193744,0.212084,20.7811,146.312,-0.0242339,0.0,0.0
3355,838.5,40.8014,44.265,151.084,100.597,100.977,0.00202627,0.22058,20.7698,145.121,-0.033719,0.0,0.0
3416,853.75,41.3234,45.5996,152.475,100.593,100.826,0.0022326,0.232209,20.7608,144.1,-0.0206726,0.0,0.0
3477,869,42.1131,46.5203,150.075,100.432,100.812,0.00213118,0.240016,20.7494,142.919,-0.0337906,0.0,0.0
3538,884.25,42.8888,46.9103,153.803,100.217,100.345,0.00171632,0.250486,20.7375,141.688,-0.0113619,0.0,0.0
3599,899.5,43.3586,47.5437,151.076,99.9362,100.26,0.00188488,0.261348,20.7254,140.477,-0.0288747,0.0,0.0
3660,914.75,44.3391,49.8452,144.469,99.7825,99.8058,0.00223265,0.27916,20.7077,139.136,-0.00208051,0.0,0.0
3721,930,45.6093,51.1486,146.415,99.6951,99.422,0.00206016,0.292596,20.6905,137.735,0.0245046,0.0,0.0
3782,945.25,46.6544,53.0383,144.875,99.4543,99.2973,0.00209937,0.303322,20.6775,136.223,0.0141172,0.0,0.0
3843,960.5,47.5017,53.8778,143.633,99.1758,98.172,0.00203479,0.318706,20.6571,134.732,0.0908953,0.0,0.0
3904,975.75,49.0879,55.2967,143.322,99.1656,98.4668,0.0023182,0.331868,20.6409,133.05,0.0631842,0.0,0.0
3965,991,50.4968,56.674,141.606,99.58,98.408,0.00268214,0.349224,20.6184,131.439,0.105781,0.0,0.0
4026,1006.25,51.5131,58.3681,141.399,100.131,97.7797,0.00303046,0.363472,20.6007,129.547,0.212293,0.0,0.0
4087,1021.5,52.7895,59.6182,142.126,100.365,97.3654,0.00287043,0.376457,20.586,127.836,0.271111,0.0,0.0
4148,1036.75,53.9497,61.5454,138.889,100.107,97.2187,0.00352478,0.392863,20.5661,125.924,0.261563,0.0,0.0
4209,1052,54.5105,62.5456,140.777,99.641,96.7623,0.003441,0.403835,20.5553,124.092,0.261945,0.0,0.0
4270,1067.25,55.9687,63.1116,143.662,100.297,96.5191,0.00427954,0.406083,20.5424,122.15,0.343101,0.0,0.0
4331,1082.5,56.6872,63.5509,140.481,100.093,96.7026,0.00392831,0.412958,20.5368,120.209,0.307924,0.0,0.0
4392,1097.75,56.965,64.7136,141.609,100.451,96.7762,0.00378931,0.412686,20.5373,118.217,0.333017,0.0,0.0
4453,1113,58.3666,65.8024,142.025,100.887,96.878,0.00394565,0.422213,20.5264,116.235,0.362356,0.0,0.0
4514,1128.25,59.15,65.88,142.061,100.484,96.5048,0.00469783,0.426475,20.5169,114.343,0.361007,0.0,0.0
4575,1143.5,59.4168,66.2562,138.114,99.569,94.4089,0.00461001,0.427245,20.5091,112.231,0.475493,0.0,0.0
4636,1158.75,59.6429,66.6548,141.991,99.1688,92.713,0.0047545,0.427006,20.5074,110.51,0.601476,0.0,0.0
4697,1174,58.8904,64.4382,144.337,99.5206,94.1714,0.00443805,0.396304,20.5298,108.828,0.493655,0.0,0.0
4758,1189.25,56.6963,60.8423,143.914,99.9053,94.1036,0.00388527,0.342152,20.5924,107.557,0.53457,0.0,0.0
4819,1204.5,53.7766,57.072,144.282,100.043,94.8452,0.00323432,0.280033,20.6573,106.546,0.476713,0.0,0.0
4880,1219.75,51.2117,52.5314,148.61,100.027,98.9375,0.00266305,0.223136,20.7197,105.886,0.0978146,0.0,0.0
4941,1235,47.9199,46.963,152.65,99.9114,99.8698,0.00380254,0.166061,20.7938,105.435,0.00372517,0.0,0.0
5002,1250.25,44.2017,43.4823,153.934,99.6377,99.7742,0.00506551,0.133669,20.843,105.055,-0.0122301,0.0,0.0
5063,1265.5,41.3161,40.7145,152.772,99.2075,99.9534,0.00726981,0.118866,20.8678,104.835,-0.066932,0.0,0.0
5124,1280.75,39.3661,38.7994,151.632,99.1615,99.6806,0.00806481,0.112093,20.8772,104.524,-0.0466479,0.0,0.0
5185,1296,37.7934,37.5997,154.44,99.9871,100.245,0.00763058,0.10724,20.8821,104.384,-0.02301,0.0,0.0
5246,1311.25,36.4648,35.9356,154.466,100.742,100.938,0.00766636,0.105928,20.8881,103.994,-0.0174015,0.0,0.0
5307,1326.5,33.6671,33.6927,157.102,100.526,100.972,0.00739566,0.104733,20.891,103.974,-0.0395411,0.0,0.0
5368,1341.75,32.979,33.1883,156.287,100.107,100.41,0.0078046,0.101705,20.8942,103.624,-0.0270204,0.0,0.0
5429,1357,32.0784,31.994,157.997,99.9265,100.171,0.00726453,0.100778,20.8949,103.474,-0.0218653,0.0,0.0
5490,1372.25,31.0476,31.7067,156.133,99.9436,100.339,0.00766821,0.0982467,20.8987,103.383,-0.0352866,0.0,0.0
5551,1387.5,30.6006,31.3745,154.604,100.273,100.542,0.00763222,0.0975599,20.9012,103.223,-0.023945,0.0,0.0
5612,1402.75,30.5439,30.7355,164.54,99.5104,99.7623,0.00693736,0.0966456,20.9027,103.063,-0.0225834,0.0,0.0
5673,1418,30.0342,30.4614,156.209,99.1363,99.4999,0.00691268,0.0961532,20.9036,102.873,-0.0327146,0.0,0.0
5734,1433.25,29.9185,29.9819,156.145,100.015,100.011,0.00668153,0.0962286,20.9023,102.663,0.000391972,0.0,0.0