Folder: fsri_materials_database/01_Data/Pressure_Treated_Deck/Cone (part 7)

File: Pressure_Treated_Deck_HRRPUA_50.csv
Time after Ignition,Pressure_Treated_Deck_R1,Pressure_Treated_Deck_R2,Pressure_Treated_Deck_R3,Mean,Std. Dev.
0.0,4.2,9.1,0.0,4.4,4.5
3.5,2.1,9.3,-0.3,3.7,5.0
7.0,1.3,8.5,-0.4,3.1,4.7
10.5,2.7,8.3,1.1,4.1,3.8
14.0,28.8,50.4,27.9,35.7,12.8
17.5,117.9,131.8,96.6,115.4,17.8
21.0,171.8,185.6,142.0,166.5,22.3
24.5,212.2,227.6,183.4,207.7,22.4
28.0,225.6,246.2,204.6,225.5,20.8
31.5,236.0,254.2,214.8,235.0,19.8
35.0,247.5,253.2,218.6,239.8,18.5
38.5,246.7,260.6,221.3,242.9,19.9
42.0,237.1,260.5,221.5,239.7,19.6
45.5,239.4,253.0,229.3,240.5,11.9
49.0,236.0,250.6,223.0,236.5,13.8
52.5,239.3,233.9,219.1,230.8,10.5
56.0,231.8,230.6,221.0,227.8,5.9
59.5,220.2,223.0,215.3,219.5,3.9
63.0,220.1,214.7,215.8,216.9,2.9
66.5,219.7,203.8,213.7,212.4,8.0
70.0,215.8,197.4,210.2,207.8,9.4
73.5,211.1,196.6,213.2,207.0,9.0
77.0,205.9,191.9,207.4,201.7,8.5
80.5,205.6,188.2,203.1,199.0,9.4
84.0,201.6,181.6,202.2,195.1,11.7
87.5,197.9,183.8,201.1,194.3,9.2
91.0,189.6,177.8,195.4,187.6,9.0
94.5,190.9,174.9,188.9,184.9,8.7
98.0,188.6,172.3,187.4,182.8,9.1
101.5,188.7,169.9,184.7,181.1,9.9
105.0,181.1,170.0,177.5,176.2,5.7
108.5,182.5,168.4,178.1,176.3,7.2
112.0,178.0,166.8,174.0,172.9,5.7
115.5,174.4,167.2,170.6,170.7,3.6
119.0,173.6,166.0,168.4,169.3,3.9
122.5,174.2,170.4,166.8,170.5,3.7
126.0,172.1,166.7,164.6,167.8,3.9
129.5,169.1,168.8,162.2,166.7,3.9
133.0,166.5,166.3,163.1,165.3,1.9
136.5,166.1,164.8,157.9,162.9,4.4
140.0,163.5,164.1,154.3,160.6,5.5
143.5,162.1,160.7,154.5,159.1,4.0
147.0,158.4,159.9,150.8,156.4,4.9
150.5,158.9,160.2,147.7,155.6,6.9
154.0,157.0,157.9,147.7,154.2,5.7
157.5,155.8,156.1,148.7,153.5,4.2
161.0,154.0,157.8,146.0,152.6,6.0
164.5,155.1,154.7,146.6,152.2,4.8
168.0,153.4,155.1,145.1,151.2,5.4
171.5,149.2,153.0,145.0,149.1,4.0
175.0,147.6,147.5,142.6,145.9,2.8
178.5,145.5,147.5,142.8,145.3,2.4
182.0,145.2,148.0,140.5,144.6,3.8
185.5,148.2,148.1,139.3,145.2,5.1
189.0,144.3,144.4,137.2,142.0,4.1
192.5,145.2,143.2,131.5,140.0,7.4
196.0,144.0,143.2,133.1,140.1,6.1
199.5,143.4,142.9,133.8,140.0,5.4
203.0,144.8,141.2,130.3,138.8,7.6
206.5,141.5,138.3,129.9,136.6,6.0
210.0,139.7,137.8,132.7,136.7,3.6
213.5,140.5,136.1,130.1,135.6,5.2
217.0,137.3,140.2,126.4,134.6,7.3
220.5,139.2,132.2,127.5,133.0,5.9
224.0,138.1,134.2,125.0,132.4,6.7
227.5,134.9,134.4,126.4,131.9,4.8
231.0,138.5,133.0,125.8,132.4,6.4
234.5,138.5,132.9,123.4,131.6,7.6
238.0,137.2,132.9,123.3,131.2,7.1
241.5,133.8,132.9,124.3,130.3,5.2
245.0,136.4,130.5,128.7,131.9,4.0
248.5,137.0,131.6,125.1,131.2,5.9
252.0,134.1,131.0,124.8,130.0,4.7
255.5,134.9,129.2,123.4,129.1,5.8
259.0,137.8,128.6,121.0,129.1,8.4
262.5,136.4,131.0,120.6,129.4,8.0
266.0,136.0,130.6,121.9,129.5,7.1
269.5,133.5,129.6,122.1,128.4,5.8
273.0,132.1,128.4,117.9,126.1,7.4
276.5,134.5,128.5,116.5,126.5,9.2
280.0,132.8,130.2,118.0,127.0,7.9
283.5,129.9,129.3,116.5,125.2,7.6
287.0,131.8,126.8,115.8,124.8,8.2
290.5,132.6,127.2,116.7,125.5,8.1
294.0,128.7,127.5,115.0,123.7,7.5
297.5,130.5,128.6,117.2,125.4,7.2
301.0,126.6,127.6,116.4,123.6,6.2
304.5,129.3,125.2,117.8,124.1,5.8
308.0,127.7,126.0,120.5,124.7,3.8
311.5,129.5,129.5,118.8,126.0,6.2
315.0,127.8,126.1,117.0,123.7,5.8
318.5,126.5,124.8,117.8,123.0,4.7
322.0,130.9,125.5,120.0,125.5,5.5
325.5,127.4,123.2,119.7,123.4,3.8
329.0,125.0,122.5,120.0,122.5,2.5
332.5,126.4,125.8,121.2,124.5,2.8
336.0,129.1,126.4,121.3,125.6,3.9
339.5,128.5,125.8,123.6,125.9,2.4
343.0,131.3,124.5,122.3,126.0,4.7
346.5,131.2,126.3,121.4,126.3,4.9
350.0,131.1,127.5,124.0,127.5,3.5
353.5,130.8,127.3,119.9,126.0,5.6
357.0,128.6,126.5,120.7,125.2,4.1
360.5,128.1,126.2,122.8,125.7,2.7
364.0,129.1,129.0,120.5,126.2,5.0
367.5,129.7,127.0,123.7,126.8,3.0
371.0,131.5,125.4,122.2,126.3,4.7
374.5,130.9,124.2,119.9,125.0,5.5
378.0,128.3,124.4,118.4,123.7,5.0
381.5,130.9,126.3,120.8,126.0,5.1
385.0,131.3,124.4,119.1,125.0,6.1
388.5,129.6,127.1,118.7,125.1,5.7
392.0,128.9,125.2,119.3,124.5,4.9
395.5,129.6,127.2,121.4,126.1,4.2
399.0,129.4,125.9,121.9,125.7,3.8
402.5,133.7,127.1,122.1,127.6,5.8
406.0,132.1,127.0,123.8,127.6,4.2
409.5,131.2,125.5,123.5,126.7,4.0
413.0,130.7,127.8,122.5,127.0,4.2
416.5,130.0,125.2,122.3,125.8,3.9
420.0,130.2,125.9,121.8,126.0,4.2
423.5,132.0,128.2,121.9,127.4,5.1
427.0,132.9,127.7,120.3,127.0,6.3
430.5,133.3,128.9,124.2,128.8,4.5
434.0,133.0,129.3,122.5,128.3,5.3
437.5,133.4,129.9,124.8,129.4,4.4
441.0,136.4,129.8,123.8,130.0,6.3
444.5,135.4,129.3,124.4,129.7,5.5
448.0,136.5,129.1,126.3,130.6,5.3
451.5,137.3,130.6,125.3,131.0,6.0
455.0,136.2,131.2,125.8,131.1,5.2
458.5,135.8,132.0,125.7,131.1,5.1
462.0,136.9,130.3,124.7,130.6,6.1
465.5,139.9,131.5,125.6,132.3,7.2
469.0,137.8,134.9,125.1,132.6,6.6
472.5,141.0,131.7,127.0,133.2,7.1
476.0,137.2,133.8,128.4,133.1,4.4
479.5,139.0,134.8,128.6,134.2,5.2
483.0,141.2,134.0,130.9,135.4,5.2
486.5,143.0,133.2,129.5,135.2,7.0
490.0,143.7,133.7,132.3,136.6,6.2
493.5,141.0,135.7,133.6,136.8,3.8
497.0,141.4,133.2,134.5,136.3,4.4
500.5,145.8,135.0,134.4,138.4,6.4
504.0,145.7,138.9,135.2,139.9,5.3
507.5,145.6,136.2,136.5,139.4,5.3
511.0,147.4,138.2,138.3,141.3,5.3
514.5,145.2,137.3,140.2,140.9,4.0
518.0,145.4,140.0,138.8,141.4,3.5
521.5,147.1,140.6,142.8,143.5,3.3
525.0,147.1,139.9,142.3,143.1,3.6
528.5,149.2,142.3,142.3,144.6,4.0
532.0,151.3,145.7,141.2,146.1,5.1
535.5,152.6,146.2,143.2,147.3,4.8
539.0,148.7,146.7,144.8,146.8,2.0
542.5,151.1,145.1,146.3,147.5,3.1
546.0,152.1,148.7,144.7,148.5,3.7
549.5,150.1,146.4,147.0,147.9,2.0
553.0,150.3,146.1,147.6,148.0,2.1
556.5,153.6,149.5,146.3,149.8,3.7
560.0,152.9,153.2,149.8,152.0,1.9
563.5,154.6,156.1,153.3,154.7,1.4
567.0,156.6,155.5,150.6,154.2,3.2
570.5,156.5,153.5,153.4,154.4,1.8
574.0,157.1,155.6,154.5,155.7,1.3
577.5,157.1,158.5,155.1,156.9,1.7
581.0,158.4,159.5,157.1,158.3,1.2
584.5,160.4,161.6,155.9,159.3,3.0
588.0,165.4,161.8,160.2,162.5,2.6
591.5,164.3,168.8,160.2,164.4,4.3
595.0,160.9,166.9,160.7,162.8,3.5
598.5,163.8,167.6,163.7,165.0,2.3
602.0,172.0,170.0,165.6,169.2,3.3
605.5,171.3,169.7,166.4,169.1,2.5
609.0,169.0,169.1,172.0,170.0,1.7
612.5,171.8,173.6,170.7,172.0,1.4
616.0,173.6,176.2,172.5,174.1,1.9
619.5,176.8,176.4,172.8,175.4,2.2
623.0,177.4,177.3,176.0,176.9,0.8
626.5,180.7,177.9,179.5,179.4,1.4
630.0,179.7,180.4,179.5,179.9,0.5
633.5,179.1,178.5,178.5,178.7,0.4
637.0,181.0,181.4,182.7,181.7,0.9
640.5,181.5,181.3,183.4,182.1,1.1
644.0,186.6,182.5,183.5,184.2,2.1
647.5,189.2,183.5,187.4,186.7,2.9
651.0,187.4,189.0,189.2,188.5,1.0
654.5,185.6,186.0,190.2,187.2,2.6
658.0,186.7,185.4,190.9,187.7,2.9
661.5,188.2,186.9,191.7,188.9,2.5
665.0,187.9,188.8,186.6,187.8,1.1
668.5,189.1,186.1,187.6,187.6,1.5
672.0,187.2,189.5,193.5,190.1,3.2
675.5,190.6,187.5,189.6,189.2,1.6
679.0,192.0,192.8,191.3,192.0,0.8
682.5,194.5,190.0,195.5,193.3,2.9
686.0,193.8,191.5,198.2,194.5,3.4
689.5,196.6,191.2,193.4,193.7,2.7
693.0,194.1,193.7,195.0,194.3,0.7
696.5,196.1,192.0,196.3,194.8,2.4
700.0,200.7,192.7,194.1,195.9,4.3
703.5,201.1,193.4,197.4,197.3,3.9
707.0,199.5,192.2,197.8,196.5,3.8
710.5,199.0,194.7,201.4,198.4,3.4
714.0,199.4,196.2,198.9,198.1,1.7
717.5,203.0,196.9,199.8,199.9,3.1
721.0,204.8,196.2,199.1,200.0,4.4
724.5,206.4,198.3,202.7,202.5,4.0
728.0,205.8,198.9,204.7,203.1,3.7
731.5,209.0,201.5,204.6,205.0,3.8
735.0,205.1,204.5,208.1,205.9,2.0
738.5,212.4,205.6,205.3,207.8,4.0
742.0,206.2,203.9,201.1,203.8,2.5
745.5,209.1,203.4,202.4,205.0,3.6
749.0,209.3,206.6,204.2,206.7,2.5
752.5,211.3,204.2,206.0,207.2,3.7
756.0,210.6,207.0,202.5,206.7,4.1
759.5,212.7,204.9,205.0,207.5,4.5
763.0,206.8,203.7,204.9,205.2,1.6
766.5,213.1,203.4,203.3,206.6,5.7
770.0,210.0,203.0,204.4,205.8,3.7
773.5,216.2,205.3,203.6,208.4,6.8
777.0,210.3,208.9,204.0,207.7,3.3
780.5,207.5,206.7,203.9,206.0,1.9
784.0,209.4,206.3,199.8,205.2,4.9
787.5,212.5,204.9,199.3,205.6,6.6
791.0,208.0,205.0,202.6,205.2,2.7
794.5,210.3,207.7,195.9,204.7,7.7
798.0,204.7,197.9,194.4,199.0,5.2
801.5,206.1,204.0,196.7,202.2,4.9
805.0,206.8,199.2,194.6,200.2,6.1
808.5,198.3,203.4,191.4,197.7,6.0
812.0,194.8,194.7,188.0,192.5,3.9
815.5,197.7,194.0,187.3,193.0,5.3
819.0,192.4,192.0,179.5,188.0,7.3
822.5,186.7,190.5,178.1,185.1,6.3
826.0,187.2,191.3,179.2,185.9,6.2
829.5,185.2,189.5,175.7,183.5,7.1
833.0,182.1,185.9,168.5,178.8,9.1
836.5,178.1,179.7,168.5,175.4,6.0
840.0,177.8,177.3,166.5,173.9,6.4
843.5,172.1,171.2,159.7,167.7,6.9
847.0,167.9,168.5,153.4,163.2,8.5
850.5,166.2,163.0,148.7,159.3,9.3
854.0,159.6,158.1,145.6,154.4,7.7
857.5,154.5,147.7,140.4,147.5,7.1
861.0,149.2,143.6,135.9,142.9,6.7
864.5,142.3,136.4,130.8,136.5,5.7
868.0,137.1,128.4,127.4,130.9,5.3
871.5,130.7,119.5,121.1,123.8,6.1
875.0,123.8,113.8,115.6,117.7,5.4
878.5,116.5,106.7,107.4,110.2,5.5
882.0,112.2,100.0,103.4,105.2,6.3
885.5,104.6,91.5,101.2,99.1,6.8
889.0,98.6,85.7,95.5,93.3,6.7
892.5,92.1,78.5,91.9,87.5,7.8
896.0,87.5,72.8,87.2,82.5,8.4
899.5,80.0,68.2,83.6,77.3,8.0
903.0,75.4,62.1,81.5,73.0,9.9
906.5,70.3,55.8,76.9,67.7,10.8
910.0,66.0,55.0,72.1,64.4,8.7
913.5,62.6,53.4,68.6,61.5,7.7
917.0,60.5,52.2,62.7,58.4,5.6
920.5,56.7,51.2,57.7,55.2,3.5
924.0,53.9,51.2,53.4,52.9,1.4
927.5,50.0,49.7,51.1,50.3,0.7
931.0,49.5,48.4,48.1,48.7,0.8
934.5,48.3,47.8,46.3,47.5,1.1
938.0,47.6,,44.6,46.1,2.1
941.5,47.1,,44.0,45.5,2.2
945.0,47.2,,43.9,45.6,2.4
948.5,46.4,,45.5,45.9,0.6
952.0,45.9,,45.9,45.9,0.0
955.5,45.7,,45.4,45.5,0.2
959.0,46.1,,44.5,45.3,1.2
962.5,44.6,,44.0,44.3,0.4
966.0,45.7,,44.1,44.9,1.1
969.5,46.1,,45.5,45.8,0.4
973.0,45.9,,45.6,45.7,0.2
976.5,44.5,,,44.5,
980.0,43.9,,,43.9,
983.5,42.8,,,42.8,
986.75,43.4,,,43.4,

File: Pressure_Treated_Deck_HRRPUA_75.csv
Time after Ignition,Pressure_Treated_Deck_R1,Pressure_Treated_Deck_R2,Pressure_Treated_Deck_R3,Mean,Std. Dev.
0.0,27.1,6.8,8.7,14.2,11.2
3.25,17.0,6.4,7.1,10.2,5.9
6.5,10.3,5.8,5.7,7.3,2.6
9.75,10.2,6.3,6.1,7.5,2.3
13.0,71.1,26.3,56.8,51.4,22.9
16.25,162.7,114.0,122.5,133.1,26.0
19.5,224.7,207.1,199.9,210.6,12.8
22.75,263.2,268.0,252.3,261.2,8.0
26.0,287.1,312.7,275.7,291.8,18.9
29.25,295.0,327.7,306.4,309.7,16.6
32.5,309.2,356.4,301.0,322.2,29.9
35.75,313.2,360.6,303.6,325.8,30.5
39.0,306.8,357.6,304.4,323.0,30.1
42.25,306.8,350.5,313.1,323.5,23.6
45.5,304.1,347.4,310.6,320.7,23.3
48.75,310.2,344.4,301.9,318.8,22.5
52.0,301.6,341.6,292.1,311.8,26.3
55.25,294.3,330.1,281.7,302.1,25.1
58.5,285.2,321.4,279.8,295.5,22.6
61.75,280.0,313.1,280.1,291.1,19.1
65.0,272.9,301.3,276.8,283.7,15.4
68.25,261.3,296.9,268.6,275.6,18.8
71.5,265.5,289.0,261.9,272.1,14.7
74.75,257.6,280.4,258.2,265.4,13.0
78.0,250.9,281.5,259.6,264.0,15.8
81.25,248.6,278.1,249.5,258.7,16.8
84.5,244.7,264.3,249.6,252.8,10.2
87.75,247.5,261.4,238.0,249.0,11.7
91.0,243.0,262.3,242.7,249.3,11.2
94.25,238.2,259.8,232.0,243.3,14.6
97.5,233.8,255.3,231.3,240.2,13.2
100.75,236.3,255.9,230.1,240.8,13.5
104.0,227.6,251.9,229.4,236.3,13.6
107.25,226.2,248.5,222.0,232.2,14.2
110.5,229.2,241.9,222.1,231.1,10.0
113.75,228.8,239.8,220.3,229.6,9.8
117.0,220.2,235.3,219.7,225.0,8.9
120.25,222.1,233.5,221.1,225.6,6.9
123.5,216.2,236.0,219.3,223.8,10.6
126.75,214.5,230.4,217.5,220.8,8.4
130.0,216.4,229.9,212.7,219.6,9.1
133.25,208.1,230.2,210.2,216.2,12.2
136.5,207.6,229.3,214.1,217.0,11.2
139.75,202.2,232.7,208.6,214.5,16.1
143.0,202.2,226.0,205.1,211.1,13.0
146.25,205.2,222.6,201.7,209.8,11.2
149.5,205.2,226.7,202.4,211.4,13.3
152.75,201.3,221.0,200.0,207.4,11.8
156.0,201.3,222.0,197.7,207.0,13.1
159.25,197.4,219.1,196.4,204.3,12.8
162.5,194.9,216.7,190.4,200.7,14.1
165.75,198.1,213.1,192.7,201.3,10.6
169.0,195.7,214.9,188.7,199.8,13.6
172.25,194.5,211.2,186.9,197.6,12.4
175.5,191.8,212.2,186.1,196.7,13.7
178.75,192.3,209.3,187.9,196.5,11.3
182.0,195.8,206.3,188.0,196.7,9.2
185.25,193.8,207.9,186.2,196.0,11.1
188.5,195.0,204.2,185.6,194.9,9.3
191.75,191.6,204.2,189.2,195.0,8.0
195.0,194.1,206.8,186.4,195.8,10.3
198.25,197.1,200.8,187.5,195.1,6.9
201.5,191.3,202.1,184.4,192.6,8.9
204.75,192.3,199.8,184.7,192.3,7.6
208.0,189.6,197.1,182.9,189.8,7.1
211.25,188.1,197.3,183.4,189.6,7.0
214.5,189.0,195.6,183.6,189.4,6.0
217.75,186.3,194.6,177.5,186.1,8.6
221.0,186.0,193.1,178.6,185.9,7.3
224.25,185.3,190.6,182.4,186.1,4.2
227.5,186.9,193.2,179.0,186.4,7.1
230.75,186.9,190.8,181.9,186.5,4.5
234.0,183.1,190.0,181.0,184.7,4.7
237.25,182.3,187.7,183.4,184.5,2.9
240.5,183.1,189.4,182.5,185.0,3.8
243.75,182.2,189.8,185.6,185.9,3.8
247.0,185.1,190.1,182.7,186.0,3.8
250.25,185.5,192.3,179.9,185.9,6.2
253.5,182.5,191.0,179.5,184.3,5.9
256.75,179.7,191.2,180.0,183.6,6.5
260.0,179.6,189.3,181.3,183.4,5.2
263.25,181.5,185.2,178.8,181.8,3.2
266.5,180.8,186.7,176.6,181.3,5.1
269.75,180.9,189.5,176.3,182.3,6.7
273.0,180.8,185.3,173.9,180.0,5.7
276.25,178.1,184.8,173.5,178.8,5.7
279.5,182.2,191.4,174.8,182.8,8.3
282.75,182.6,191.3,176.5,183.5,7.4
286.0,181.0,186.1,176.4,181.2,4.8
289.25,183.6,185.9,172.4,180.6,7.2
292.5,182.2,182.9,175.2,180.1,4.2
295.75,181.4,181.6,171.9,178.3,5.6
299.0,181.6,185.0,175.7,180.8,4.7
302.25,181.9,183.8,176.1,180.6,4.0
305.5,182.9,185.9,175.2,181.3,5.5
308.75,181.2,182.1,178.2,180.5,2.1
312.0,179.1,182.8,173.1,178.3,4.9
315.25,182.7,182.6,173.5,179.6,5.3
318.5,184.0,183.8,176.2,181.3,4.4
321.75,184.5,182.0,172.2,179.6,6.5
325.0,183.0,183.8,174.1,180.3,5.4
328.25,184.7,181.1,171.3,179.1,6.9
331.5,181.7,183.5,172.4,179.2,6.0
334.75,182.5,183.8,171.2,179.2,6.9
338.0,185.3,188.5,171.0,181.6,9.3
341.25,187.0,186.6,168.1,180.5,10.8
344.5,184.5,183.5,170.6,179.5,7.8
347.75,184.2,182.6,171.1,179.3,7.1
351.0,181.7,183.5,167.5,177.6,8.7
354.25,183.6,182.7,171.0,179.1,7.1
357.5,186.5,180.0,172.1,179.5,7.2
360.75,183.5,185.5,168.1,179.0,9.5
364.0,185.3,181.9,174.6,180.6,5.5
367.25,187.1,183.6,171.5,180.8,8.2
370.5,190.7,186.8,174.4,183.9,8.5
373.75,190.5,186.6,175.9,184.3,7.6
377.0,188.3,186.0,174.8,183.1,7.2
380.25,189.5,193.1,173.3,185.3,10.6
383.5,189.8,184.6,172.6,182.3,8.8
386.75,188.2,187.7,173.9,183.3,8.1
390.0,191.0,188.6,178.4,186.0,6.7
393.25,195.0,190.1,179.7,188.3,7.8
396.5,190.6,188.8,181.4,186.9,4.9
399.75,189.1,188.7,176.9,184.9,7.0
403.0,189.3,186.3,184.8,186.8,2.3
406.25,189.3,189.5,183.2,187.3,3.6
409.5,188.5,191.4,182.4,187.4,4.5
412.75,187.5,189.3,187.2,188.0,1.1
416.0,188.9,191.3,187.2,189.1,2.0
419.25,187.1,193.2,184.3,188.2,4.5
422.5,188.6,195.9,184.6,189.7,5.7
425.75,188.1,198.4,187.7,191.4,6.1
429.0,192.4,198.3,189.8,193.5,4.4
432.25,196.5,197.3,186.5,193.4,6.1
435.5,194.7,197.5,188.7,193.6,4.5
438.75,190.5,197.9,185.2,191.2,6.4
442.0,192.0,200.9,185.7,192.8,7.6
445.25,192.4,199.5,186.3,192.7,6.6
448.5,196.7,203.9,187.9,196.2,8.0
451.75,195.5,207.2,187.6,196.8,9.8
455.0,199.8,206.5,187.8,198.0,9.4
458.25,199.0,205.6,186.5,197.0,9.7
461.5,203.7,204.8,188.7,199.1,9.0
464.75,201.2,207.0,188.4,198.9,9.5
468.0,204.6,201.4,190.6,198.9,7.3
471.25,203.4,211.2,192.9,202.5,9.2
474.5,206.6,212.2,194.2,204.4,9.2
477.75,206.7,211.2,192.5,203.5,9.8
481.0,203.9,214.2,197.3,205.1,8.5
484.25,204.7,217.1,195.2,205.7,11.0
487.5,202.3,220.7,199.0,207.3,11.7
490.75,204.9,217.9,197.1,206.6,10.5
494.0,201.7,219.2,198.4,206.4,11.2
497.25,207.5,215.8,195.9,206.4,10.0
500.5,205.4,217.5,201.6,208.1,8.3
503.75,204.7,218.4,199.7,207.6,9.7
507.0,205.6,224.8,196.8,209.1,14.3
510.25,201.7,224.9,201.7,209.4,13.4
513.5,207.1,225.7,203.7,212.2,11.8
516.75,211.3,225.0,205.9,214.1,9.8
520.0,204.6,224.1,205.8,211.5,10.9
523.25,207.1,219.1,211.6,212.6,6.1
526.5,206.4,225.5,205.0,212.3,11.5
529.75,206.5,221.4,207.0,211.6,8.4
533.0,207.1,221.4,209.5,212.7,7.6
536.25,211.4,221.4,209.6,214.1,6.3
539.5,209.1,228.2,211.5,216.3,10.4
542.75,209.8,218.9,208.5,212.4,5.7
546.0,204.3,220.0,213.2,212.5,7.9
549.25,207.8,220.3,213.2,213.8,6.3
552.5,211.1,215.8,213.2,213.4,2.4
555.75,212.1,220.0,212.4,214.8,4.5
559.0,211.5,216.1,216.9,214.8,2.9
562.25,215.5,215.2,218.9,216.6,2.1
565.5,214.3,212.1,220.8,215.7,4.5
568.75,214.8,215.6,219.7,216.7,2.6
572.0,220.0,215.8,218.4,218.1,2.2
575.25,220.4,212.7,218.7,217.3,4.0
578.5,218.5,213.6,218.2,216.8,2.8
581.75,219.2,212.9,225.1,219.1,6.1
585.0,228.7,217.1,223.4,223.1,5.8
588.25,224.4,216.4,226.1,222.3,5.2
591.5,228.5,212.7,226.8,222.7,8.7
594.75,227.1,212.3,221.4,220.3,7.4
598.0,223.0,211.2,222.7,219.0,6.7
601.25,227.1,214.4,224.6,222.0,6.8
604.5,233.5,214.7,226.7,225.0,9.5
607.75,231.5,212.1,227.1,223.6,10.2
611.0,233.3,212.1,227.7,224.4,11.0
614.25,233.9,216.8,229.0,226.6,8.8
617.5,230.6,215.5,229.3,225.1,8.4
620.75,233.9,211.7,223.5,223.0,11.1
624.0,232.9,213.6,222.8,223.1,9.7
627.25,230.7,218.5,228.9,226.1,6.6
630.5,230.4,209.9,228.0,222.7,11.2
633.75,231.4,212.5,226.3,223.4,9.8
637.0,227.8,210.2,227.0,221.7,9.9
640.25,231.5,211.1,232.5,225.1,12.1
643.5,224.8,208.1,230.9,221.3,11.8
646.75,227.6,209.7,232.2,223.2,11.9
650.0,220.6,207.9,236.3,221.6,14.2
653.25,223.1,206.4,226.5,218.7,10.8
656.5,218.5,205.1,228.0,217.2,11.5
659.75,220.3,201.6,228.3,216.7,13.7
663.0,218.4,202.1,225.3,215.3,11.9
666.25,219.3,199.1,230.1,216.2,15.7
669.5,214.6,197.1,226.9,212.9,15.0
672.75,216.8,194.4,226.5,212.6,16.4
676.0,210.7,191.9,221.3,208.0,14.9
679.25,209.0,195.5,221.8,208.7,13.1
682.5,208.2,189.3,217.3,205.0,14.3
685.75,209.2,188.8,218.8,205.6,15.3
689.0,207.2,186.5,215.7,203.1,15.0
692.25,202.2,184.5,213.1,199.9,14.4
695.5,204.8,181.1,210.1,198.7,15.4
698.75,201.3,181.8,202.8,195.3,11.7
702.0,198.1,177.6,198.1,191.2,11.8
705.25,189.0,175.3,191.2,185.2,8.6
708.5,182.8,169.6,185.2,179.2,8.4
711.75,180.5,168.2,177.0,175.2,6.3
715.0,176.0,163.3,175.2,171.5,7.1
718.25,168.3,157.0,167.7,164.3,6.4
721.5,163.9,153.9,155.9,157.9,5.3
724.75,157.1,146.0,152.7,152.0,5.6
728.0,155.9,139.5,141.5,145.6,8.9
731.25,146.9,136.2,133.4,138.8,7.1
734.5,139.6,127.2,127.2,131.3,7.1
737.75,131.2,121.7,117.1,123.4,7.2
741.0,123.6,113.0,110.1,115.6,7.1
744.25,118.3,108.4,102.5,109.7,8.0
747.5,110.7,100.2,94.9,101.9,8.0
750.75,101.7,92.1,87.8,93.9,7.2
754.0,94.2,84.2,82.3,86.9,6.4
757.25,86.0,79.0,78.6,81.2,4.2
760.5,80.4,74.5,74.4,76.4,3.4
763.75,73.7,70.3,69.9,71.3,2.1
767.0,70.7,67.0,65.8,67.8,2.5
770.25,66.3,63.7,62.3,64.1,2.0
773.5,62.4,60.6,58.0,60.3,2.2
776.75,59.5,58.1,53.7,57.1,3.0
780.0,58.8,56.0,51.2,55.3,3.8
783.25,56.8,54.1,50.7,53.9,3.0
786.5,55.1,52.7,50.8,52.8,2.2
789.75,54.3,52.7,48.5,51.8,3.0
793.0,55.0,53.2,48.9,52.4,3.1
796.25,53.7,52.1,48.6,51.4,2.6
799.5,52.5,51.9,49.2,51.2,1.7
802.75,53.9,51.9,49.0,51.6,2.4
806.0,53.9,51.3,48.6,51.3,2.7
809.25,53.3,52.2,48.6,51.4,2.4
812.5,52.0,51.3,47.7,50.3,2.4
815.75,51.6,51.6,47.3,50.1,2.5
819.0,51.8,49.5,46.1,49.1,2.9
822.25,51.2,50.3,45.0,48.8,3.4
825.5,49.8,49.5,45.1,48.2,2.7
828.75,49.7,50.7,45.0,48.5,3.1
832.0,49.5,50.1,44.9,48.2,2.8
835.25,48.2,49.1,45.4,47.6,1.9
838.5,47.4,49.9,45.3,47.5,2.3
841.75,47.3,49.1,43.1,46.5,3.1
845.0,47.9,49.5,43.5,47.0,3.1
848.25,47.0,49.5,42.6,46.4,3.5
851.5,46.9,48.1,42.3,45.7,3.1
854.75,46.4,46.8,42.1,45.1,2.6
858.0,46.8,47.6,42.1,45.5,3.0
861.25,45.6,47.6,41.6,44.9,3.1
864.5,44.8,48.1,41.5,44.8,3.3
867.75,45.0,47.8,41.6,44.8,3.1
871.0,45.5,46.6,41.7,44.6,2.6
874.25,44.9,46.9,42.1,44.6,2.4
877.5,45.4,47.2,41.9,44.8,2.7
880.75,44.0,47.2,41.4,44.2,2.9
884.0,43.5,,41.2,42.4,1.6
887.25,43.3,,40.8,42.1,1.8
890.5,44.9,,41.3,43.1,2.5
893.75,44.6,,41.3,42.9,2.4
897.0,43.3,,41.4,42.4,1.4
900.25,44.0,,39.2,41.6,3.4
903.5,43.5,,39.6,41.6,2.7
906.75,43.9,,41.1,42.5,2.0
910.0,43.7,,41.7,42.7,1.4
913.25,44.0,,41.0,42.5,2.1
916.5,42.3,,40.9,41.6,1.0
919.75,43.0,,40.8,41.9,1.6
923.0,43.7,,40.9,42.3,2.0
926.25,43.9,,,43.9,
929.5,43.9,,,43.9,
932.75,43.2,,,43.2,
934.5,42.0,,,42.0,