Folder: fsri_materials_database/01_Data/Engineered_Flooring/Cone

Note: README.md
# Materials and Products Database
### Repository of materials and products properties and fire test data to improve fire modeling and fire investigation.

This project was supported in part by Award No. 2019-DU-BX-0018, awarded by the National Institute of Justice, Office of Justice Programs, U.S. Department of Justice. The opinions, findings, and conclusions or recommendations expressed in this publication / program / exhibition are those of the author(s) and do not necessarily reflect those of the Department of Justice.

***
***

__Cite this database:__ "McKinnon, M., Weinschenk, C., Dow, N., DiDomizio, M., and Madrzykowski, D. Materials and Products Database (Version 1.0.0), Fire Safety Research Institute, UL Research Institutes. Columbia, MD 21045, 2023."

__Cite the Technical Reference Guide:__ "McKinnon, M., Weinschenk, C., and Madrzykowski, D. Materials and Products Database - Technical Reference Guide, Fire Safety Research Institute, UL Research Institutes. Columbia, MD 21045, 2023."

__Cite the User Guide:__ "McKinnon, M., and Weinschenk, C. Materials and Products Database - User Guide, Fire Safety Research Institute, UL Research Institutes. Columbia, MD 21045, 2023."

***
***

## Database Structure

## 01_Data/
Raw data generated from each apparatus are included here in plain-text format. The data is organized first by material, next by the short name of test apparatus used, and where applicable additional filtering by test settings.

### Test Apparatus and Data File Structure
- __Cone Calorimeter__ (Cone)
    + Data file structure includes the material, the short name for the apparatus, heat flux setting and scan/scalar, date of test, and replicate number. Scan is for the raw output data and scalar is for the initial conditions and high-level test parameters. 
        * Example: __MDF_Cone_HF25scalar_210323_R1__ stands for the first replicate of scalar data generated from a medium density fiber board test in cone calorimeter exposed to 25 kW/m<sup>2</sup> on March 23, 2021.
    + A _Cone_Notes.csv_ is generated for each material from the __plot_Cone_data.py__ script. For materials whose experiments deviated from typical behavior relevant pictures are included in the respective material directory.
- __Fourier Transform Infrared Spectrometer__ (FTIR)
    + The FTIR directory contains subdirectories for the Attenuated Total Reflectance method (ATR) and the Integrating Sphere (IS)
    + Data file structure for the ATR experiment files includes the material, the abbreviated name for the apparatus, date of test, and replicate number. 
        * Example: __MDF_ATR_210323_R5__ stands for the fifth replicate of data collected with the ATR accessory conducted on June 8, 2021.
    + Data file structure for the IS experiment files includes the material, the abbreviated name for the apparatus, the measurand, whether the test is a sample measurement or standard reference, date of test, and replicate number.
        * Example: __OSB_IS_REFLECT_MEAS_2

File: Engineered_Flooring_HRRPUA_25.csv
Time after Ignition,Engineered_Flooring_R1,Engineered_Flooring_R2,Engineered_Flooring_R3,Mean,Std. Dev.
0.0,1.3,18.4,16.6,12.1,9.4
2.0,22.9,76.5,60.7,53.3,27.5
4.0,48.3,137.1,120.4,101.9,47.2
6.0,97.6,171.7,170.9,146.7,42.6
8.0,157.7,186.4,192.7,178.9,18.6
10.0,190.4,184.8,189.5,188.2,3.0
12.0,207.3,181.2,188.6,192.4,13.5
14.0,207.0,168.4,181.7,185.7,19.6
16.0,194.4,165.3,183.8,181.2,14.7
18.0,181.5,163.9,176.4,173.9,9.1
20.0,173.4,161.4,175.2,170.0,7.5
22.0,165.7,160.2,175.6,167.2,7.8
24.0,157.0,159.3,169.8,162.0,6.8
26.0,157.0,160.3,164.1,160.5,3.5
28.0,154.6,161.1,160.3,158.7,3.6
30.0,152.2,162.6,161.8,158.9,5.8
32.0,150.1,161.8,159.5,157.1,6.2
34.0,153.0,160.9,162.4,158.8,5.0
36.0,148.2,156.7,161.7,155.6,6.9
38.0,145.0,154.4,156.1,151.8,5.9
40.0,147.3,154.4,157.8,153.2,5.4
42.0,141.0,154.8,153.9,149.9,7.7
44.0,139.5,154.2,153.0,148.9,8.2
46.0,135.3,150.3,153.6,146.4,9.8
48.0,134.2,150.3,153.1,145.8,10.2
50.0,133.1,151.2,152.3,145.6,10.8
52.0,129.8,157.3,145.4,144.2,13.8
54.0,134.3,150.3,144.0,142.8,8.1
56.0,131.2,147.2,142.8,140.4,8.3
58.0,130.5,146.0,142.6,139.7,8.1
60.0,130.6,147.8,141.6,140.0,8.7
62.0,128.6,143.3,142.6,138.2,8.3
64.0,127.5,142.8,141.0,137.1,8.4
66.0,124.8,142.7,141.4,136.3,10.0
68.0,122.6,139.6,142.1,134.8,10.6
70.0,123.5,139.7,140.2,134.5,9.5
72.0,125.2,134.0,139.2,132.8,7.1
74.0,124.4,132.6,141.1,132.7,8.3
76.0,125.7,131.7,140.3,132.5,7.4
78.0,122.7,134.7,139.7,132.4,8.7
80.0,125.7,135.3,139.9,133.7,7.2
82.0,125.4,133.8,139.7,133.0,7.2
84.0,126.0,133.1,136.1,131.7,5.2
86.0,127.7,129.8,134.5,130.7,3.5
88.0,132.0,130.2,132.9,131.7,1.4
90.0,127.7,128.5,131.0,129.1,1.7
92.0,127.6,128.4,129.6,128.5,1.0
94.0,127.7,126.3,130.2,128.1,2.0
96.0,128.3,126.6,127.3,127.4,0.9
98.0,125.3,127.5,127.3,126.7,1.2
100.0,125.9,126.3,125.0,125.7,0.7
102.0,124.7,125.8,123.0,124.5,1.4
104.0,124.3,120.9,124.1,123.1,1.9
106.0,122.4,123.2,118.4,121.3,2.5
108.0,124.7,121.8,116.9,121.1,4.0
110.0,121.8,117.2,114.4,117.8,3.7
112.0,123.0,116.6,113.7,117.7,4.8
114.0,124.7,115.2,110.3,116.7,7.3
116.0,122.5,115.1,109.2,115.6,6.7
118.0,125.9,113.5,105.3,114.9,10.4
120.0,122.4,109.9,104.2,112.1,9.3
122.0,120.6,109.5,102.0,110.7,9.4
124.0,119.0,106.9,100.0,108.6,9.6
126.0,117.3,105.9,100.1,107.8,8.8
128.0,116.1,105.0,97.7,106.3,9.3
130.0,114.6,100.1,94.8,103.2,10.3
132.0,115.9,101.6,93.4,103.6,11.4
134.0,113.2,98.3,92.7,101.4,10.6
136.0,112.7,98.2,90.6,100.5,11.2
138.0,110.9,96.0,89.9,98.9,10.8
140.0,110.0,94.7,87.6,97.5,11.4
142.0,110.2,92.7,87.3,96.7,12.0
144.0,106.2,91.2,87.2,94.8,10.0
146.0,103.8,90.7,85.7,93.4,9.4
148.0,101.3,88.9,82.9,91.0,9.4
150.0,101.4,87.8,84.6,91.3,8.9
152.0,99.5,86.4,82.7,89.5,8.8
154.0,96.0,84.8,82.4,87.7,7.3
156.0,94.8,82.8,82.7,86.8,6.9
158.0,92.3,81.5,82.7,85.5,5.9
160.0,89.6,81.8,81.8,84.4,4.5
162.0,88.9,78.5,81.4,82.9,5.3
164.0,86.9,77.5,80.8,81.7,4.8
166.0,86.3,76.2,79.3,80.6,5.2
168.0,85.9,74.4,78.0,79.4,5.9
170.0,82.8,73.3,78.1,78.0,4.7
172.0,82.2,71.3,78.9,77.5,5.6
174.0,80.3,72.7,77.2,76.8,3.8
176.0,79.7,71.3,76.1,75.7,4.2
178.0,78.6,71.4,76.4,75.5,3.7
180.0,79.4,68.6,75.5,74.5,5.5
182.0,77.9,69.1,73.8,73.6,4.4
184.0,75.5,69.3,74.8,73.2,3.4
186.0,74.9,69.2,73.7,72.6,3.0
188.0,74.4,69.1,73.9,72.4,2.9
190.0,73.2,69.0,74.8,72.3,3.0
192.0,73.4,67.3,72.5,71.1,3.3
194.0,71.4,67.7,72.4,70.5,2.5
196.0,71.2,68.3,72.2,70.5,2.0
198.0,71.4,67.2,72.3,70.3,2.7
200.0,68.3,68.0,71.1,69.1,1.7
202.0,68.7,66.6,72.0,69.1,2.7
204.0,68.4,65.2,70.9,68.2,2.8
206.0,68.9,65.8,71.4,68.7,2.8
208.0,67.6,66.8,71.7,68.7,2.7
210.0,68.0,66.7,74.2,69.6,4.0
212.0,68.0,66.0,72.5,68.8,3.3
214.0,67.6,66.8,71.1,68.5,2.3
216.0,68.3,66.3,71.5,68.7,2.6
218.0,67.7,67.7,70.6,68.7,1.7
220.0,67.4,67.1,72.1,68.9,2.8
222.0,66.8,67.9,70.2,68.3,1.7
224.0,67.6,68.2,72.5,69.5,2.7
226.0,66.9,67.1,71.8,68.6,2.8
228.0,67.9,66.9,72.6,69.1,3.0
230.0,67.5,68.9,72.3,69.5,2.5
232.0,67.4,68.0,73.1,69.5,3.2
234.0,67.4,69.3,72.1,69.6,2.4
236.0,68.0,71.0,71.3,70.1,1.9
238.0,68.9,70.1,71.9,70.3,1.5
240.0,68.8,72.3,72.1,71.1,1.9
242.0,71.3,73.7,72.8,72.6,1.2
244.0,70.7,74.2,74.3,73.1,2.1
246.0,71.1,74.5,74.8,73.5,2.1
248.0,71.8,74.5,74.5,73.6,1.5
250.0,71.5,77.0,75.0,74.5,2.8
252.0,74.9,77.1,75.0,75.7,1.2
254.0,74.7,79.0,76.1,76.6,2.2
256.0,73.7,80.2,77.9,77.3,3.3
258.0,74.7,81.4,78.2,78.1,3.4
260.0,76.1,82.5,79.1,79.3,3.2
262.0,77.6,83.3,81.1,80.6,2.9
264.0,78.9,83.9,82.8,81.8,2.6
266.0,79.5,86.7,85.4,83.9,3.8
268.0,79.1,88.8,88.1,85.3,5.4
270.0,80.6,90.0,89.4,86.7,5.3
272.0,85.1,90.7,91.1,89.0,3.3
274.0,86.9,94.0,91.8,90.9,3.6
276.0,90.4,97.1,94.0,93.9,3.4
278.0,92.5,99.9,95.7,96.0,3.7
280.0,92.5,101.8,97.6,97.3,4.7
282.0,95.9,103.5,98.2,99.2,3.9
284.0,96.0,105.7,100.8,100.8,4.9
286.0,99.1,108.3,103.0,103.5,4.6
288.0,103.0,109.8,106.9,106.6,3.4
290.0,107.6,112.8,108.5,109.7,2.8
292.0,105.8,112.2,107.4,108.5,3.3
294.0,108.3,115.3,112.7,112.1,3.5
296.0,110.5,118.3,112.7,113.8,4.0
298.0,114.3,120.8,116.1,117.1,3.4
300.0,117.0,123.9,116.2,119.0,4.3
302.0,118.3,128.0,120.4,122.2,5.1
304.0,119.4,128.1,120.7,122.7,4.7
306.0,119.5,130.4,124.3,124.7,5.4
308.0,121.9,129.4,126.4,125.9,3.8
310.0,122.7,130.6,128.8,127.4,4.1
312.0,124.8,131.4,130.4,128.9,3.6
314.0,124.7,132.8,129.0,128.8,4.0
316.0,126.2,136.0,132.3,131.5,4.9
318.0,127.5,137.6,130.4,131.9,5.2
320.0,129.5,138.5,131.2,133.0,4.8
322.0,130.2,139.2,133.0,134.2,4.6
324.0,133.2,142.5,133.9,136.5,5.1
326.0,134.6,141.0,135.2,136.9,3.5
328.0,133.1,143.4,137.9,138.1,5.2
330.0,134.3,145.2,137.2,138.9,5.6
332.0,136.6,143.7,142.5,140.9,3.8
334.0,139.0,145.8,144.2,143.0,3.6
336.0,145.0,143.9,146.5,145.1,1.3
338.0,145.2,147.4,147.2,146.6,1.2
340.0,143.3,148.2,148.0,146.5,2.8
342.0,146.3,149.4,150.9,148.9,2.3
344.0,147.0,150.4,149.3,148.9,1.7
346.0,145.9,152.6,147.6,148.7,3.5
348.0,148.2,150.1,151.0,149.7,1.4
350.0,151.0,153.2,151.0,151.7,1.3
352.0,150.3,155.5,149.6,151.8,3.2
354.0,151.4,154.9,149.6,152.0,2.7
356.0,153.9,156.7,151.9,154.1,2.4
358.0,156.9,156.2,152.9,155.3,2.2
360.0,153.6,158.9,149.3,153.9,4.8
362.0,157.1,162.4,150.4,156.7,6.0
364.0,155.9,163.7,150.0,156.5,6.9
366.0,157.6,165.6,151.0,158.0,7.3
368.0,158.3,171.6,152.9,160.9,9.6
370.0,160.5,172.1,153.8,162.2,9.3
372.0,162.3,173.1,154.9,163.4,9.1
374.0,164.2,175.6,156.1,165.3,9.8
376.0,161.7,180.3,158.1,166.7,11.9
378.0,162.8,182.7,157.3,167.6,13.4
380.0,164.2,186.6,160.6,170.4,14.1
382.0,166.3,190.3,161.4,172.7,15.4
384.0,170.3,195.4,165.0,176.9,16.3
386.0,169.2,210.2,166.3,181.9,24.6
388.0,173.2,208.1,170.0,183.8,21.1
390.0,178.7,215.0,175.6,189.8,21.9
392.0,178.2,218.6,180.4,192.4,22.7
394.0,185.9,229.6,183.4,199.6,26.0
396.0,191.9,233.9,186.1,204.0,26.1
398.0,199.2,240.5,192.9,210.9,25.9
400.0,201.7,247.4,200.7,216.6,26.7
402.0,215.3,255.4,206.8,225.8,25.9
404.0,220.5,258.2,212.3,230.4,24.5
406.0,229.5,260.0,218.3,235.9,21.6
408.0,243.7,267.3,228.2,246.4,19.7
410.0,250.4,267.4,237.0,251.6,15.2
412.0,257.4,272.7,242.7,257.6,15.0
414.0,264.3,275.1,252.3,263.9,11.4
416.0,272.3,273.3,260.3,268.6,7.2
418.0,273.4,268.5,262.0,267.9,5.7
420.0,276.0,271.3,261.6,269.6,7.3
422.0,282.1,271.7,269.5,274.4,6.8
424.0,284.1,264.3,268.0,272.2,10.5
426.0,283.5,267.9,271.1,274.2,8.2
428.0,294.1,265.9,271.2,277.0,15.0
430.0,285.8,264.5,265.2,271.8,12.1
432.0,288.9,274.2,266.3,276.5,11.5
434.0,282.4,277.2,269.5,276.3,6.5
436.0,278.2,279.2,262.8,273.4,9.2
438.0,281.8,282.1,267.8,277.3,8.2
440.0,273.3,278.7,273.5,275.2,3.0
442.0,278.3,287.0,273.1,279.5,7.0
444.0,277.0,286.1,279.4,280.8,4.7
446.0,276.0,279.7,283.2,279.6,3.6
448.0,279.0,269.4,289.5,279.3,10.0
450.0,277.1,267.0,284.1,276.0,8.6
452.0,273.1,258.9,289.1,273.7,15.1
454.0,272.2,244.8,295.0,270.6,25.2
456.0,268.1,232.5,287.6,262.7,27.9
458.0,260.4,225.8,285.6,257.3,30.0
460.0,259.0,218.9,289.4,255.8,35.4
462.0,254.4,206.1,286.5,249.0,40.5
464.0,251.8,203.8,285.4,247.0,41.0
466.0,246.5,192.7,283.2,240.8,45.5
468.0,241.1,190.9,276.2,236.1,42.9
470.0,237.7,181.1,275.7,231.5,47.6
472.0,228.3,173.2,257.5,219.7,42.8
474.0,219.3,166.7,251.6,212.6,42.8
476.0,212.6,160.1,247.8,206.8,44.1
478.0,204.6,152.1,239.4,198.7,44.0
480.0,198.1,144.3,223.8,188.7,40.6
482.0,189.6,136.4,218.2,181.4,41.5
484.0,182.7,127.6,207.6,172.6,40.9
486.0,175.4,121.3,195.3,164.0,38.3
488.0,167.6,113.5,185.1,155.4,37.3
490.0,162.9,109.6,176.7,149.7,35.5
492.0,153.1,103.5,168.5,141.7,34.0
494.0,143.0,100.2,159.8,134.3,30.7
496.0,132.4,95.2,150.4,126.0,28.2
498.0,127.2,91.8,144.1,121.1,26.7
500.0,119.8,89.9,138.3,116.0,24.4
502.0,111.4,86.6,129.2,109.0,21.4
504.0,103.1,84.2,124.7,104.0,20.3
506.0,99.4,81.9,115.3,98.9,16.7
508.0,94.3,81.1,109.7,95.0,14.3
510.0,91.7,79.0,105.3,92.0,13.2
512.0,86.2,76.7,101.4,88.1,12.4
514.0,82.9,74.5,94.5,84.0,10.0
516.0,77.1,72.8,90.2,80.0,9.1
518.0,73.9,70.6,82.2,75.6,6.0
520.0,70.6,70.5,79.4,73.5,5.1
522.0,66.3,67.7,75.9,70.0,5.2
524.0,62.8,66.5,71.6,67.0,4.4
526.0,59.2,64.3,67.5,63.7,4.2
528.0,55.8,61.7,62.5,60.0,3.7
530.0,53.1,60.1,60.2,57.8,4.0
532.0,51.2,58.7,54.8,54.9,3.7
534.0,49.1,57.9,51.3,52.8,4.6
536.0,48.5,54.3,48.0,50.3,3.5
538.0,47.3,53.0,45.5,48.6,3.9
540.0,45.0,51.8,42.3,46.3,4.9
542.0,43.4,51.3,39.6,44.8,6.0
544.0,41.2,48.8,38.3,42.8,5.5
546.0,39.2,46.6,37.3,41.0,4.9
548.0,37.6,43.6,35.6,38.9,4.1
550.0,36.6,42.3,33.6,37.5,4.4
552.0,34.7,39.8,31.9,35.5,4.0
554.0,34.2,38.2,30.3,34.2,4.0
556.0,32.8,37.9,30.4,33.7,3.8
558.0,32.3,38.1,29.1,33.2,4.5
560.0,31.4,37.9,28.3,32.5,4.9
562.0,29.7,37.3,27.3,31.4,5.2
564.0,28.2,36.6,26.6,30.5,5.4
566.0,27.7,34.6,26.7,29.7,4.3
568.0,26.2,32.8,26.4,28.5,3.7
570.0,25.7,30.6,25.9,27.4,2.7
572.0,25.0,28.4,25.1,26.2,1.9
574.0,24.3,26.6,24.2,25.0,1.4
576.0,23.5,26.3,23.9,24.6,1.5
578.0,21.5,26.8,23.6,24.0,2.7
580.0,20.0,28.0,23.4,23.8,4.0
582.0,20.3,28.0,23.2,23.8,3.9
584.0,21.4,27.2,22.7,23.8,3.0
586.0,23.0,26.1,22.5,23.9,2.0
588.0,23.5,24.5,22.4,23.5,1.0

File: Engineered_Flooring_HRRPUA_50.csv
Time after Ignition,Engineered_Flooring_R1,Engineered_Flooring_R2,Engineered_Flooring_R3,Mean,Std. Dev.
0.0,18.2,31.2,20.4,23.2,7.0
4.25,175.6,204.2,160.2,180.0,22.3
8.5,285.1,281.4,252.2,272.9,18.0
12.75,291.1,284.0,270.4,281.8,10.6
17.0,278.8,279.4,275.5,277.9,2.1
21.25,275.1,283.0,283.7,280.6,4.8
25.5,290.0,301.6,297.2,296.3,5.9
29.75,300.9,305.3,304.1,303.4,2.3
34.0,297.2,299.3,299.9,298.8,1.4
38.25,286.9,289.6,284.1,286.8,2.7
42.5,265.4,268.8,266.9,267.0,1.7
46.75,248.7,253.6,252.0,251.4,2.5
51.0,229.9,235.0,234.2,233.1,2.7
55.25,219.5,220.6,221.1,220.4,0.8
59.5,210.5,207.3,206.1,208.0,2.3
63.75,196.8,194.1,197.2,196.1,1.7
68.0,186.8,193.2,189.3,189.7,3.2
72.25,177.6,183.4,181.4,180.8,3.0
76.5,172.4,179.9,172.6,175.0,4.3
80.75,166.2,174.2,167.4,169.3,4.3
85.0,162.2,167.8,162.8,164.3,3.1
89.25,159.3,161.7,157.3,159.5,2.2
93.5,154.3,160.5,156.2,157.0,3.2
97.75,152.5,156.6,150.6,153.2,3.0
102.0,150.4,157.3,150.7,152.8,3.9
106.25,151.3,156.3,151.4,153.0,2.8
110.5,149.3,156.3,149.0,151.5,4.1
114.75,147.3,154.1,146.1,149.2,4.3
119.0,145.8,154.1,149.5,149.8,4.2
123.25,148.5,153.4,148.0,150.0,3.0
127.5,146.2,151.7,145.8,147.9,3.3
131.75,150.0,152.1,146.5,149.5,2.8
136.0,148.2,151.4,147.7,149.1,2.0
140.25,146.8,153.4,144.4,148.2,4.7
144.5,146.2,154.4,147.1,149.2,4.5
148.75,146.8,153.8,146.3,148.9,4.2
153.0,146.3,151.6,145.8,147.9,3.2
157.25,145.4,152.3,143.3,147.0,4.7
161.5,146.4,155.3,147.4,149.7,4.9
165.75,149.8,153.6,145.5,149.6,4.1
170.0,148.3,153.5,145.0,148.9,4.3
174.25,147.3,151.5,144.7,147.8,3.4
178.5,147.3,152.6,147.4,149.1,3.0
182.75,146.0,150.3,146.9,147.7,2.3
187.0,148.8,153.8,148.2,150.3,3.1
191.25,147.8,154.9,147.7,150.1,4.1
195.5,144.3,156.9,150.7,150.7,6.3
199.75,153.6,157.1,152.4,154.4,2.4
204.0,152.2,154.6,151.9,152.9,1.5
208.25,155.1,155.2,156.7,155.7,0.9
212.5,158.2,158.5,152.2,156.3,3.6
216.75,156.7,163.5,156.2,158.8,4.1
221.0,157.8,164.6,163.5,161.9,3.7
225.25,162.1,168.8,163.4,164.8,3.5
229.5,164.1,171.9,163.3,166.4,4.7
233.75,171.1,176.2,166.9,171.4,4.7
238.0,174.2,183.7,173.5,177.1,5.7
242.25,180.1,188.4,179.2,182.6,5.0
246.5,181.7,197.8,182.7,187.4,9.0
250.75,190.6,202.8,186.7,193.4,8.4
255.0,194.0,204.1,195.5,197.8,5.4
259.25,195.5,209.1,196.7,200.4,7.5
263.5,204.7,216.8,196.9,206.1,10.1
267.75,207.3,223.9,208.3,213.2,9.3
272.0,217.7,230.1,217.4,221.7,7.2
276.25,225.6,245.0,225.0,231.9,11.3
280.5,239.0,249.2,231.3,239.8,8.9
284.75,243.5,254.1,233.2,243.6,10.4
289.0,243.3,263.2,247.7,251.4,10.5
293.25,254.7,264.8,256.9,258.8,5.3
297.5,253.7,279.2,271.6,268.2,13.1
301.75,259.8,282.8,276.3,272.9,11.9
306.0,272.3,287.8,282.5,280.9,7.9
310.25,280.4,289.3,293.0,287.6,6.5
314.5,288.9,307.9,298.8,298.5,9.5
318.75,295.0,312.4,309.2,305.6,9.3
323.0,316.7,325.2,311.8,317.9,6.8
327.25,328.7,334.2,323.7,328.9,5.3
331.5,349.7,340.8,335.8,342.1,7.0
335.75,359.4,355.6,350.3,355.1,4.5
340.0,368.0,355.6,351.0,358.2,8.8
344.25,356.3,344.5,349.4,350.1,6.0
348.5,335.8,328.2,329.9,331.3,4.0
352.75,294.0,312.8,313.3,306.7,11.0
357.0,269.2,297.0,292.2,286.1,14.8
361.25,241.3,275.4,272.6,263.1,18.9
365.5,221.3,252.2,250.1,241.2,17.3
369.75,199.3,215.3,215.8,210.1,9.4
374.0,168.9,175.1,182.3,175.4,6.7
378.25,147.5,144.2,150.2,147.3,3.0
382.5,120.9,119.2,113.1,117.7,4.1
386.75,96.9,93.4,88.9,93.0,4.0
391.0,82.3,80.5,73.3,78.7,4.8
395.25,69.5,71.2,63.0,67.9,4.3
399.5,58.6,65.5,55.8,60.0,5.0
403.75,52.0,62.1,51.2,55.1,6.0
408.0,48.9,57.8,48.0,51.6,5.4
412.25,45.5,56.0,45.8,49.1,6.0
416.5,44.1,54.4,45.2,47.9,5.6
420.75,41.8,52.8,43.4,46.0,6.0
425.0,42.0,50.7,42.8,45.2,4.8
429.25,40.7,51.4,41.4,44.5,6.0
433.5,39.6,49.4,40.9,43.3,5.3
437.75,39.0,48.4,40.8,42.8,5.0
442.0,37.9,48.2,40.6,42.2,5.4
446.25,37.3,47.1,40.7,41.7,5.0
450.5,36.1,46.6,39.9,40.9,5.3
454.75,36.6,45.8,40.0,40.8,4.6
459.0,36.5,45.5,39.2,40.4,4.6
463.25,36.0,44.2,38.6,39.6,4.2
467.5,34.5,44.0,39.0,39.2,4.8
471.75,36.4,42.3,38.9,39.2,3.0
476.0,37.0,42.7,38.0,39.3,3.0
480.25,35.8,42.3,38.0,38.7,3.3
484.5,36.3,41.7,38.3,38.8,2.7
488.75,35.7,42.5,38.6,38.9,3.4
493.0,35.4,40.7,38.1,38.1,2.7
497.25,35.5,40.8,37.3,37.8,2.7
501.5,36.2,40.8,35.8,37.6,2.8
505.75,35.0,40.7,35.9,37.2,3.1
510.0,35.3,39.3,36.3,37.0,2.1
514.25,35.1,39.2,38.9,37.7,2.3
518.5,34.0,39.8,39.1,37.6,3.1
522.75,33.8,40.0,37.9,37.2,3.1
527.0,32.8,39.5,37.1,36.5,3.3
531.25,33.0,38.9,35.2,35.7,3.0
535.5,33.7,39.1,35.2,36.0,2.8
539.75,34.9,38.9,35.4,36.4,2.2
544.0,34.9,38.0,34.6,35.8,1.9
548.25,35.2,38.1,34.6,36.0,1.9
552.5,36.2,39.2,34.1,36.5,2.5
556.75,35.6,38.2,34.3,36.0,2.0
561.0,34.6,38.1,34.9,35.9,2.0
565.25,34.8,37.1,36.0,36.0,1.2
569.5,34.1,35.7,36.0,35.2,1.0
573.75,33.7,36.2,35.1,35.0,1.2
578.0,34.1,36.5,34.6,35.1,1.3
582.25,32.7,36.5,34.5,34.6,1.9
586.5,33.0,36.0,35.2,34.7,1.5
590.75,32.6,35.9,35.5,34.6,1.8
595.0,33.1,35.5,34.7,34.4,1.2
599.25,32.9,34.8,33.7,33.8,0.9
603.5,32.5,37.9,34.0,34.8,2.8
607.75,32.9,38.9,34.1,35.3,3.1
612.0,32.3,38.5,34.6,35.1,3.1
616.25,31.4,38.3,35.2,34.9,3.4
620.5,32.6,36.7,35.1,34.8,2.1
624.75,32.8,36.6,34.5,34.6,1.9
629.0,32.3,35.7,33.6,33.8,1.7
633.25,31.4,36.3,33.0,33.6,2.5
637.5,31.2,35.7,32.9,33.3,2.2
641.75,31.9,35.6,33.3,33.6,1.9
646.0,32.8,37.0,33.2,34.3,2.3
650.25,32.4,36.5,32.6,33.8,2.3
654.5,31.6,35.9,32.7,33.4,2.3
658.75,30.5,36.3,33.1,33.3,2.9
663.0,29.4,36.9,32.8,33.0,3.8
667.25,29.1,37.9,32.8,33.2,4.4
671.5,29.6,39.0,32.1,33.6,4.9
675.75,30.0,39.3,31.7,33.7,4.9
680.0,30.1,39.4,32.1,33.9,4.9
684.25,30.0,38.8,33.1,34.0,4.5
688.5,29.6,38.5,33.6,33.9,4.5
692.75,29.3,38.3,33.7,33.7,4.5
697.0,30.3,38.2,33.6,34.0,4.0
701.25,32.2,38.5,33.5,34.7,3.3
705.5,32.1,39.4,32.9,34.8,4.0
709.75,31.3,39.5,33.0,34.6,4.3
714.0,31.5,38.7,32.5,34.2,3.9
718.25,31.9,38.7,33.2,34.6,3.6
722.5,31.8,38.3,33.4,34.5,3.4
726.75,32.1,38.0,32.4,34.2,3.3
731.0,32.1,38.0,31.1,33.7,3.7
735.25,31.6,37.7,31.3,33.5,3.6
739.5,30.1,37.7,31.5,33.1,4.0
743.75,31.6,37.6,31.8,33.7,3.4
748.0,32.2,37.3,32.7,34.1,2.8
752.25,31.1,37.6,32.5,33.7,3.4
756.5,30.9,38.2,33.4,34.2,3.7
760.75,29.8,38.8,33.0,33.9,4.6
765.0,30.3,38.0,32.5,33.6,4.0
769.25,29.8,39.0,31.3,33.4,4.9
773.5,29.9,38.9,31.3,33.4,4.8
777.75,30.2,38.6,31.9,33.6,4.4
782.0,30.0,40.2,32.0,34.1,5.4
786.25,29.6,39.7,32.3,33.9,5.2
790.5,30.9,39.0,31.1,33.6,4.6
794.75,29.7,38.8,30.7,33.1,5.0
799.0,29.1,38.7,31.2,33.0,5.0
803.25,29.4,38.1,31.1,32.9,4.6
807.5,30.3,39.2,31.6,33.7,4.8
811.75,30.1,40.5,31.9,34.2,5.6
816.0,30.6,39.3,32.1,34.0,4.7
820.25,30.5,38.9,31.1,33.5,4.7
824.5,29.4,38.0,30.8,32.7,4.6
828.75,30.7,37.1,30.4,32.7,3.8
833.0,30.3,37.5,31.5,33.1,3.8
837.25,30.2,37.1,31.7,33.0,3.6
841.5,30.5,37.1,31.9,33.2,3.5
845.75,30.1,36.9,31.6,32.9,3.5
850.0,29.4,36.7,31.4,32.5,3.8
854.25,29.5,37.3,30.5,32.5,4.3
858.5,31.7,37.4,31.1,33.4,3.5
862.75,31.3,36.5,31.6,33.1,2.9
867.0,30.4,36.7,32.5,33.2,3.2
871.25,29.7,36.2,32.3,32.7,3.3
875.5,28.5,36.5,32.7,32.6,4.0
879.75,29.3,36.9,33.4,33.2,3.8
884.0,30.3,37.1,32.7,33.4,3.5
888.25,31.8,36.5,31.6,33.3,2.8
892.5,31.3,36.0,31.6,33.0,2.6
896.75,31.1,35.7,30.6,32.5,2.8
901.0,30.0,36.4,31.3,32.6,3.4
905.25,30.2,36.2,32.0,32.8,3.0
909.5,29.6,36.6,32.2,32.8,3.5
913.75,30.3,37.9,32.3,33.5,3.9
918.0,29.9,37.8,32.0,33.2,4.1
922.25,29.3,37.1,32.7,33.1,3.9
926.5,28.7,37.5,33.0,33.1,4.4
930.75,29.6,37.0,32.2,32.9,3.7
935.0,30.1,35.7,31.5,32.4,2.9
939.25,29.7,33.8,31.8,31.8,2.0
943.5,29.4,34.0,31.6,31.6,2.3
947.75,29.1,34.3,32.8,32.1,2.7
952.0,29.1,34.0,31.8,31.6,2.5
956.25,29.8,34.3,32.1,32.1,2.3
960.5,29.0,34.5,32.1,31.9,2.8
964.75,28.6,35.4,33.6,32.5,3.5
969.0,28.4,35.2,33.3,32.3,3.5
973.25,28.8,34.8,34.0,32.6,3.3
977.5,28.6,35.3,35.6,33.1,3.9
981.75,28.4,36.4,35.3,33.4,4.3
986.0,28.8,36.3,34.2,33.1,3.9
990.25,29.5,36.5,33.5,33.1,3.5
994.5,28.5,36.4,31.7,32.2,4.0
998.75,28.6,36.7,31.9,32.4,4.1
1003.0,28.0,36.1,31.9,32.0,4.1
1007.25,28.3,37.5,31.1,32.3,4.7
1011.5,27.9,36.8,31.2,32.0,4.5
1015.75,27.8,37.6,31.8,32.4,5.0
1020.0,27.9,37.1,31.3,32.1,4.6
1024.25,28.9,36.1,31.1,32.0,3.7
1028.5,29.8,37.6,31.4,33.0,4.1
1032.75,29.1,37.2,,33.2,5.8
1037.0,29.4,36.3,,32.9,4.9
1041.25,29.2,36.4,,32.8,5.1
1045.5,29.2,36.5,,32.8,5.2
1049.75,28.9,36.6,,32.7,5.4
1054.0,28.4,36.7,,32.6,5.9
1058.25,28.0,35.6,,31.8,5.4
1062.5,28.5,34.6,,31.5,4.3
1066.75,29.6,36.1,,32.8,4.6
1071.0,29.2,37.3,,33.2,5.7
1075.25,28.2,38.0,,33.1,6.9
1079.5,28.3,36.6,,32.4,5.9
1083.75,28.7,35.8,,32.3,5.0
1088.0,29.6,35.7,,32.7,4.4
1092.25,29.5,35.9,,32.7,4.5
1096.5,29.0,35.7,,32.4,4.7
1100.75,29.1,36.2,,32.7,5.0
1105.0,29.0,36.6,,32.8,5.3
1109.25,29.0,36.0,,32.5,5.0
1113.5,28.3,36.1,,32.2,5.5
1117.75,28.1,35.0,,31.6,4.9
1122.0,27.8,35.2,,31.5,5.2
1126.25,28.0,36.2,,32.1,5.8
1130.5,28.4,37.8,,33.1,6.6
1134.75,28.5,38.2,,33.3,6.9
1139.0,28.8,39.4,,34.1,7.6
1143.25,28.3,39.0,,33.7,7.6
1147.5,28.2,37.3,,32.8,6.5
1151.75,29.8,36.3,,33.0,4.6
1156.0,30.1,35.4,,32.8,3.8
1160.25,30.2,35.2,,32.7,3.5
1164.5,28.4,35.0,,31.7,4.7
1168.75,28.5,35.6,,32.1,5.0
1173.0,29.1,35.2,,32.2,4.4
1177.25,29.4,35.4,,32.4,4.3
1181.5,29.2,35.2,,32.2,4.2
1185.75,29.4,34.5,,32.0,3.6
1190.0,30.5,33.9,,32.2,2.4
1194.25,30.5,34.3,,32.4,2.7
1198.5,31.8,34.6,,33.2,2.0
1202.75,31.0,34.1,,32.5,2.2
1207.0,29.8,34.9,,32.4,3.6
1211.25,29.8,34.3,,32.1,3.1
1215.5,29.8,33.5,,31.7,2.6
1219.75,30.0,33.4,,31.7,2.4
1224.0,29.0,31.2,,30.1,1.5
1228.25,28.9,31.6,,30.2,1.9
1232.5,27.1,34.3,,30.7,5.1
1236.75,26.9,37.8,,32.3,7.7
1241.0,27.1,39.1,,33.1,8.5
1245.25,27.7,38.9,,33.3,7.9
1249.5,30.0,38.8,,34.4,6.2
1251.5,31.3,37.7,,34.5,4.6