Folder: fsri_materials_database/01_Data/Engineered_Flooring/Cone (part 2)

File: Engineered_Flooring_HRRPUA_75.csv
Time after Ignition,Engineered_Flooring_R1,Engineered_Flooring_R2,Engineered_Flooring_R3,Mean,Std. Dev.
0.0,31.5,56.4,47.4,45.1,12.6
6.0,339.6,348.1,353.1,347.0,6.8
12.0,398.6,406.8,385.1,396.9,10.9
18.0,420.5,428.0,409.2,419.2,9.5
24.0,433.6,411.9,408.4,418.0,13.7
30.0,401.5,373.2,370.7,381.8,17.1
36.0,373.8,342.6,338.2,351.5,19.4
42.0,328.5,307.3,307.8,314.5,12.1
48.0,289.1,275.0,286.6,283.5,7.5
54.0,265.1,254.7,264.9,261.5,5.9
60.0,251.0,242.8,250.7,248.2,4.7
66.0,228.1,227.2,234.8,230.0,4.2
72.0,212.5,214.9,218.7,215.4,3.1
78.0,204.6,208.9,209.4,207.6,2.6
84.0,201.4,201.1,203.4,201.9,1.2
90.0,197.3,199.2,198.5,198.4,0.9
96.0,200.8,195.2,192.9,196.3,4.1
102.0,196.5,195.4,199.2,197.0,2.0
108.0,194.5,193.0,199.9,195.8,3.6
114.0,199.7,194.7,195.2,196.5,2.8
120.0,196.1,199.6,195.9,197.2,2.1
126.0,197.0,195.2,197.9,196.7,1.4
132.0,198.0,191.8,199.5,196.4,4.1
138.0,197.8,195.9,205.1,199.6,4.8
144.0,199.3,196.9,196.5,197.6,1.5
150.0,195.9,196.6,197.5,196.7,0.8
156.0,191.5,194.2,192.4,192.7,1.3
162.0,192.1,193.2,198.1,194.5,3.2
168.0,192.9,193.1,197.3,194.4,2.5
174.0,193.1,193.0,200.0,195.4,4.0
180.0,195.7,197.9,201.6,198.4,2.9
186.0,200.4,197.9,207.4,201.9,4.9
192.0,203.8,201.1,212.4,205.8,5.9
198.0,204.5,211.4,214.3,210.0,5.0
204.0,216.0,215.3,221.0,217.4,3.1
210.0,225.1,224.0,240.0,229.7,8.9
216.0,231.5,235.7,244.6,237.2,6.7
222.0,243.5,246.6,256.6,248.9,6.9
228.0,254.2,258.2,270.6,261.0,8.6
234.0,273.1,275.5,280.9,276.5,4.0
240.0,280.3,290.1,294.3,288.2,7.2
246.0,296.7,307.9,312.6,305.8,8.2
252.0,319.7,330.4,320.9,323.7,5.9
258.0,348.0,349.6,333.7,343.8,8.7
264.0,368.2,368.3,356.5,364.3,6.8
270.0,396.4,408.1,394.4,399.6,7.4
276.0,412.7,439.8,419.1,423.9,14.2
282.0,428.5,435.1,390.7,418.1,23.9
288.0,399.5,391.3,346.2,379.0,28.7
294.0,367.4,362.7,311.9,347.3,30.8
300.0,341.4,303.6,272.0,305.7,34.7
306.0,270.3,230.0,222.2,240.8,25.8
312.0,206.4,151.8,175.0,177.7,27.4
318.0,134.0,97.6,116.8,116.1,18.2
324.0,86.3,70.1,76.1,77.5,8.2
330.0,67.3,60.6,60.2,62.7,4.0
336.0,59.7,56.5,55.0,57.1,2.4
342.0,54.2,52.0,52.5,52.9,1.2
348.0,50.8,49.1,49.2,49.7,1.0
354.0,49.8,48.1,47.4,48.4,1.2
360.0,47.9,44.9,45.9,46.2,1.5
366.0,49.5,43.7,45.6,46.3,2.9
372.0,48.9,41.7,43.4,44.7,3.8
378.0,48.2,42.2,43.6,44.6,3.1
384.0,45.3,42.8,44.1,44.1,1.3
390.0,42.0,41.0,43.0,42.0,1.0
396.0,41.0,39.8,43.1,41.3,1.7
402.0,41.0,41.0,42.3,41.4,0.8
408.0,41.5,39.4,41.8,40.9,1.3
414.0,41.2,39.8,41.1,40.7,0.8
420.0,39.2,40.7,40.7,40.2,0.9
426.0,39.7,41.3,42.6,41.2,1.4
432.0,40.1,39.7,42.1,40.6,1.3
438.0,39.0,39.2,42.8,40.3,2.1
444.0,40.3,38.4,42.5,40.4,2.1
450.0,40.3,38.5,42.0,40.3,1.7
456.0,39.2,37.7,42.5,39.8,2.5
462.0,38.9,37.1,41.9,39.3,2.4
468.0,39.4,37.3,42.7,39.8,2.7
474.0,38.4,38.0,41.7,39.3,2.0
480.0,37.9,37.8,42.4,39.4,2.6
486.0,37.9,37.9,43.2,39.7,3.1
492.0,38.6,38.2,42.9,39.9,2.6
498.0,38.5,37.9,43.1,39.9,2.8
504.0,36.9,37.2,42.5,38.9,3.1
510.0,38.1,37.3,42.7,39.4,2.9
516.0,37.8,35.4,42.0,38.4,3.3
522.0,37.1,34.6,44.0,38.6,4.9
528.0,39.0,34.1,42.3,38.5,4.1
534.0,39.7,33.5,42.9,38.7,4.8
540.0,39.7,35.3,41.9,38.9,3.4
546.0,37.4,35.4,42.0,38.3,3.4
552.0,37.4,36.0,41.8,38.4,3.0
558.0,37.9,35.6,43.3,38.9,3.9
564.0,37.4,35.3,43.6,38.8,4.3
570.0,38.7,36.3,41.6,38.9,2.7
576.0,38.1,36.2,41.4,38.6,2.6
582.0,36.7,35.0,42.1,38.0,3.7
588.0,37.3,36.2,41.0,38.2,2.5
594.0,38.5,35.5,40.5,38.1,2.5
600.0,38.9,36.2,40.8,38.7,2.3
606.0,37.3,35.5,40.4,37.7,2.5
612.0,37.1,34.5,40.4,37.3,3.0
618.0,37.6,35.7,39.0,37.4,1.6
624.0,39.6,35.1,40.0,38.2,2.7
630.0,39.5,35.3,40.7,38.5,2.8
636.0,38.9,35.3,40.0,38.1,2.5
642.0,37.3,35.1,39.8,37.4,2.4
648.0,37.2,35.2,39.7,37.3,2.2
654.0,38.6,35.1,40.1,37.9,2.6
660.0,38.3,34.7,39.7,37.5,2.6
666.0,38.3,33.9,39.3,37.2,2.9
672.0,38.7,33.6,38.7,37.0,3.0
678.0,38.5,34.8,39.5,37.6,2.5
684.0,37.9,36.1,39.7,37.9,1.8
690.0,37.5,36.3,40.0,38.0,1.9
696.0,39.3,35.9,39.8,38.3,2.1
702.0,38.2,34.2,39.9,37.4,2.9
708.0,39.6,34.3,40.2,38.0,3.2
714.0,39.0,33.4,39.7,37.4,3.4
720.0,38.6,33.9,39.8,37.4,3.1
726.0,37.8,34.0,38.6,36.8,2.5
732.0,37.7,33.6,38.1,36.5,2.5
738.0,38.2,33.3,38.3,36.6,2.8
744.0,38.3,33.2,38.2,36.6,2.9
750.0,38.6,33.9,37.0,36.5,2.4
756.0,39.6,35.1,39.1,37.9,2.5
762.0,39.7,33.7,38.9,37.4,3.2
768.0,39.1,32.9,39.8,37.3,3.8
774.0,38.6,32.9,39.0,36.8,3.5
780.0,37.1,32.2,39.5,36.3,3.8
786.0,37.3,32.3,38.3,36.0,3.2
792.0,36.9,32.7,37.9,35.9,2.8
798.0,37.3,33.1,38.7,36.3,2.9
804.0,37.7,31.9,38.4,36.0,3.6
810.0,38.0,31.5,36.7,35.4,3.4
816.0,37.2,32.8,37.4,35.8,2.6
822.0,38.5,31.7,38.1,36.1,3.8
828.0,37.2,32.1,36.9,35.4,2.9
834.0,36.1,31.8,37.3,35.1,2.9
840.0,35.3,31.1,36.4,34.2,2.8
846.0,35.9,30.8,37.4,34.7,3.5
852.0,36.2,31.3,36.4,34.6,2.9
858.0,35.7,31.6,37.0,34.8,2.8
864.0,36.2,31.8,37.9,35.3,3.1
870.0,37.1,31.2,37.4,35.2,3.5
876.0,37.7,31.3,38.2,35.7,3.8
882.0,36.4,31.6,36.9,35.0,2.9
888.0,36.0,31.4,37.6,35.0,3.2
894.0,35.7,31.0,36.8,34.5,3.1
900.0,35.0,30.9,38.1,34.7,3.6
906.0,35.8,29.9,37.3,34.3,3.9
912.0,35.0,30.5,36.5,34.0,3.1
918.0,34.0,30.4,37.0,33.8,3.3
924.0,34.7,31.3,34.6,33.5,1.9
930.0,34.9,30.4,35.9,33.8,3.0
936.0,34.0,30.4,35.6,33.3,2.7
942.0,34.4,30.9,36.1,33.8,2.6
948.0,34.4,31.4,35.3,33.7,2.0
954.0,35.8,30.1,35.1,33.7,3.1
960.0,35.8,29.6,34.7,33.4,3.3
966.0,35.4,30.4,34.6,33.5,2.7
972.0,35.3,30.1,36.0,33.8,3.2
978.0,34.6,29.6,35.3,33.2,3.1
984.0,34.2,29.2,34.3,32.5,2.9
990.0,34.1,29.9,34.4,32.8,2.5
996.0,33.2,30.0,35.3,32.8,2.7
1002.0,33.1,30.8,34.5,32.8,1.8
1008.0,33.1,30.5,35.1,32.9,2.3
1014.0,33.2,31.0,34.9,33.0,2.0
1020.0,32.4,29.9,35.1,32.5,2.6
1026.0,32.8,29.5,34.5,32.3,2.5
1032.0,33.0,29.5,35.3,32.6,2.9
1038.0,33.2,30.2,35.0,32.8,2.4
1044.0,33.7,29.5,35.1,32.7,2.9
1050.0,33.6,29.7,35.4,32.9,2.9
1056.0,33.1,29.6,34.8,32.5,2.7
1062.0,33.7,29.3,35.5,32.8,3.2
1068.0,34.0,30.5,35.5,33.3,2.6
1074.0,34.6,30.6,35.1,33.4,2.5
1080.0,35.2,29.9,34.3,33.1,2.9
1086.0,34.9,29.7,34.4,33.0,2.9
1092.0,35.1,29.7,34.9,33.2,3.0
1098.0,34.8,28.9,35.4,33.1,3.6
1104.0,35.6,29.7,34.4,33.2,3.1
1110.0,34.7,29.9,34.4,33.0,2.7
1116.0,34.3,28.9,35.8,33.0,3.6
1122.0,35.4,28.9,34.5,32.9,3.5
1128.0,35.6,29.0,33.3,32.6,3.3
1134.0,35.7,29.5,33.2,32.8,3.1
1140.0,34.9,29.4,33.1,32.5,2.8
1146.0,36.1,29.4,33.7,33.0,3.4
1152.0,33.7,29.5,33.4,32.2,2.4
1158.0,34.8,28.5,33.1,32.1,3.3
1164.0,35.6,28.1,33.6,32.4,3.9
1170.0,33.6,28.4,33.1,31.7,2.9
1176.0,34.1,28.4,33.5,32.0,3.1
1182.0,35.6,28.2,33.0,32.3,3.8
1188.0,34.4,29.0,32.6,32.0,2.8
1194.0,34.4,28.9,33.9,32.4,3.0
1200.0,33.8,28.8,34.3,32.3,3.1
1206.0,33.8,27.9,33.8,31.8,3.4
1212.0,33.6,27.9,33.3,31.6,3.2
1218.0,34.1,28.3,33.7,32.0,3.3
1224.0,33.5,29.0,34.3,32.3,2.8
1230.0,33.7,28.5,34.1,32.1,3.2
1236.0,33.4,28.4,33.2,31.7,2.8
1242.0,33.1,28.8,34.2,32.0,2.8
1248.0,33.1,28.8,34.5,32.1,3.0
1254.0,32.5,30.1,36.0,32.9,3.0
1260.0,33.4,29.4,35.2,32.7,3.0
1266.0,34.3,28.5,34.5,32.4,3.4
1272.0,35.0,29.0,34.0,32.7,3.2
1278.0,34.3,28.8,34.3,32.4,3.2
1284.0,33.3,28.8,33.5,31.9,2.7
1290.0,33.2,28.3,33.3,31.6,2.8
1296.0,31.8,27.7,33.2,30.9,2.9
1302.0,33.0,28.5,33.2,31.6,2.7
1308.0,33.3,28.9,33.1,31.8,2.5
1314.0,32.6,28.5,32.0,31.1,2.2
1320.0,32.5,28.7,33.5,31.6,2.5
1326.0,32.5,28.3,33.6,31.5,2.8
1332.0,32.7,29.3,34.0,32.0,2.4
1338.0,33.5,28.2,34.4,32.0,3.3
1344.0,32.6,28.4,34.5,31.8,3.1
1350.0,33.1,28.5,34.8,32.2,3.2
1356.0,32.1,28.3,34.3,31.5,3.1
1362.0,32.2,29.2,33.1,31.5,2.0
1368.0,32.6,29.2,32.2,31.3,1.8
1374.0,31.7,27.9,32.1,30.6,2.3
1380.0,31.6,27.0,31.9,30.2,2.7
1386.0,30.8,27.2,31.8,29.9,2.4
1392.0,30.5,27.5,31.7,29.9,2.2
1398.0,31.3,27.6,31.7,30.2,2.3
1404.0,32.3,28.1,33.3,31.2,2.8
1410.0,31.6,28.6,33.2,31.1,2.3
1416.0,30.3,27.0,33.1,30.1,3.1
1422.0,31.4,26.6,33.2,30.4,3.4
1428.0,32.0,26.9,32.6,30.5,3.1
1434.0,32.7,27.1,32.9,30.9,3.3
1440.0,33.7,27.1,31.4,30.8,3.3
1446.0,32.7,26.3,31.7,30.2,3.4
1452.0,32.0,26.9,30.5,29.8,2.6
1458.0,31.3,27.1,31.8,30.1,2.6
1464.0,31.2,27.8,32.0,30.3,2.2
1470.0,30.9,27.8,32.3,30.3,2.3
1476.0,30.7,26.7,31.5,29.7,2.6
1482.0,31.4,26.3,32.5,30.0,3.3
1488.0,31.5,26.6,32.5,30.2,3.1
1494.0,32.9,26.6,31.6,30.4,3.3
1500.0,33.2,27.6,31.5,30.8,2.9
1506.0,33.6,27.8,30.5,30.6,2.9
1512.0,32.9,27.0,30.9,30.3,3.0
1518.0,32.8,26.0,30.1,29.6,3.4
1524.0,32.9,27.0,31.4,30.5,3.1
1530.0,33.4,26.7,30.7,30.3,3.4
1536.0,32.4,26.6,30.4,29.8,3.0
1542.0,32.0,26.2,30.8,29.7,3.0
1548.0,34.3,25.3,31.4,30.3,4.6
1554.0,33.4,26.5,31.0,30.3,3.5
1560.0,34.1,27.0,31.0,30.7,3.6
1566.0,33.5,28.3,30.0,30.6,2.7
1572.0,34.3,27.7,30.2,30.7,3.3
1578.0,33.7,27.0,30.7,30.4,3.3
1584.0,33.2,27.0,29.3,29.8,3.1
1590.0,34.1,27.1,30.1,30.5,3.5
1596.0,34.6,27.2,30.2,30.7,3.7
1602.0,35.0,27.7,30.6,31.1,3.7
1608.0,35.2,27.2,30.6,31.0,4.0
1614.0,34.2,25.7,29.1,29.7,4.3
1620.0,33.7,25.1,29.1,29.3,4.3
1626.0,32.8,25.5,29.2,29.1,3.6
1632.0,33.9,25.9,29.8,29.9,4.0
1638.0,33.8,26.1,28.8,29.6,3.9
1644.0,32.9,26.1,28.9,29.3,3.5
1650.0,32.6,27.1,28.7,29.5,2.8
1656.0,31.9,25.1,29.0,28.7,3.4
1662.0,32.2,23.6,29.4,28.4,4.4
1668.0,32.2,23.9,29.9,28.7,4.3
1674.0,31.8,25.2,30.4,29.1,3.5
1680.0,31.1,24.2,29.9,28.4,3.7
1686.0,31.7,24.5,28.8,28.3,3.6
1692.0,34.7,24.5,29.3,29.5,5.1
1698.0,35.2,25.7,29.9,30.2,4.8
1704.0,32.9,26.8,29.1,29.6,3.1
1710.0,33.1,24.6,29.1,28.9,4.2
1716.0,32.6,25.7,28.9,29.1,3.5
1722.0,31.9,25.1,28.3,28.4,3.4
1728.0,31.6,24.9,28.1,28.2,3.3
1734.0,30.8,25.2,28.6,28.2,2.8
1740.0,30.5,24.6,28.3,27.8,3.0
1746.0,30.4,24.9,28.2,27.8,2.8
1752.0,29.8,24.2,28.5,27.5,2.9
1758.0,30.5,24.4,28.5,27.8,3.1
1764.0,30.7,23.9,28.8,27.8,3.5
1770.0,30.7,22.8,28.5,27.3,4.1
1776.0,29.6,23.3,28.5,27.1,3.4
1782.0,29.0,23.5,29.4,27.3,3.3
1787.75,29.5,24.6,30.0,28.0,3.0