Folder: fsri_materials_database/01_Data/Vinyl_Tile/Cone (part 2)

File: Vinyl_Tile_HRRPUA_75.csv
Time after Ignition,Vinyl_Tile_R1,Vinyl_Tile_R2,Vinyl_Tile_R3,Vinyl_Tile_R4,Mean,Std. Dev.
0.0,10.8,8.6,5.1,26.8,12.8,9.6
0.75,15.4,15.7,9.9,41.0,20.5,13.9
1.5,22.0,22.3,16.5,50.4,27.8,15.3
2.25,28.5,34.0,23.1,62.3,37.0,17.4
3.0,33.1,45.2,31.4,74.8,46.1,20.1
3.75,43.8,56.5,41.4,83.6,56.3,19.4
4.5,48.9,65.0,50.3,91.8,64.0,19.9
5.25,54.4,75.5,58.2,98.2,71.6,20.0
6.0,64.3,83.1,68.5,105.5,80.3,18.6
6.75,74.7,91.4,78.2,113.6,89.5,17.6
7.5,88.8,101.2,87.1,121.7,99.7,16.0
8.25,102.6,109.1,96.9,130.1,109.7,14.5
9.0,113.3,119.5,106.1,138.1,119.2,13.7
9.75,125.0,127.7,116.1,146.1,128.7,12.6
10.5,133.6,135.1,125.8,148.3,135.7,9.3
11.25,143.7,140.9,127.8,154.4,141.7,11.0
12.0,154.0,146.9,136.4,161.3,149.7,10.6
12.75,159.3,147.0,144.3,166.6,154.3,10.5
13.5,166.6,151.6,147.4,175.2,160.2,13.0
14.25,167.4,153.9,153.6,188.9,165.9,16.6
15.0,171.9,161.3,157.1,190.1,170.1,14.7
15.75,175.5,167.4,160.5,197.8,175.3,16.2
16.5,178.3,169.9,162.4,199.4,177.5,16.0
17.25,181.4,173.0,169.0,201.3,181.2,14.4
18.0,181.6,178.4,169.2,207.2,184.1,16.3
18.75,182.7,184.5,170.2,206.1,185.9,14.9
19.5,188.6,186.0,167.0,204.7,186.6,15.4
20.25,187.6,188.2,174.5,208.7,189.8,14.1
21.0,187.4,193.2,178.7,213.3,193.1,14.7
21.75,188.5,192.5,177.3,210.9,192.3,14.0
22.5,187.8,197.6,177.4,211.0,193.4,14.3
23.25,194.8,196.0,182.9,207.0,195.2,9.8
24.0,192.4,194.6,177.5,207.7,193.1,12.4
24.75,190.9,194.3,180.1,209.8,193.8,12.3
25.5,191.3,198.4,180.6,206.8,194.3,11.1
26.25,189.4,195.2,179.6,203.3,191.9,10.0
27.0,193.9,199.1,176.5,203.5,193.3,11.8
27.75,192.0,199.7,178.2,203.9,193.4,11.3
28.5,195.2,194.2,177.9,201.2,192.1,10.0
29.25,197.4,193.5,176.2,201.2,192.1,11.0
30.0,203.9,197.3,177.4,199.6,194.6,11.8
30.75,201.0,199.8,175.7,200.8,194.3,12.4
31.5,207.1,202.7,178.2,198.1,196.5,12.7
32.25,209.3,203.5,180.5,200.6,198.5,12.5
33.0,211.3,202.0,181.0,197.2,197.9,12.7
33.75,216.3,204.8,182.1,198.2,200.4,14.3
34.5,216.0,205.7,185.2,197.5,201.1,13.0
35.25,221.9,209.1,184.9,195.5,202.8,16.1
36.0,213.6,209.4,187.4,195.4,201.4,12.1
36.75,221.0,210.8,191.8,195.9,204.9,13.5
37.5,222.7,208.5,192.5,195.2,204.7,13.8
38.25,217.1,220.2,195.6,195.9,207.2,13.3
39.0,225.1,222.6,201.0,196.0,211.2,14.8
39.75,230.7,233.3,198.8,192.5,213.8,21.1
40.5,229.9,238.7,197.5,192.9,214.7,23.0
41.25,234.9,242.7,200.9,195.2,218.4,23.9
42.0,240.7,252.8,203.0,201.1,224.4,26.3
42.75,241.5,257.8,209.9,194.2,225.9,29.0
43.5,247.0,257.0,210.6,196.5,227.8,28.9
44.25,248.5,267.4,212.5,199.9,232.1,31.3
45.0,247.2,271.2,216.4,205.4,235.1,29.9
45.75,247.9,271.8,221.0,205.3,236.5,29.4
46.5,252.4,281.0,219.3,211.1,241.0,32.1
47.25,247.4,275.6,223.9,,249.0,25.9
48.0,246.6,276.2,233.1,,252.0,22.0
48.75,243.6,273.3,228.0,,248.3,23.0
49.5,243.8,273.4,230.4,,249.2,22.0
50.25,244.0,266.0,233.5,,247.8,16.6
51.0,244.6,262.7,237.3,,248.2,13.1
51.75,244.3,257.0,234.2,,245.2,11.4
52.5,241.1,251.7,233.8,,242.2,9.0
53.25,240.2,250.3,226.6,,239.0,11.9
54.0,237.4,243.8,226.2,,235.8,8.9
54.75,234.1,242.1,224.3,,233.5,8.9
55.5,237.5,240.4,216.3,,231.4,13.2
56.25,235.6,237.8,215.5,,229.6,12.3
57.0,232.2,228.7,206.7,,222.5,13.8
57.75,229.2,226.5,202.9,,219.5,14.5
58.5,229.3,222.1,195.9,,215.8,17.6
59.25,220.8,220.2,192.5,,211.1,16.2
60.0,223.0,216.0,184.9,,208.0,20.3
60.75,220.7,214.7,182.1,,205.8,20.8
61.5,217.9,206.4,175.4,,199.9,22.0
62.25,216.3,208.4,170.2,,198.3,24.7
63.0,215.2,208.3,167.2,,196.9,26.0
63.75,204.1,206.7,164.8,,191.9,23.5
64.5,204.3,207.2,158.7,,190.1,27.2
65.25,200.7,207.8,159.8,,189.4,25.9
66.0,199.6,204.6,159.4,,187.9,24.8
66.75,196.4,208.0,157.3,,187.2,26.6
67.5,194.0,204.9,157.7,,185.5,24.7
68.25,192.8,201.7,154.6,,183.0,25.0
69.0,191.1,203.9,154.9,,183.3,25.4
69.75,192.1,203.2,153.0,,182.8,26.4
70.5,189.8,204.0,154.5,,182.8,25.5
71.25,186.7,208.6,156.5,,183.9,26.2
72.0,189.9,208.9,157.5,,185.4,26.0
72.75,188.8,209.3,159.2,,185.8,25.2
73.5,189.0,210.1,159.4,,186.2,25.5
74.25,189.7,207.5,163.1,,186.8,22.3
75.0,190.4,212.6,163.6,,188.8,24.5
75.75,190.3,210.1,166.8,,189.1,21.7
76.5,193.7,210.5,168.0,,190.7,21.4
77.25,195.0,209.6,171.3,,191.9,19.3
78.0,195.7,206.9,171.5,,191.3,18.0
78.75,198.6,207.0,172.1,,192.6,18.2
79.5,197.6,205.3,169.7,,190.9,18.7
80.25,202.6,203.0,174.2,,193.3,16.5
81.0,200.9,200.8,173.3,,191.7,15.9
81.75,202.2,196.8,174.4,,191.1,14.8
82.5,200.1,195.1,172.6,,189.3,14.7
83.25,200.1,195.1,170.8,,188.7,15.7
84.0,206.6,191.4,171.0,,189.7,17.9
84.75,199.1,188.8,170.8,,186.2,14.3
85.5,202.0,183.5,170.3,,185.3,15.9
86.25,198.3,179.0,165.9,,181.1,16.3
87.0,197.9,175.3,160.6,,177.9,18.8
87.75,195.4,171.3,157.3,,174.6,19.3
88.5,192.2,169.7,159.6,,173.8,16.7
89.25,192.9,166.0,155.1,,171.3,19.4
90.0,189.1,163.2,154.0,,168.8,18.2
90.75,186.6,158.7,152.0,,165.8,18.4
91.5,182.4,159.7,148.2,,163.4,17.4
92.25,178.7,155.0,146.2,,160.0,16.8
93.0,179.3,149.3,144.3,,157.6,18.9
93.75,174.8,149.5,139.5,,154.6,18.2
94.5,169.3,145.2,136.8,,150.4,16.9
95.25,169.3,139.6,134.7,,147.9,18.7
96.0,163.1,138.4,132.4,,144.7,16.3
96.75,160.0,136.1,131.5,,142.5,15.3
97.5,161.2,134.5,130.3,,142.0,16.8
98.25,154.4,129.6,124.5,,136.1,16.0
99.0,153.3,127.9,121.7,,134.3,16.7
99.75,150.9,125.5,116.8,,131.1,17.7
100.5,147.4,121.2,115.0,,127.9,17.2
101.25,144.0,120.4,112.9,,125.8,16.2
102.0,142.0,117.8,109.7,,123.2,16.8
102.75,140.8,116.0,107.0,,121.3,17.5
103.5,135.2,114.9,104.3,,118.1,15.7
104.25,131.4,112.1,102.4,,115.3,14.8
105.0,128.0,110.8,100.6,,113.1,13.8
105.75,126.5,108.1,97.7,,110.8,14.6
106.5,123.1,106.5,94.4,,108.0,14.4
107.25,120.5,104.1,93.6,,106.1,13.5
108.0,116.8,100.7,90.9,,102.8,13.1
108.75,115.2,98.7,88.6,,100.9,13.4
109.5,113.5,97.0,86.4,,99.0,13.7
110.25,112.1,95.4,86.4,,98.0,13.0
111.0,111.2,95.4,84.2,,96.9,13.6
111.75,108.4,94.2,83.1,,95.3,12.7
112.5,105.5,92.4,81.3,,93.1,12.1
113.25,104.9,89.7,79.5,,91.4,12.8
114.0,101.7,88.3,77.9,,89.3,12.0
114.75,100.5,87.8,76.1,,88.1,12.2
115.5,100.1,86.9,74.7,,87.3,12.7
116.25,96.0,84.3,74.1,,84.8,11.0
117.0,96.8,84.3,73.8,,85.0,11.5
117.75,94.5,83.8,73.3,,83.9,10.6
118.5,91.9,82.9,70.8,,81.9,10.6
119.25,91.5,82.6,70.5,,81.5,10.6
120.0,90.0,81.7,69.0,,80.2,10.6
120.75,89.8,79.9,66.8,,78.8,11.5
121.5,88.8,78.6,67.5,,78.3,10.6
122.25,87.5,77.8,66.6,,77.3,10.5
123.0,85.4,75.9,64.9,,75.4,10.3
123.75,85.0,76.2,65.5,,75.6,9.8
124.5,82.2,74.8,65.2,,74.1,8.5
125.25,81.9,73.1,63.3,,72.8,9.3
126.0,82.5,73.7,62.2,,72.8,10.2
126.75,81.2,72.3,62.0,,71.8,9.6
127.5,81.2,72.2,61.5,,71.6,9.8
128.25,79.6,71.4,61.5,,70.8,9.1
129.0,79.3,71.5,60.8,,70.5,9.3
129.75,78.2,69.4,59.8,,69.2,9.2
130.5,77.4,70.3,59.3,,69.0,9.1
131.25,76.2,70.7,58.8,,68.6,8.9
132.0,76.7,69.9,58.1,,68.2,9.4
132.75,76.6,68.6,57.5,,67.5,9.6
133.5,75.3,68.8,58.2,,67.4,8.7
134.25,74.3,67.7,56.7,,66.2,8.9
135.0,73.3,67.7,56.4,,65.8,8.6
135.75,72.3,67.6,57.6,,65.8,7.5
136.5,71.5,66.9,56.3,,64.9,7.8
137.25,72.1,65.7,55.8,,64.5,8.2
138.0,71.6,65.7,55.5,,64.2,8.1
138.75,69.4,65.5,54.8,,63.2,7.5
139.5,69.7,65.2,54.4,,63.1,7.9
140.25,69.5,64.0,55.3,,62.9,7.1
141.0,68.6,64.8,52.9,,62.1,8.2
141.75,67.8,63.9,52.8,,61.5,7.8
142.5,67.9,64.0,53.2,,61.7,7.6
143.25,66.1,63.9,53.1,,61.0,6.9
144.0,65.8,63.3,52.5,,60.5,7.1
144.75,66.1,64.1,52.2,,60.8,7.5
145.5,64.8,63.5,52.0,,60.1,7.0
146.25,63.1,62.1,51.5,,58.9,6.4
147.0,63.6,63.5,51.9,,59.7,6.7
147.75,63.0,63.7,51.9,,59.6,6.6
148.5,62.1,61.6,51.7,,58.5,5.9
149.25,61.4,63.0,51.2,,58.5,6.4
150.0,60.7,62.8,50.9,,58.1,6.4
150.75,60.3,61.5,50.6,,57.5,5.9
151.5,59.9,62.0,50.8,,57.6,6.0
152.25,58.7,61.0,49.6,,56.4,6.0
153.0,57.2,61.6,49.7,,56.2,6.0
153.75,57.2,60.5,49.1,,55.6,5.9
154.5,56.6,60.4,48.2,,55.1,6.2
155.25,56.4,60.4,48.5,,55.1,6.0
156.0,55.7,60.4,48.2,,54.8,6.1
156.75,54.5,59.4,48.0,,54.0,5.7
157.5,53.6,58.3,48.2,,53.4,5.1
158.25,53.3,57.4,47.7,,52.8,4.9
159.0,52.8,57.9,46.6,,52.4,5.7
159.75,52.8,57.8,47.1,,52.6,5.3
160.5,51.2,58.2,46.4,,52.0,5.9
161.25,50.8,57.1,45.9,,51.3,5.6
162.0,50.4,56.9,45.3,,50.9,5.8
162.75,49.3,56.5,45.2,,50.3,5.7
163.5,49.5,56.8,44.9,,50.4,6.0
164.25,49.3,55.8,45.5,,50.2,5.2
165.0,48.2,55.8,44.5,,49.5,5.8
165.75,48.6,56.4,44.8,,49.9,5.9
166.5,47.9,55.5,45.0,,49.5,5.4
167.25,47.1,55.0,44.2,,48.7,5.6
168.0,46.4,54.7,43.6,,48.2,5.8
168.75,45.4,54.8,43.8,,48.0,5.9
169.5,45.0,54.3,43.3,,47.5,5.9
170.25,44.4,53.9,43.7,,47.3,5.7
171.0,43.2,53.2,43.9,,46.8,5.5
171.75,42.6,53.4,43.0,,46.3,6.2
172.5,42.8,52.7,41.4,,45.6,6.2
173.25,41.8,52.9,42.1,,45.6,6.3
174.0,40.8,52.0,40.5,,44.4,6.6
174.75,41.2,51.5,40.8,,44.5,6.1
175.5,40.3,50.7,40.5,,43.8,6.0
176.25,39.9,50.2,40.9,,43.7,5.7
177.0,39.4,50.6,39.2,,43.1,6.5
177.75,38.6,49.0,39.6,,42.4,5.7
178.5,38.7,49.7,38.9,,42.4,6.3
179.25,38.4,49.0,39.0,,42.2,6.0
180.0,37.6,48.1,39.1,,41.6,5.7
180.75,37.0,47.9,39.2,,41.4,5.8
181.5,36.1,47.5,38.8,,40.8,5.9
182.25,36.2,46.8,38.7,,40.6,5.6
183.0,35.5,47.3,38.7,,40.5,6.1
183.75,35.9,46.9,37.9,,40.2,5.9
184.5,35.1,46.9,37.6,,39.9,6.2
185.25,34.9,46.7,37.6,,39.7,6.2
186.0,34.7,46.4,37.3,,39.5,6.1
186.75,34.8,45.8,36.8,,39.1,5.9
187.5,33.9,45.6,36.6,,38.7,6.1
188.25,33.1,45.0,36.3,,38.1,6.2
189.0,32.6,44.8,36.9,,38.1,6.2
189.75,32.3,45.5,36.7,,38.2,6.7
190.5,31.6,44.5,36.5,,37.5,6.5
191.25,31.3,43.8,36.1,,37.1,6.3
192.0,30.9,42.8,35.7,,36.5,6.0
192.75,30.2,43.1,35.5,,36.3,6.5
193.5,30.5,42.5,35.4,,36.2,6.0
194.25,29.9,42.2,34.8,,35.7,6.2
195.0,29.7,42.2,34.3,,35.4,6.3
195.75,29.3,41.4,33.5,,34.7,6.1
196.5,28.9,41.2,33.5,,34.5,6.2
197.25,28.6,41.2,33.1,,34.3,6.4
198.0,28.1,40.8,32.9,,34.0,6.4
198.75,27.7,40.6,33.0,,33.8,6.5
199.5,27.5,40.6,32.9,,33.7,6.6
200.25,27.4,39.3,32.8,,33.2,5.9
201.0,27.3,39.3,33.1,,33.2,6.0
201.75,27.7,38.7,32.2,,32.9,5.5
202.5,27.3,37.9,32.3,,32.5,5.3
203.25,27.3,38.2,32.7,,32.8,5.4
204.0,27.0,38.0,31.8,,32.3,5.5
204.75,26.9,37.5,32.0,,32.2,5.3
205.5,26.4,36.8,31.4,,31.6,5.2
206.25,26.7,37.1,31.7,,31.8,5.2
207.0,26.6,37.2,31.5,,31.8,5.3
207.75,26.3,36.9,30.9,,31.4,5.3
208.5,26.0,37.0,31.4,,31.5,5.5
209.25,26.5,36.3,30.3,,31.0,5.0
210.0,25.9,36.7,30.6,,31.1,5.4
210.75,26.2,36.0,31.0,,31.1,4.9
211.5,25.7,36.5,30.1,,30.8,5.4
212.25,25.4,36.4,29.8,,30.6,5.5
213.0,25.6,36.2,29.5,,30.4,5.4
213.75,24.9,36.2,29.2,,30.1,5.7
214.5,24.5,36.0,28.8,,29.8,5.8