Folder: fsri_materials_database/01_Data/Vinyl_Tile/Cone

Note: README.md
# Materials and Products Database
### Repository of materials and products properties and fire test data to improve fire modeling and fire investigation.

This project was supported in part by Award No. 2019-DU-BX-0018, awarded by the National Institute of Justice, Office of Justice Programs, U.S. Department of Justice. The opinions, findings, and conclusions or recommendations expressed in this publication / program / exhibition are those of the author(s) and do not necessarily reflect those of the Department of Justice.

***
***

__Cite this database:__ "McKinnon, M., Weinschenk, C., Dow, N., DiDomizio, M., and Madrzykowski, D. Materials and Products Database (Version 1.0.0), Fire Safety Research Institute, UL Research Institutes. Columbia, MD 21045, 2023."

__Cite the Technical Reference Guide:__ "McKinnon, M., Weinschenk, C., and Madrzykowski, D. Materials and Products Database - Technical Reference Guide, Fire Safety Research Institute, UL Research Institutes. Columbia, MD 21045, 2023."

__Cite the User Guide:__ "McKinnon, M., and Weinschenk, C. Materials and Products Database - User Guide, Fire Safety Research Institute, UL Research Institutes. Columbia, MD 21045, 2023."

***
***

## Database Structure

## 01_Data/
Raw data generated from each apparatus are included here in plain-text format. The data is organized first by material, next by the short name of test apparatus used, and where applicable additional filtering by test settings.

### Test Apparatus and Data File Structure
- __Cone Calorimeter__ (Cone)
    + Data file structure includes the material, the short name for the apparatus, heat flux setting and scan/scalar, date of test, and replicate number. Scan is for the raw output data and scalar is for the initial conditions and high-level test parameters. 
        * Example: __MDF_Cone_HF25scalar_210323_R1__ stands for the first replicate of scalar data generated from a medium density fiber board test in cone calorimeter exposed to 25 kW/m<sup>2</sup> on March 23, 2021.
    + A _Cone_Notes.csv_ is generated for each material from the __plot_Cone_data.py__ script. For materials whose experiments deviated from typical behavior relevant pictures are included in the respective material directory.
- __Fourier Transform Infrared Spectrometer__ (FTIR)
    + The FTIR directory contains subdirectories for the Attenuated Total Reflectance method (ATR) and the Integrating Sphere (IS)
    + Data file structure for the ATR experiment files includes the material, the abbreviated name for the apparatus, date of test, and replicate number. 
        * Example: __MDF_ATR_210323_R5__ stands for the fifth replicate of data collected with the ATR accessory conducted on June 8, 2021.
    + Data file structure for the IS experiment files includes the material, the abbreviated name for the apparatus, the measurand, whether the test is a sample measurement or standard reference, date of test, and replicate number.
        * Example: __OSB_IS_REFLECT_MEAS_2

File: Vinyl_Tile_HRRPUA_25.csv
Time after Ignition,Vinyl_Tile_R1,Vinyl_Tile_R2,Vinyl_Tile_R3,Vinyl_Tile_R4,Mean,Std. Dev.
0.0,2.8,0.9,1.2,6.5,2.8,2.6
1.0,5.1,4.3,5.2,11.2,6.4,3.2
2.0,9.8,8.2,9.6,16.5,11.0,3.7
3.0,14.6,11.3,14.3,21.3,15.3,4.2
4.0,17.6,14.3,19.3,27.6,19.7,5.7
5.0,19.5,18.7,25.0,34.3,24.4,7.2
6.0,20.8,21.9,31.3,40.0,28.5,9.0
7.0,21.0,24.8,37.1,43.3,31.6,10.4
8.0,21.4,29.4,42.0,48.0,35.2,12.0
9.0,22.6,33.3,45.5,52.1,38.4,13.1
10.0,26.6,36.3,49.4,56.0,42.1,13.2
11.0,30.3,39.5,52.6,59.7,45.5,13.1
12.0,33.9,41.5,55.2,63.6,48.6,13.3
13.0,37.7,44.4,59.7,66.7,52.1,13.4
14.0,41.2,47.5,60.8,70.7,55.1,13.3
15.0,45.2,51.0,64.6,72.0,58.2,12.3
16.0,48.5,54.8,67.2,74.8,61.4,11.9
17.0,51.8,56.7,69.0,76.3,63.4,11.2
18.0,56.4,60.1,72.9,77.0,66.6,9.9
19.0,59.0,63.2,75.8,77.1,68.8,9.0
20.0,62.0,65.4,79.6,75.7,70.7,8.3
21.0,64.6,68.5,81.7,74.8,72.4,7.5
22.0,67.9,70.9,85.5,73.6,74.5,7.7
23.0,69.9,75.2,86.6,69.5,75.3,8.0
24.0,73.9,77.8,90.6,67.4,77.4,9.8
25.0,77.2,80.1,91.5,65.1,78.5,10.8
26.0,79.6,83.2,92.9,63.4,79.8,12.3
27.0,80.8,84.2,96.3,61.0,80.6,14.7
28.0,81.6,86.8,97.1,59.5,81.2,15.8
29.0,84.2,88.4,97.5,58.5,82.1,16.7
30.0,83.9,92.7,99.6,56.3,83.1,19.0
31.0,86.1,95.5,101.9,55.9,84.8,20.4
32.0,87.3,95.7,101.4,55.7,85.0,20.4
33.0,88.7,98.3,102.9,55.3,86.3,21.5
34.0,88.0,101.4,105.8,55.0,87.6,23.0
35.0,88.1,102.9,107.7,55.2,88.5,23.7
36.0,89.1,101.3,108.6,55.8,88.7,23.4
37.0,90.3,104.1,110.3,55.8,90.1,24.3
38.0,90.9,105.4,111.5,56.4,91.1,24.7
39.0,87.7,105.5,111.2,57.5,90.5,24.2
40.0,87.7,108.0,112.9,59.6,92.1,24.2
41.0,85.9,108.5,111.0,,101.8,13.8
42.0,86.1,108.9,110.9,,102.0,13.8
43.0,85.6,107.3,109.8,,100.9,13.3
44.0,85.5,109.2,110.0,,101.6,13.9
45.0,85.0,108.6,109.9,,101.1,14.0
46.0,86.7,108.8,108.6,,101.4,12.7
47.0,86.1,109.1,107.8,,101.0,12.9
48.0,85.8,106.7,106.1,,99.5,11.9
49.0,86.0,105.4,107.8,,99.7,11.9
50.0,87.1,106.4,105.6,,99.7,10.9
51.0,86.9,105.7,106.6,,99.7,11.1
52.0,86.4,106.5,106.1,,99.7,11.5
53.0,88.0,105.9,107.6,,100.5,10.9
54.0,90.5,105.1,106.9,,100.9,9.0
55.0,92.0,106.7,105.8,,101.5,8.3
56.0,93.8,105.9,107.0,,102.2,7.3
57.0,93.9,105.8,106.4,,102.1,7.1
58.0,97.4,107.1,107.8,,104.1,5.8
59.0,94.0,108.9,108.2,,103.7,8.4
60.0,96.6,106.2,107.8,,103.5,6.1
61.0,95.7,106.2,109.2,,103.7,7.1
62.0,97.0,105.6,110.6,,104.4,6.9
63.0,94.8,107.3,111.1,,104.4,8.5
64.0,94.3,105.1,109.1,,102.9,7.6
65.0,94.0,104.9,109.8,,102.9,8.1
66.0,94.8,106.0,111.6,,104.1,8.6
67.0,92.9,106.3,109.6,,103.0,8.8
68.0,92.8,107.7,112.1,,104.2,10.1
69.0,91.6,104.7,112.1,,102.8,10.4
70.0,92.8,104.7,112.3,,103.3,9.8
71.0,92.4,105.2,113.1,,103.6,10.5
72.0,94.1,105.0,114.2,,104.4,10.1
73.0,93.4,103.9,112.8,,103.4,9.7
74.0,93.2,104.5,113.7,,103.8,10.3
75.0,93.9,105.8,112.7,,104.1,9.6
76.0,96.8,105.0,113.9,,105.2,8.6
77.0,94.3,104.2,114.3,,104.3,10.0
78.0,94.9,105.5,113.3,,104.6,9.2
79.0,97.7,107.8,113.1,,106.2,7.8
80.0,96.6,106.3,114.5,,105.8,9.0
81.0,98.6,105.4,113.6,,105.8,7.5
82.0,98.9,108.9,113.2,,107.0,7.3
83.0,99.7,110.0,111.2,,107.0,6.3
84.0,98.9,107.9,112.8,,106.5,7.0
85.0,100.5,108.5,112.4,,107.1,6.1
86.0,99.4,109.5,112.9,,107.3,7.0
87.0,100.1,110.3,113.6,,108.0,7.0
88.0,99.5,108.8,113.1,,107.1,7.0
89.0,102.8,110.0,113.3,,108.7,5.4
90.0,98.8,108.4,111.1,,106.1,6.5
91.0,100.5,109.6,113.9,,108.0,6.9
92.0,100.9,108.2,113.3,,107.5,6.3
93.0,101.0,108.9,112.7,,107.5,5.9
94.0,101.4,110.1,112.1,,107.9,5.7
95.0,101.3,110.1,111.8,,107.8,5.7
96.0,100.0,110.1,112.0,,107.4,6.5
97.0,101.9,111.2,110.0,,107.7,5.1
98.0,102.8,110.2,109.9,,107.6,4.2
99.0,103.1,109.3,108.4,,106.9,3.3
100.0,102.4,109.0,109.7,,107.1,4.0
101.0,102.0,108.6,110.8,,107.1,4.6
102.0,104.0,108.8,108.9,,107.3,2.8
103.0,103.3,108.0,109.3,,106.8,3.2
104.0,103.4,108.1,107.6,,106.4,2.6
105.0,104.5,106.0,106.1,,105.5,0.9
106.0,104.0,108.7,105.9,,106.2,2.4
107.0,104.3,107.1,103.4,,104.9,1.9
108.0,104.0,106.0,105.5,,105.2,1.1
109.0,104.3,106.9,103.4,,104.9,1.8
110.0,104.1,105.7,102.1,,104.0,1.8
111.0,105.1,102.8,99.8,,102.6,2.7
112.0,105.7,104.5,100.6,,103.6,2.7
113.0,105.4,102.8,99.2,,102.4,3.1
114.0,105.4,101.7,99.3,,102.1,3.1
115.0,104.3,103.1,96.6,,101.3,4.1
116.0,105.6,100.6,94.7,,100.3,5.5
117.0,104.3,101.1,93.8,,99.7,5.4
118.0,104.9,99.9,93.5,,99.4,5.7
119.0,102.3,98.6,92.7,,97.8,4.8
120.0,101.4,97.0,90.9,,96.4,5.2
121.0,102.5,97.3,90.7,,96.8,5.9
122.0,102.6,96.9,90.0,,96.5,6.3
123.0,100.9,95.8,88.9,,95.2,6.0
124.0,101.0,94.5,86.9,,94.1,7.1
125.0,100.1,91.8,86.3,,92.7,6.9
126.0,99.7,90.4,85.3,,91.8,7.3
127.0,100.2,90.7,84.4,,91.7,7.9
128.0,99.2,87.8,84.0,,90.4,7.9
129.0,99.4,89.1,82.2,,90.2,8.6
130.0,99.4,87.3,81.4,,89.4,9.1
131.0,97.3,89.3,81.8,,89.5,7.7
132.0,97.2,87.3,80.0,,88.1,8.6
133.0,96.5,88.3,78.6,,87.8,8.9
134.0,99.9,87.4,76.1,,87.8,11.9
135.0,96.5,85.8,76.2,,86.2,10.2
136.0,96.8,85.6,76.2,,86.2,10.3
137.0,96.6,85.4,74.5,,85.5,11.1
138.0,96.5,83.9,72.8,,84.4,11.9
139.0,97.4,83.9,72.8,,84.7,12.3
140.0,96.7,80.6,70.9,,82.8,13.0
141.0,95.2,80.2,70.0,,81.8,12.7
142.0,95.3,78.9,67.6,,80.6,13.9
143.0,95.5,78.7,68.0,,80.7,13.8
144.0,94.1,78.0,66.9,,79.7,13.7
145.0,93.6,74.5,66.3,,78.1,14.0
146.0,93.6,75.9,65.7,,78.4,14.1
147.0,93.2,73.4,64.2,,77.0,14.8
148.0,95.4,73.9,63.5,,77.6,16.3
149.0,93.6,72.5,61.7,,76.0,16.2
150.0,93.7,73.1,61.5,,76.1,16.3
151.0,93.2,70.9,60.5,,74.9,16.7
152.0,93.9,70.6,59.8,,74.8,17.4
153.0,92.1,69.5,58.7,,73.4,17.1
154.0,91.6,69.3,58.7,,73.2,16.8
155.0,90.1,68.9,58.7,,72.6,16.0
156.0,88.6,67.6,57.2,,71.1,16.0
157.0,88.1,68.2,56.3,,70.9,16.1
158.0,87.4,67.1,55.5,,70.0,16.1
159.0,88.7,67.4,54.9,,70.4,17.1
160.0,85.9,65.7,53.8,,68.4,16.2
161.0,84.9,66.3,52.6,,67.9,16.2
162.0,83.7,65.1,52.3,,67.0,15.8
163.0,82.4,62.6,51.3,,65.4,15.7
164.0,84.4,63.0,50.5,,66.0,17.1
165.0,82.0,62.1,49.8,,64.6,16.3
166.0,82.2,62.6,48.6,,64.5,16.9
167.0,81.8,61.5,47.4,,63.6,17.3
168.0,80.8,61.4,46.3,,62.8,17.3
169.0,79.3,61.4,46.2,,62.3,16.6
170.0,80.1,59.8,45.3,,61.8,17.5
171.0,79.5,60.6,44.7,,61.6,17.5
172.0,78.3,59.8,44.6,,60.9,16.9
173.0,79.1,59.1,42.8,,60.3,18.2
174.0,78.7,60.0,42.8,,60.5,17.9
175.0,77.7,57.5,40.8,,58.7,18.5
176.0,76.9,57.7,40.6,,58.4,18.2
177.0,75.3,57.4,39.8,,57.5,17.8
178.0,74.4,57.5,39.3,,57.1,17.6
179.0,72.7,57.6,39.0,,56.4,16.9
180.0,72.8,55.9,39.4,,56.0,16.7
181.0,72.3,55.8,39.1,,55.7,16.6
182.0,71.0,54.6,38.0,,54.5,16.5
183.0,70.5,55.5,37.5,,54.5,16.5
184.0,69.9,54.9,37.2,,54.0,16.4
185.0,68.6,55.9,37.4,,54.0,15.7
186.0,68.7,55.4,37.3,,53.8,15.8
187.0,68.1,54.2,35.9,,52.7,16.1
188.0,67.8,53.6,35.1,,52.1,16.4
189.0,66.0,53.3,34.4,,51.2,15.9
190.0,65.9,52.5,33.3,,50.6,16.4
191.0,65.8,52.0,32.6,,50.1,16.7
192.0,66.6,52.3,31.8,,50.2,17.5
193.0,64.4,50.8,31.9,,49.0,16.3
194.0,62.3,49.5,31.7,,47.8,15.4
195.0,63.8,49.2,30.3,,47.8,16.8
196.0,63.1,49.2,30.3,,47.5,16.5
197.0,61.4,47.9,29.4,,46.2,16.1
198.0,62.4,47.5,29.0,,46.3,16.7
199.0,60.8,46.5,27.9,,45.1,16.5
200.0,59.1,45.4,27.6,,44.0,15.8
201.0,58.5,45.2,27.0,,43.5,15.8
202.0,58.9,45.3,26.8,,43.7,16.1
203.0,57.8,44.2,26.3,,42.8,15.8
204.0,55.7,42.9,25.8,,41.5,15.0
205.0,57.0,42.9,25.7,,41.9,15.6
206.0,54.6,42.3,25.8,,40.9,14.4
207.0,55.0,41.9,24.5,,40.5,15.3
208.0,53.9,42.1,23.5,,39.9,15.3
209.0,53.7,41.8,22.2,,39.2,15.9
210.0,52.8,41.1,21.6,,38.5,15.8
211.0,52.4,42.0,20.7,,38.4,16.1
212.0,51.8,41.2,19.8,,37.6,16.3
213.0,50.2,40.7,19.2,,36.7,15.9
214.0,49.2,40.3,18.4,,36.0,15.9
215.0,48.8,39.3,18.2,,35.4,15.6
216.0,47.5,38.5,,,43.0,6.3
217.0,47.0,37.8,,,42.4,6.5
218.0,45.4,36.9,,,41.2,6.0
219.0,45.2,36.3,,,40.7,6.3
220.0,44.8,35.1,,,40.0,6.8
221.0,44.8,35.2,,,40.0,6.8
222.0,44.2,34.7,,,39.5,6.7
223.0,43.4,34.3,,,38.9,6.5
224.0,43.7,33.4,,,38.5,7.3
225.0,42.5,33.0,,,37.8,6.7
226.0,41.7,32.5,,,37.1,6.6
227.0,40.6,31.7,,,36.2,6.3
228.0,39.9,30.6,,,35.3,6.6
229.0,39.4,29.2,,,34.3,7.2
230.0,37.5,28.3,,,32.9,6.5
231.0,37.5,27.6,,,32.6,7.0
232.0,36.6,26.7,,,31.6,7.0
233.0,35.5,26.1,,,30.8,6.6
234.0,35.2,25.0,,,30.1,7.3
235.0,33.8,24.7,,,29.3,6.5
236.0,33.2,24.2,,,28.7,6.4
237.0,30.1,23.9,,,27.0,4.4
238.0,27.2,23.1,,,25.2,2.9
239.0,25.6,22.7,,,24.1,2.1
240.0,24.4,21.7,,,23.1,1.9
241.0,23.5,20.4,,,21.9,2.2
242.0,23.4,19.4,,,21.4,2.9
243.0,22.8,17.9,,,20.3,3.4
244.0,22.4,17.0,,,19.7,3.8
245.0,21.8,16.2,,,19.0,3.9
246.0,21.2,15.8,,,18.5,3.8
247.0,21.1,,,,21.1,

File: Vinyl_Tile_HRRPUA_50.csv
Time after Ignition,Vinyl_Tile_R1,Vinyl_Tile_R2,Vinyl_Tile_R3,Vinyl_Tile_R4,Mean,Std. Dev.
0.0,13.0,9.2,10.6,11.0,11.0,1.6
1.25,24.8,19.7,22.0,18.9,21.4,2.7
2.5,41.4,33.7,35.1,33.4,35.9,3.7
3.75,59.3,47.9,49.3,54.1,52.7,5.2
5.0,75.1,61.2,60.4,71.9,67.1,7.4
6.25,87.8,76.7,70.1,86.6,80.3,8.4
7.5,97.0,90.9,79.1,97.0,91.0,8.4
8.75,105.9,101.4,88.2,104.5,100.0,8.1
10.0,114.5,109.9,96.5,112.4,108.3,8.1
11.25,123.8,114.7,105.4,117.0,115.2,7.6
12.5,128.4,122.6,113.0,116.7,120.2,6.8
13.75,132.3,127.4,117.6,118.7,124.0,7.1
15.0,132.8,134.1,124.7,120.7,128.1,6.4
16.25,135.9,142.6,128.4,131.1,134.5,6.2
17.5,141.6,147.6,135.4,145.3,142.5,5.3
18.75,144.7,148.5,139.5,155.9,147.1,6.9
20.0,148.3,153.7,140.8,163.3,151.5,9.5
21.25,150.5,156.4,142.1,165.6,153.6,9.9
22.5,155.6,158.7,142.5,171.6,157.1,12.0
23.75,156.4,161.4,143.1,170.3,157.8,11.3
25.0,162.9,160.7,144.4,174.5,160.6,12.4
26.25,164.5,161.4,141.0,174.1,160.2,13.9
27.5,164.7,159.2,140.7,172.7,159.3,13.6
28.75,169.4,161.7,138.7,175.0,161.2,16.0
30.0,171.2,159.8,138.3,176.6,161.5,17.0
31.25,171.5,162.5,139.7,175.0,162.2,15.9
32.5,173.2,161.0,141.2,173.8,162.3,15.3
33.75,170.3,165.1,140.9,169.6,161.5,13.9
35.0,174.2,165.3,141.2,162.7,160.9,14.0
36.25,172.6,166.6,146.5,164.9,162.7,11.2
37.5,174.3,170.0,145.7,164.1,163.5,12.6
38.75,176.9,172.8,148.8,165.4,166.0,12.4
40.0,175.4,181.8,149.9,164.7,167.9,13.9
41.25,182.2,183.5,153.5,167.1,171.5,14.2
42.5,184.4,190.7,158.7,167.9,175.4,14.7
43.75,186.8,196.8,161.9,172.3,179.4,15.4
45.0,186.1,197.4,168.4,175.3,181.8,12.7
46.25,195.6,201.6,170.0,181.3,187.1,14.2
47.5,195.3,207.1,176.7,186.2,191.3,13.0
48.75,200.6,206.7,180.3,190.9,194.6,11.6
50.0,201.8,209.6,180.1,195.2,196.7,12.5
51.25,204.3,209.9,179.8,199.1,198.3,13.1
52.5,208.3,211.4,177.6,202.5,200.0,15.3
53.75,208.7,210.3,176.9,206.1,200.5,15.8
55.0,206.2,208.3,173.0,203.8,197.9,16.6
56.25,204.2,203.6,169.4,207.4,196.2,17.9
57.5,204.6,199.8,164.6,205.4,193.6,19.5
58.75,202.1,193.3,154.6,204.8,188.7,23.3
60.0,204.1,189.3,156.6,199.3,187.3,21.4
61.25,197.7,185.4,151.8,198.4,183.3,21.8
62.5,193.2,180.2,145.8,195.4,178.6,22.9
63.75,190.1,177.2,143.1,,170.2,24.3
65.0,185.8,171.5,140.1,,165.8,23.4
66.25,179.5,168.3,136.2,,161.3,22.5
67.5,172.8,166.4,135.8,,158.4,19.8
68.75,167.5,162.1,134.2,,154.6,17.9
70.0,165.5,164.1,133.5,,154.4,18.1
71.25,165.2,160.9,133.6,,153.2,17.1
72.5,163.2,161.5,134.9,,153.2,15.8
73.75,159.0,158.7,132.9,,150.2,15.0
75.0,156.9,158.8,135.4,,150.3,13.0
76.25,152.0,159.1,133.9,,148.3,13.0
77.5,152.4,159.4,130.9,,147.6,14.8
78.75,152.7,157.8,132.5,,147.6,13.4
80.0,153.4,157.0,133.4,,148.0,12.7
81.25,152.0,156.5,135.0,,147.8,11.4
82.5,156.2,160.1,138.6,,151.6,11.5
83.75,152.7,160.2,140.0,,151.0,10.2
85.0,156.2,160.3,139.2,,151.9,11.2
86.25,156.2,164.1,141.7,,154.0,11.4
87.5,156.6,164.2,142.4,,154.4,11.1
88.75,158.1,165.7,146.1,,156.6,9.9
90.0,159.5,168.3,145.6,,157.8,11.5
91.25,160.3,168.7,144.5,,157.8,12.3
92.5,158.0,168.2,143.6,,156.6,12.4
93.75,157.6,167.4,143.3,,156.1,12.1
95.0,156.6,169.6,140.0,,155.4,14.8
96.25,157.5,170.1,141.6,,156.4,14.2
97.5,157.9,171.7,139.2,,156.3,16.3
98.75,155.5,169.9,138.0,,154.5,16.0
100.0,155.2,166.9,134.8,,152.3,16.3
101.25,151.8,164.8,135.4,,150.7,14.8
102.5,152.7,165.0,132.2,,150.0,16.5
103.75,152.4,161.7,129.7,,147.9,16.5
105.0,150.2,157.5,128.9,,145.5,14.8
106.25,149.4,154.2,125.5,,143.0,15.3
107.5,147.9,151.4,122.4,,140.6,15.9
108.75,147.7,150.1,119.3,,139.0,17.1
110.0,146.2,147.8,118.1,,137.4,16.7
111.25,141.2,142.9,116.3,,133.5,14.9
112.5,140.2,138.4,113.7,,130.8,14.8
113.75,136.5,135.0,112.1,,127.9,13.7
115.0,135.2,132.3,108.1,,125.2,14.9
116.25,131.6,127.8,105.4,,121.6,14.2
117.5,129.4,125.3,102.6,,119.1,14.4
118.75,126.5,120.9,101.8,,116.4,13.0
120.0,125.1,118.2,99.8,,114.4,13.1
121.25,120.8,116.1,99.9,,112.3,11.0
122.5,115.7,112.4,95.7,,107.9,10.7
123.75,113.9,107.8,92.8,,104.8,10.9
125.0,111.9,105.4,91.8,,103.0,10.3
126.25,108.6,102.8,89.5,,100.3,9.8
127.5,104.8,101.4,85.7,,97.3,10.2
128.75,102.6,97.1,84.4,,94.7,9.4
130.0,96.9,95.8,82.7,,91.8,7.9
131.25,93.6,93.6,80.2,,89.1,7.7
132.5,90.6,89.8,79.7,,86.7,6.1
133.75,88.5,87.9,75.9,,84.1,7.1
135.0,87.4,84.2,73.6,,81.7,7.2
136.25,85.8,82.5,71.7,,80.0,7.4
137.5,84.2,81.4,68.7,,78.1,8.3
138.75,82.5,79.3,68.4,,76.7,7.4
140.0,81.5,77.9,66.7,,75.4,7.7
141.25,79.3,77.3,65.1,,73.9,7.7
142.5,76.9,73.1,65.0,,71.7,6.1
143.75,75.1,71.9,63.3,,70.1,6.1
145.0,74.4,70.9,61.5,,68.9,6.7
146.25,73.3,69.5,60.2,,67.7,6.7
147.5,71.3,68.6,58.4,,66.1,6.8
148.75,70.4,66.5,57.2,,64.7,6.8
150.0,69.2,66.4,55.3,,63.6,7.3
151.25,67.8,62.9,53.1,,61.3,7.5
152.5,67.1,62.6,52.5,,60.7,7.5
153.75,65.1,61.3,52.0,,59.5,6.7
155.0,63.6,59.9,50.8,,58.1,6.5
156.25,62.2,59.4,49.7,,57.1,6.5
157.5,59.8,58.3,49.0,,55.7,5.8
158.75,57.9,58.2,47.8,,54.6,5.9
160.0,57.5,57.4,47.5,,54.1,5.7
161.25,56.8,56.3,47.6,,53.6,5.2
162.5,54.9,55.4,46.3,,52.2,5.1
163.75,54.0,54.8,46.0,,51.6,4.9
165.0,53.0,54.0,45.3,,50.8,4.7
166.25,51.3,53.2,44.8,,49.8,4.4
167.5,50.9,54.1,43.7,,49.5,5.3
168.75,50.5,52.9,43.1,,48.9,5.1
170.0,50.6,52.7,42.4,,48.6,5.5
171.25,49.9,52.7,41.9,,48.2,5.6
172.5,48.6,52.5,41.7,,47.6,5.5
173.75,48.8,51.7,41.6,,47.4,5.2
175.0,47.8,52.4,42.0,,47.4,5.2
176.25,47.9,51.7,41.0,,46.8,5.4
177.5,47.4,52.3,40.3,,46.7,6.0
178.75,46.7,50.8,40.3,,45.9,5.3
180.0,47.2,51.3,39.1,,45.8,6.2
181.25,47.1,50.8,38.7,,45.5,6.2
182.5,47.2,51.4,38.1,,45.5,6.8
183.75,47.1,50.9,38.1,,45.4,6.6
185.0,47.4,50.3,38.6,,45.4,6.1
186.25,46.6,49.9,37.8,,44.8,6.2
187.5,45.5,49.8,37.5,,44.3,6.2
188.75,45.3,49.9,38.2,,44.5,5.9
190.0,45.4,50.4,37.7,,44.5,6.4
191.25,43.9,50.5,36.9,,43.7,6.8
192.5,44.0,49.9,36.6,,43.5,6.7
193.75,42.9,48.6,37.0,,42.8,5.8
195.0,42.4,49.5,36.9,,43.0,6.3
196.25,42.4,49.3,36.7,,42.8,6.3
197.5,42.3,49.0,37.2,,42.8,5.9
198.75,43.1,48.3,36.4,,42.6,6.0
200.0,41.8,48.5,36.5,,42.2,6.0
201.25,42.1,48.5,36.0,,42.2,6.3
202.5,41.5,48.1,36.3,,42.0,5.9
203.75,42.1,46.6,36.6,,41.8,5.0
205.0,40.9,46.4,37.1,,41.5,4.7
206.25,41.4,47.9,38.7,,42.7,4.7
207.5,41.2,47.7,39.0,,42.6,4.5
208.75,40.8,47.7,39.5,,42.7,4.4
210.0,40.1,48.6,39.6,,42.8,5.1
211.25,39.9,49.5,39.4,,43.0,5.7
212.5,39.8,48.7,39.9,,42.8,5.1
213.75,39.0,48.5,38.8,,42.1,5.6
215.0,38.6,48.3,37.7,,41.5,5.9
216.25,39.0,49.4,37.0,,41.8,6.7
217.5,38.2,49.2,36.6,,41.3,6.8
218.75,38.3,48.1,36.1,,40.8,6.4
220.0,38.6,48.0,36.2,,40.9,6.2
221.25,37.4,47.1,35.6,,40.1,6.2
222.5,37.5,47.1,34.3,,39.6,6.6
223.75,37.6,47.3,34.5,,39.8,6.7
225.0,37.0,46.7,34.2,,39.3,6.6
226.25,36.4,46.5,33.7,,38.9,6.7
227.5,36.6,47.2,34.2,,39.3,6.9
228.75,36.9,46.6,33.1,,38.9,7.0
230.0,36.2,45.7,33.5,,38.5,6.4
231.25,36.4,44.3,33.3,,38.0,5.7
232.5,35.2,45.0,32.7,,37.6,6.5
233.75,35.2,44.1,32.3,,37.2,6.2
235.0,34.6,43.9,33.1,,37.2,5.8
236.25,34.7,43.4,32.9,,37.0,5.6
237.5,34.4,43.5,32.9,,36.9,5.7
238.75,33.5,43.0,32.3,,36.3,5.9
240.0,33.5,43.5,32.0,,36.3,6.3
241.25,33.0,43.0,32.1,,36.1,6.0
242.5,33.6,42.3,32.4,,36.1,5.4
243.75,33.4,42.4,31.9,,35.9,5.7
245.0,33.3,41.9,32.2,,35.8,5.3
246.25,34.3,41.8,32.5,,36.2,5.0
247.5,34.0,42.4,32.3,,36.2,5.4
248.75,33.8,41.8,32.1,,35.9,5.2
250.0,34.3,41.3,31.8,,35.8,4.9
251.25,34.2,41.1,31.9,,35.8,4.8
252.5,33.6,40.8,32.1,,35.5,4.7
253.75,33.2,41.7,31.8,,35.6,5.3
255.0,32.3,41.5,31.8,,35.2,5.4
256.25,31.6,40.2,31.1,,34.3,5.1
257.5,30.7,39.5,30.9,,33.7,5.0
258.75,30.6,38.8,31.1,,33.5,4.6
260.0,30.3,38.9,30.4,,33.2,4.9
261.25,30.0,38.4,29.8,,32.7,4.9
262.5,30.1,38.6,29.9,,32.9,5.0
263.75,29.6,37.8,29.3,,32.2,4.8
265.0,29.9,37.2,28.5,,31.9,4.6
266.25,30.2,36.3,28.3,,31.6,4.2
267.5,31.4,35.6,27.7,,31.6,4.0
268.75,31.8,35.8,27.6,,31.8,4.1
270.0,31.8,34.9,27.4,,31.3,3.8
271.25,31.8,35.3,27.6,,31.6,3.9
272.5,31.7,34.3,26.9,,31.0,3.7
273.75,30.9,34.5,26.8,,30.8,3.8
275.0,29.4,34.1,26.2,,29.9,4.0
276.25,27.6,34.2,26.1,,29.3,4.3
277.5,25.9,33.8,25.9,,28.5,4.6
278.75,24.9,33.6,25.9,,28.1,4.7
280.0,24.0,32.8,24.7,,27.2,4.9
281.25,23.2,32.8,24.8,,27.0,5.2
282.5,22.7,32.3,25.1,,26.7,5.0
283.75,22.5,31.8,25.1,,26.5,4.8
285.0,22.5,31.2,24.6,,26.1,4.6
286.25,22.2,30.5,24.4,,25.7,4.3
287.5,22.2,29.9,24.4,,25.5,4.0
288.75,22.7,29.9,23.9,,25.5,3.9
290.0,22.7,29.3,24.3,,25.5,3.4
291.25,22.8,29.1,23.6,,25.2,3.4
292.5,22.5,28.3,23.1,,24.6,3.2
293.75,22.2,28.3,23.0,,24.5,3.3
295.0,21.9,28.7,22.9,,24.5,3.7
296.25,21.9,28.4,22.5,,24.3,3.6
297.5,22.0,28.4,22.4,,24.3,3.6
298.75,22.1,27.6,21.8,,23.8,3.3
300.0,22.2,27.3,21.9,,23.8,3.1
301.25,22.5,26.4,21.6,,23.5,2.6
302.5,22.8,26.1,21.6,,23.5,2.3
303.75,22.1,25.4,22.2,,23.2,1.9
305.0,21.3,24.9,21.9,,22.7,1.9
306.25,20.9,24.4,21.6,,22.3,1.8
307.5,20.3,23.4,22.1,,21.9,1.6
308.75,19.7,23.2,21.7,,21.5,1.8
310.0,19.6,,22.1,,20.9,1.7
311.25,19.0,,22.0,,20.5,2.1
312.5,18.7,,22.0,,20.3,2.4
313.75,18.3,,21.9,,20.1,2.5
315.0,17.9,,21.3,,19.6,2.4
316.25,17.4,,21.3,,19.3,2.8
317.5,17.1,,20.9,,19.0,2.7
318.75,17.0,,20.2,,18.6,2.3
320.0,16.7,,19.9,,18.3,2.3
321.25,16.5,,20.0,,18.3,2.5
322.5,16.5,,20.2,,18.4,2.6
323.75,16.7,,20.4,,18.6,2.6
325.0,16.8,,20.6,,18.7,2.7
326.25,16.6,,21.0,,18.8,3.1
327.5,17.1,,21.0,,19.0,2.8
328.75,17.2,,21.3,,19.3,2.9
330.0,17.0,,21.1,,19.0,3.0
331.25,16.6,,21.2,,18.9,3.2
332.5,16.8,,21.2,,19.0,3.1
333.75,16.7,,20.8,,18.7,2.9
335.0,16.7,,20.4,,18.5,2.6
336.25,16.5,,19.6,,18.0,2.2
337.5,16.3,,19.1,,17.7,2.0
338.75,16.4,,19.1,,17.8,1.9
340.0,16.5,,18.8,,17.6,1.6
341.25,16.4,,18.4,,17.4,1.5
341.5,16.4,,18.9,,17.6,1.8