Folder: fsri_materials_database/01_Data/ABS/STA/N2/10K_min (part 2)

File: ABS_STA_N2_10KData_211018_R3.csv
##Temp./Â°C,Time/min,Mass loss(subtr.2)/mg,DSC(subtr.2)/(mW/mg),Sensit./(uV/mW)
50.197,10.01,0.01052,0.01315926,1.03582
52.797,12.36817,0.007910371,0.07781356,1.03568
55.397,13.06798,0.008670052,0.11028,1.03551
57.997,13.6241,0.01054608,0.13163,1.03532
60.597,14.11065,0.008932158,0.14712,1.03509
63.197,14.5533,0.009974676,0.16245,1.03483
65.797,14.9636,0.00776785,0.17933,1.03455
68.397,15.3499,0.01150581,0.18926,1.03423
70.997,15.7147,0.009416165,0.20295,1.03389
73.597,16.06448,0.01040063,0.21533,1.03352
76.197,16.4008,0.01480986,0.2261,1.03312
78.797,16.7258,0.01136131,0.2339,1.03269
81.397,17.0405,0.005659865,0.24008,1.03224
83.997,17.34846,0.01416789,0.24331,1.03176
86.597,17.64763,0.01345728,0.24347,1.03125
89.197,17.9404,0.01042475,0.24717,1.03071
91.797,18.22748,0.01288385,0.25146,1.03015
94.397,18.50936,0.01194962,0.25797,1.02956
96.997,18.78601,0.01250349,0.26817,1.02894
99.597,19.05973,0.01274851,0.27707,1.0283
102.197,19.32987,0.00865328,0.2854,1.02763
104.797,19.5965,0.01193995,0.29649,1.02693
107.397,19.86214,0.01584945,0.30949,1.02621
109.997,20.12519,0.01176557,0.32494,1.02546
112.597,20.38502,0.01005715,0.3402,1.02469
115.197,20.64515,0.01381901,0.34744,1.02389
117.797,20.90254,0.01084715,0.35595,1.02307
120.397,21.15789,0.01088188,0.35851,1.02222
122.997,21.4119,0.01681678,0.36681,1.02135
125.597,21.66349,0.01016619,0.37147,1.02045
128.197,21.91384,0.01239861,0.37841,1.01953
130.797,22.16231,0.01039777,0.38495,1.01859
133.397,22.40908,0.01291416,0.386,1.01762
135.997,22.6545,0.01076662,0.37941,1.01663
138.597,22.89844,0.01381262,0.3809,1.01561
141.197,23.14091,0.01118994,0.38005,1.01457
143.797,23.38266,0.01250317,0.38298,1.01351
146.397,23.6227,0.01250016,0.38664,1.01242
148.997,23.863,0.01251302,0.393,1.01132
151.597,24.1016,0.01165913,0.39443,1.01019
154.197,24.34026,0.009429625,0.39626,1.00904
156.797,24.57786,0.00976011,0.39882,1.00786
159.397,24.81598,0.01041671,0.40177,1.00667
161.997,25.0536,0.01108085,0.40477,1.00545
164.597,25.28967,0.009100162,0.40622,1.00421
167.197,25.52681,0.008052754,0.40715,1.00295
169.797,25.76359,0.00779454,0.41188,1.00167
172.397,25.9996,0.01413921,0.41312,1.00037
174.997,26.2359,0.01236911,0.41394,0.99905
177.597,26.4717,0.007605827,0.41533,0.99771
180.197,26.70555,0.005699999,0.41808,0.99634
182.797,26.94097,0.00628026,0.42192,0.99496
185.397,27.1751,0.00962873,0.42342,0.99356
187.997,27.40875,0.008116036,0.42391,0.99214
190.597,27.6421,0.01052443,0.42472,0.9907
193.197,27.87517,0.006492241,0.42771,0.98925
195.797,28.10828,0.001353988,0.42749,0.98777
198.397,28.3409,0.008230012,0.43196,0.98628
200.997,28.57385,0.004933489,0.43369,0.98476
203.597,28.8061,0.004229245,0.4372,0.98323
206.197,29.03908,0.006589554,0.43429,0.98168
208.797,29.27133,0.00592,0.43743,0.98012
211.397,29.50484,0.005750394,0.44109,0.97853
213.997,29.7378,0.00317785,0.44288,0.97693
216.597,29.9707,0.001050981,0.44467,0.97532
219.197,30.2035,-0.001891998,0.44708,0.97368
221.797,30.43627,0.0044119,0.44734,0.97204
224.397,30.6696,0.006213045,0.44871,0.97037
226.997,30.90275,-0.001365706,0.45206,0.96869
229.597,31.1357,-0.004271604,0.45402,0.96699
232.197,31.36911,2.560554e-05,0.45558,0.96528
234.797,31.60231,0.0009010525,0.45825,0.96355
237.397,31.83551,-0.00110001,0.45878,0.96181
239.997,32.06907,-0.00373982,0.45851,0.96005
242.597,32.30226,-0.007762523,0.45838,0.95828
245.197,32.5358,-0.002969102,0.46085,0.9565
247.797,32.7695,-0.00653521,0.45969,0.9547
250.397,33.00334,-0.007719295,0.45959,0.95288
252.997,33.23746,-0.008566083,0.46054,0.95106
255.597,33.472,-0.01038623,0.46067,0.94922
258.197,33.70646,-0.01491821,0.46296,0.94736
260.797,33.9405,-0.01055846,0.46127,0.9455
263.397,34.17523,-0.01043921,0.46243,0.94362
265.997,34.4095,-0.01857133,0.46122,0.94173
268.597,34.6435,-0.01798976,0.46267,0.93983
271.197,34.87895,-0.01722661,0.46084,0.93791
273.797,35.11391,-0.02472764,0.45986,0.93599
276.397,35.34903,-0.02795516,0.45847,0.93405
278.997,35.5846,-0.03129643,0.45382,0.9321
281.597,35.82038,-0.0333704,0.45028,0.93014
284.197,36.05618,-0.02931847,0.44539,0.92817
286.797,36.29201,-0.03315043,0.44401,0.92619
289.397,36.52817,-0.03591695,0.43804,0.9242
291.997,36.76481,-0.03637074,0.43307,0.9222
294.597,37.00137,-0.0377702,0.42512,0.92019
297.197,37.23815,-0.04167218,0.41793,0.91817
299.797,37.47525,-0.04431,0.40906,0.91614
302.397,37.7126,-0.04431964,0.40157,0.9141
304.997,37.9499,-0.04814996,0.39542,0.91205
307.597,38.18783,-0.04815039,0.38369,0.91
310.197,38.42505,-0.05068059,0.37294,0.90793
312.797,38.66361,-0.05229677,0.36425,0.90586
315.397,38.9019,-0.05580803,0.35373,0.90378
317.997,39.14073,-0.05462988,0.34643,0.90169
320.597,39.37924,-0.05765424,0.3373,0.8996
323.197,39.61808,-0.06131688,0.32581,0.8975
325.797,39.85641,-0.06096485,0.3179,0.89539
328.397,40.09507,-0.06509582,0.30785,0.89327
330.997,40.33385,-0.06515714,0.29733,0.89115
333.597,40.5732,-0.07042049,0.28354,0.88902
336.197,40.81329,-0.07172316,0.27304,0.88688
338.797,41.0535,-0.07568935,0.25651,0.88474
341.397,41.29327,-0.07831789,0.24641,0.88259
343.997,41.53414,-0.07810042,0.23325,0.88044
346.597,41.77369,-0.08675885,0.22268,0.87828
349.197,42.0155,-0.08907591,0.21028,0.87612
351.797,42.25687,-0.08934931,0.19261,0.87395
354.397,42.49832,-0.09904442,0.1888,0.87178
356.997,42.74035,-0.11712,0.187,0.8696
359.597,42.98285,-0.10845,0.17675,0.86742
362.197,43.22534,-0.11322,0.17175,0.86523
364.797,43.46799,-0.12302,0.17662,0.86304
367.397,43.71053,-0.14503,0.18511,0.86085
369.997,43.95347,-0.15516,0.20234,0.85865
372.597,44.1959,-0.15749,0.21879,0.85645
375.197,44.44,-0.16398,0.24444,0.85425
377.797,44.68416,-0.18727,0.28198,0.85204
380.397,44.92828,-0.20127,0.32852,0.84983
382.997,45.17306,-0.22002,0.38642,0.84762
385.597,45.41747,-0.24039,0.45396,0.84541
388.197,45.66343,-0.27154,0.53371,0.8432
390.797,45.90854,-0.29997,0.62229,0.84098
393.397,46.1539,-0.33256,0.72828,0.83876
395.997,46.40063,-0.37137,0.84569,0.83654
398.597,46.64696,-0.42045,0.97812,0.83432
401.197,46.8936,-0.47083,1.12244,0.8321
403.797,47.14056,-0.53165,1.28441,0.82987
406.397,47.38777,-0.60208,1.4625,0.82765
408.997,47.63556,-0.68316,1.66219,0.82543
411.597,47.88369,-0.77561,1.87692,0.8232
414.197,48.13283,-0.88854,2.10364,0.82098
416.797,48.38162,-1.01347,2.33718,0.81875
419.397,48.63043,-1.15576,2.56471,0.81653
421.997,48.88093,-1.3151,2.76758,0.8143
424.597,49.12973,-1.48865,2.91973,0.81208
427.197,49.3795,-1.67407,3.01974,0.80986
429.797,49.6282,-1.86469,3.04185,0.80764
432.397,49.87707,-2.06062,2.98271,0.80542
434.997,50.12549,-2.24687,2.83873,0.8032
437.597,50.37366,-2.43215,2.62922,0.80098
440.197,50.62226,-2.60766,2.37878,0.79876
442.797,50.86974,-2.75387,2.10988,0.79655
445.397,51.11742,-2.89588,1.86071,0.79434
447.997,51.36489,-3.02008,1.63071,0.79213
450.597,51.61245,-3.14007,1.43276,0.78992
453.197,51.85967,-3.24526,1.20056,0.78771
455.797,52.10784,-3.33241,0.99973,0.78551
458.397,52.3569,-3.4182,0.83064,0.78331
460.997,52.60572,-3.47817,0.68975,0.78111
463.597,52.85471,-3.54634,0.5699,0.77892
466.197,53.1042,-3.58847,0.4764,0.77673
468.797,53.3544,-3.63997,0.40608,0.77454
471.397,53.60471,-3.67503,0.3546,0.77235
473.997,53.85566,-3.70307,0.31481,0.77017
476.597,54.107,-3.73522,0.27855,0.768
479.197,54.3583,-3.76128,0.24448,0.76582
481.797,54.6097,-3.7802,0.21521,0.76366
484.397,54.8609,-3.80359,0.1876,0.76149
486.997,55.11325,-3.81383,0.15688,0.75933
489.597,55.3655,-3.81994,0.12896,0.75718
492.197,55.6169,-3.83229,0.10113,0.75502
494.797,55.8703,-3.83572,0.08045872,0.75288
497.397,56.12216,-3.839,0.06491012,0.75074
499.997,56.3747,-3.83772,0.05649753,0.7486
502.597,56.6273,-3.84448,0.05191474,0.74647
505.197,56.88032,-3.84611,0.04626394,0.74434
507.797,57.13383,-3.84516,0.04199647,0.74222
510.397,57.38669,-3.8456,0.04246602,0.74011
512.997,57.64055,-3.84483,0.04887488,0.738
515.597,57.8949,-3.84733,0.05132492,0.73589
518.197,58.1503,-3.84867,0.05419255,0.7338
520.797,58.40521,-3.84866,0.06272087,0.7317
523.397,58.66007,-3.85141,0.06434773,0.72962
525.997,58.9152,-3.84581,0.05747109,0.72754
528.597,59.17,-3.84845,0.05533567,0.72546
531.197,59.4253,-3.85011,0.0590619,0.7234
533.797,59.6813,-3.85031,0.05183053,0.72134
536.397,59.9366,-3.84692,0.04870358,0.71928
538.997,60.19235,-3.84944,0.04708516,0.71724
541.597,60.44785,-3.84681,0.04149141,0.7152
544.197,60.703,-3.84965,0.03461715,0.71316
546.797,60.9589,-3.84759,0.03032235,0.71114
549.397,61.2151,-3.85054,0.02918218,0.70912
551.997,61.47204,-3.84947,0.03231707,0.70711
554.597,61.7284,-3.85055,0.03863655,0.7051
557.197,61.98591,-3.84967,0.03953538,0.7031
559.797,62.243,-3.85097,0.0401561,0.70111
562.397,62.4995,-3.84965,0.04622914,0.69913
564.997,62.75669,-3.85108,0.04540232,0.69716
567.597,63.0139,-3.84933,0.04776445,0.69519
570.197,63.27166,-3.85173,0.0552941,0.69323
572.797,63.52984,-3.8525,0.06105363,0.69128
575.397,63.7882,-3.85093,0.06614627,0.68933
577.997,64.04649,-3.85097,0.07563691,0.6874
580.597,64.30507,-3.85382,0.07958989,0.68547
583.197,64.56362,-3.84935,0.08489846,0.68355
585.797,64.82215,-3.85213,0.08456409,0.68164
588.397,65.08111,-3.85076,0.08787714,0.67974
590.997,65.3393,-3.85339,0.09200287,0.67784
593.597,65.59804,-3.85385,0.08775786,0.67596
596.197,65.85552,-3.84573,0.08859918,0.67408
598.797,66.11317,-3.85112,0.09256516,0.67221
601.397,66.37263,-3.85192,0.09504245,0.67035
603.997,66.63166,-3.85167,0.09587998,0.6685
606.597,66.89086,-3.85153,0.09880277,0.66666
609.197,67.14964,-3.85257,0.10338,0.66482
611.797,67.40924,-3.85105,0.10353,0.663
614.397,67.6688,-3.85097,0.11262,0.66118
616.997,67.92849,-3.85248,0.11554,0.65937
619.597,68.18854,-3.85131,0.11733,0.65757
622.197,68.4482,-3.84999,0.1224,0.65578
624.797,68.70815,-3.84999,0.13161,0.654
627.397,68.96738,-3.85057,0.13476,0.65223
629.997,69.2278,-3.85477,0.13728,0.65047
632.597,69.48874,-3.84814,0.13914,0.64871
635.197,69.7501,-3.85404,0.14805,0.64697
637.597,69.99022,-3.85218,0.15109,0.64536

File: ABS_STA_N2_10KData_220701_R4.csv
##Temp./Â°C,Time/min,Mass loss(subtr.2)/mg,DSC(subtr.2)/(mW/mg),Sensit./(uV/mW)
49.73,10.01,0.00989,0.009697105,1.07017
52.23,11.20733,0.01032217,0.13064,1.06948
54.73,11.5951,0.01027258,0.1906,1.06879
57.23,11.91888,0.01056247,0.22379,1.06808
59.73,12.21562,0.01216816,0.25036,1.06738
62.23,12.4986,0.01183883,0.26729,1.06666
64.73,12.7736,0.01066042,0.28026,1.06594
67.23,13.0442,0.01218321,0.29116,1.06521
69.73,13.312,0.01055125,0.30171,1.06448
72.23,13.57646,0.01167374,0.30941,1.06373
74.73,13.83886,0.0105404,0.31799,1.06299
77.23,14.0992,0.01185927,0.32648,1.06223
79.73,14.3573,0.0120153,0.33274,1.06147
82.23,14.61444,0.01186923,0.33744,1.0607
84.73,14.86829,0.01184938,0.33949,1.05993
87.23,15.12101,0.01292793,0.33795,1.05915
89.73,15.37243,0.01054797,0.3367,1.05836
92.23,15.6221,0.009220101,0.33758,1.05757
94.73,15.87019,0.01186305,0.34478,1.05677
97.23,16.1181,0.01127985,0.35326,1.05596
99.73,16.36486,0.01052558,0.36089,1.05515
102.23,16.6105,0.01186523,0.36784,1.05433
104.73,16.85582,0.01120156,0.37916,1.0535
107.23,17.1004,0.01186886,0.39216,1.05267
109.73,17.34476,0.00992826,0.40685,1.05183
112.23,17.58845,0.0112012,0.42146,1.05098
114.73,17.8335,0.00922218,0.42464,1.05013
117.23,18.07726,0.01009871,0.42567,1.04927
119.73,18.3208,0.01143445,0.4274,1.0484
122.23,18.56454,0.01142,0.43109,1.04752
124.73,18.80745,0.01142004,0.43895,1.04664
127.23,19.04951,0.01142001,0.4427,1.04576
129.73,19.29233,0.0104318,0.44628,1.04486
132.23,19.53511,0.01175404,0.45133,1.04396
134.73,19.77652,0.01273693,0.44604,1.04305
137.23,20.0184,0.01174999,0.4442,1.04214
139.73,20.2588,0.01043997,0.44557,1.04121
142.23,20.5004,0.01040885,0.45134,1.04029
144.73,20.7413,0.01174995,0.45578,1.03935
147.23,20.98179,0.009115685,0.45956,1.03841
149.73,21.22208,0.00911,0.46332,1.03746
152.23,21.46165,0.009120007,0.4695,1.0365
154.73,21.70155,0.009337398,0.47108,1.03554
157.23,21.94076,0.009128719,0.47417,1.03457
159.73,22.18028,0.009442219,0.48008,1.03359
162.23,22.4198,0.00944,0.48371,1.0326
164.73,22.6588,0.01009998,0.48605,1.03161
167.23,22.89865,0.00911963,0.48927,1.03061
169.73,23.13766,0.009854611,0.49278,1.02961
172.23,23.37685,0.007078926,0.49718,1.02859
174.73,23.6158,0.008465907,0.50064,1.02757
177.23,23.8555,0.008824264,0.50272,1.02655
179.73,24.09388,0.008172153,0.50648,1.02551
182.23,24.3331,0.00733265,0.51014,1.02447
184.73,24.57055,0.007790065,0.51391,1.02342
187.23,24.80931,0.007455069,0.51478,1.02237
189.73,25.04714,0.00747,0.51961,1.0213
192.23,25.28475,0.007446714,0.51988,1.02023
194.73,25.52231,0.00615,0.52486,1.01916
197.23,25.76013,0.005489806,0.52458,1.01807
199.73,25.99805,0.004839718,0.52672,1.01698
202.23,26.2356,0.004186165,0.52903,1.01588
204.73,26.4733,0.005296508,0.53174,1.01478
207.23,26.71205,0.004370052,0.53278,1.01366
209.73,26.95007,0.003850002,0.53484,1.01254
212.23,27.1881,0.001209574,0.53814,1.01141
214.73,27.4263,0.00253003,0.54025,1.01028
217.23,27.66442,0.002532184,0.54373,1.00914
219.73,27.90195,0.0002209409,0.54675,1.00799
222.23,28.1399,0.000223624,0.54971,1.00683
224.73,28.37783,-0.001085152,0.55375,1.00567
227.23,28.6157,0.0002892162,0.55427,1.00449
229.73,28.85395,-0.0024199,0.55587,1.00331
232.23,29.09175,-0.00274504,0.55762,1.00213
234.73,29.32947,-0.004346174,0.56028,1.00093
237.23,29.56778,-0.004873139,0.56159,0.99973
239.73,29.80593,-0.006363532,0.56228,0.99852
242.23,30.04382,-0.00735002,0.56398,0.99731
244.73,30.28224,-0.00768,0.56371,0.99608
247.23,30.5207,-0.00899995,0.56486,0.99485
249.73,30.75903,-0.01032,0.56576,0.99361
252.23,30.99748,-0.01293733,0.56704,0.99237
254.73,31.23589,-0.01397029,0.5699,0.99111
257.23,31.47433,-0.01452834,0.56943,0.98985
259.73,31.71299,-0.01822,0.56815,0.98858
262.23,31.95065,-0.01953,0.56792,0.98731
264.73,32.18857,-0.02084816,0.56854,0.98602
267.23,32.42795,-0.02217093,0.56638,0.98473
269.73,32.66682,-0.02481186,0.56707,0.98343
272.23,32.9056,-0.02627941,0.56578,0.98213
274.73,33.1439,-0.02875986,0.56537,0.98081
277.23,33.38329,-0.03073,0.56098,0.97949
279.73,33.62166,-0.03204778,0.56012,0.97816
282.23,33.86128,-0.03336994,0.55539,0.97683
284.73,34.0997,-0.03633409,0.55418,0.97548
287.23,34.3393,-0.03758712,0.54844,0.97413
289.73,34.57809,-0.04062197,0.5462,0.97277
292.23,34.81722,-0.04019795,0.53836,0.9714
294.73,35.05636,-0.04358369,0.53067,0.97003
297.23,35.2962,-0.04450478,0.5247,0.96865
299.73,35.53556,-0.04622,0.51819,0.96726
302.23,35.77511,-0.04753011,0.51055,0.96586
304.73,36.0148,-0.05017048,0.50544,0.96445
307.23,36.255,-0.05149085,0.49894,0.96304
309.73,36.49534,-0.05378895,0.49197,0.96162
312.23,36.73514,-0.05557746,0.48231,0.96019
314.73,36.97503,-0.05874301,0.47419,0.95876
317.23,37.21455,-0.05873695,0.47189,0.95732
319.73,37.45556,-0.05999848,0.4633,0.95586
322.23,37.6959,-0.06267949,0.45633,0.95441
324.73,37.93586,-0.06561894,0.448,0.95294
327.23,38.17635,-0.06696,0.43645,0.95147
329.73,38.41642,-0.06832494,0.42637,0.94999
332.23,38.6572,-0.07156975,0.41235,0.9485
334.73,38.89833,-0.07289989,0.40144,0.947
337.23,39.1398,-0.07781253,0.39068,0.9455
339.73,39.38064,-0.07947354,0.37931,0.94398
342.23,39.62234,-0.08207719,0.36657,0.94246
344.73,39.8636,-0.0850316,0.35571,0.94094
347.23,40.10525,-0.09067816,0.34381,0.9394
349.73,40.34633,-0.09323127,0.33321,0.93786
352.23,40.5878,-0.0974831,0.32242,0.93631
354.73,40.82995,-0.10275,0.31374,0.93475
357.23,41.07132,-0.11069,0.30897,0.93319
359.73,41.31234,-0.1149,0.30619,0.93161
362.23,41.5544,-0.123,0.30263,0.93003
364.73,41.79593,-0.13151,0.30726,0.92844
367.23,42.03785,-0.14088,0.31481,0.92685
369.73,42.28052,-0.15023,0.3299,0.92525
372.23,42.52255,-0.16177,0.34995,0.92363
374.73,42.76509,-0.17478,0.37381,0.92202
377.23,43.0079,-0.18896,0.40063,0.92039
379.73,43.25116,-0.2062,0.43728,0.91876
382.23,43.4942,-0.22615,0.48122,0.91712
384.73,43.73837,-0.24511,0.53082,0.91547
387.23,43.9825,-0.26888,0.58664,0.91381
389.73,44.22663,-0.29608,0.65041,0.91215
392.23,44.4703,-0.32753,0.72259,0.91048
394.73,44.71461,-0.36189,0.80161,0.9088
397.23,44.95909,-0.40052,0.88927,0.90711
399.73,45.20426,-0.44662,0.98744,0.90542
402.23,45.44927,-0.4987,1.09875,0.90372
404.73,45.694,-0.5596,1.21985,0.90201
407.23,45.93911,-0.62981,1.35727,0.90029
409.73,46.1858,-0.71147,1.50607,0.89857
412.23,46.43187,-0.80403,1.66398,0.89684
414.73,46.67821,-0.91327,1.83691,0.8951
417.23,46.92418,-1.03719,2.00648,0.89335
419.73,47.1715,-1.17487,2.16956,0.8916
422.23,47.4179,-1.3254,2.31004,0.88984
424.73,47.66393,-1.48974,2.41455,0.88807
427.23,47.90979,-1.66151,2.46799,0.88629
429.73,48.15489,-1.83957,2.46102,0.88451
432.23,48.40025,-2.0189,2.39647,0.88272
434.73,48.6449,-2.19126,2.26884,0.88093
437.23,48.88861,-2.35639,2.10208,0.87912
439.73,49.13304,-2.50836,1.9037,0.87731
442.23,49.37638,-2.64488,1.69659,0.87549
444.73,49.61953,-2.76942,1.51252,0.87366
447.23,49.8624,-2.884,1.35219,0.87183
449.73,50.1057,-2.989,1.2013,0.86999
452.23,50.3487,-3.08332,1.04677,0.86814
454.73,50.59244,-3.16598,0.90378,0.86629
457.23,50.83587,-3.23808,0.78466,0.86443
459.73,51.081,-3.30062,0.67931,0.86256
462.23,51.32588,-3.35567,0.595,0.86068
464.73,51.57105,-3.40312,0.5301,0.8588
467.23,51.8163,-3.44385,0.48085,0.85691
469.73,52.06188,-3.47812,0.44642,0.85501
472.23,52.30766,-3.50903,0.41711,0.85311
474.73,52.5528,-3.53536,0.39681,0.8512
477.23,52.7993,-3.56171,0.37436,0.84928
479.73,53.04554,-3.58144,0.35698,0.84736
482.23,53.29121,-3.60026,0.33798,0.84542
484.73,53.5373,-3.6147,0.32167,0.84349
487.23,53.7833,-3.6259,0.30575,0.84154
489.73,54.0297,-3.63316,0.29299,0.83959
492.23,54.2756,-3.63855,0.2826,0.83763
494.73,54.52265,-3.64309,0.27687,0.83567
497.23,54.769,-3.6448,0.27489,0.83369
499.73,55.0159,-3.64513,0.27196,0.83172
502.23,55.2631,-3.64776,0.27173,0.82973
504.73,55.5103,-3.64776,0.27464,0.82774
507.23,55.7573,-3.64908,0.27448,0.82574
509.73,56.005,-3.65008,0.27392,0.82374
512.23,56.25232,-3.6504,0.27268,0.82173
514.73,56.49958,-3.6504,0.26751,0.81971
517.23,56.7477,-3.6504,0.26234,0.81768
519.73,56.996,-3.65172,0.25752,0.81565
522.23,57.2445,-3.65172,0.2565,0.81362
524.73,57.4932,-3.65172,0.25939,0.81158
527.23,57.74149,-3.65107,0.2597,0.80953
529.73,57.98992,-3.65106,0.26084,0.80747
532.23,58.23893,-3.65139,0.26537,0.80541
534.73,58.48795,-3.65337,0.26471,0.80334
537.23,58.7369,-3.65246,0.26771,0.80127
539.73,58.9855,-3.65205,0.26904,0.79919
542.23,59.23352,-3.65292,0.27148,0.7971
544.73,59.48175,-3.65336,0.2718,0.79501
547.23,59.72922,-3.65336,0.27294,0.79291
549.73,59.9774,-3.65271,0.27363,0.79081
552.23,60.22636,-3.65336,0.27567,0.7887
554.73,60.4753,-3.65468,0.27623,0.78658
557.23,60.7249,-3.65402,0.27347,0.78446
559.73,60.97444,-3.65534,0.28119,0.78234
562.23,61.2239,-3.65462,0.28203,0.7802
564.73,61.47282,-3.65567,0.28459,0.77806
567.23,61.72243,-3.65668,0.28367,0.77592
569.73,61.97184,-3.65502,0.28582,0.77377
572.23,62.22155,-3.65633,0.28794,0.77162
574.73,62.4704,-3.65633,0.28873,0.76946
577.23,62.72047,-3.65468,0.2888,0.76729
579.73,62.96951,-3.65632,0.29115,0.76512
582.23,63.2193,-3.65501,0.29244,0.76294
584.73,63.46836,-3.65731,0.2895,0.76076
587.23,63.7188,-3.656,0.28915,0.75857
589.73,63.9689,-3.656,0.2918,0.75638
592.23,64.21936,-3.65466,0.29307,0.75418
594.73,64.46974,-3.65468,0.29184,0.75198
597.23,64.71959,-3.65666,0.29445,0.74977
599.73,64.96941,-3.65793,0.29544,0.74756
602.23,65.21978,-3.65666,0.29393,0.74534
604.73,65.46993,-3.65797,0.29585,0.74312
607.23,65.7208,-3.65795,0.29516,0.74089
609.73,65.9713,-3.65633,0.29747,0.73866
612.23,66.22216,-3.65633,0.29941,0.73642
614.73,66.4725,-3.65501,0.29665,0.73418
617.23,66.7234,-3.65633,0.2966,0.73194
619.73,66.97385,-3.65735,0.29532,0.72969
622.23,67.2243,-3.6573,0.29647,0.72743
624.73,67.47471,-3.65765,0.29512,0.72517
627.23,67.7247,-3.65633,0.29385,0.72291
629.73,67.97539,-3.65765,0.29649,0.72064
632.23,68.22638,-3.65702,0.29616,0.71836
634.73,68.4773,-3.65764,0.29604,0.71609
637.23,68.7286,-3.65666,0.29595,0.71381
639.73,68.98018,-3.65633,0.29794,0.71152
642.23,69.23175,-3.65732,0.29886,0.70923
644.73,69.48315,-3.65732,0.30099,0.70694
647.23,69.7341,-3.65765,0.29735,0.70464
649.73,69.98648,-3.65591,0.30206,0.70234
649.83,69.99651,-3.65603,0.30147,0.70225