Folder: fsri_materials_database/01_Data/ABS/STA/N2/10K_min

Note: README.md
# Materials and Products Database
### Repository of materials and products properties and fire test data to improve fire modeling and fire investigation.

This project was supported in part by Award No. 2019-DU-BX-0018, awarded by the National Institute of Justice, Office of Justice Programs, U.S. Department of Justice. The opinions, findings, and conclusions or recommendations expressed in this publication / program / exhibition are those of the author(s) and do not necessarily reflect those of the Department of Justice.

***
***

__Cite this database:__ "McKinnon, M., Weinschenk, C., Dow, N., DiDomizio, M., and Madrzykowski, D. Materials and Products Database (Version 1.0.0), Fire Safety Research Institute, UL Research Institutes. Columbia, MD 21045, 2023."

__Cite the Technical Reference Guide:__ "McKinnon, M., Weinschenk, C., and Madrzykowski, D. Materials and Products Database - Technical Reference Guide, Fire Safety Research Institute, UL Research Institutes. Columbia, MD 21045, 2023."

__Cite the User Guide:__ "McKinnon, M., and Weinschenk, C. Materials and Products Database - User Guide, Fire Safety Research Institute, UL Research Institutes. Columbia, MD 21045, 2023."

***
***

## Database Structure

## 01_Data/
Raw data generated from each apparatus are included here in plain-text format. The data is organized first by material, next by the short name of test apparatus used, and where applicable additional filtering by test settings.

### Test Apparatus and Data File Structure
- __Cone Calorimeter__ (Cone)
    + Data file structure includes the material, the short name for the apparatus, heat flux setting and scan/scalar, date of test, and replicate number. Scan is for the raw output data and scalar is for the initial conditions and high-level test parameters. 
        * Example: __MDF_Cone_HF25scalar_210323_R1__ stands for the first replicate of scalar data generated from a medium density fiber board test in cone calorimeter exposed to 25 kW/m<sup>2</sup> on March 23, 2021.
    + A _Cone_Notes.csv_ is generated for each material from the __plot_Cone_data.py__ script. For materials whose experiments deviated from typical behavior relevant pictures are included in the respective material directory.
- __Fourier Transform Infrared Spectrometer__ (FTIR)
    + The FTIR directory contains subdirectories for the Attenuated Total Reflectance method (ATR) and the Integrating Sphere (IS)
    + Data file structure for the ATR experiment files includes the material, the abbreviated name for the apparatus, date of test, and replicate number. 
        * Example: __MDF_ATR_210323_R5__ stands for the fifth replicate of data collected with the ATR accessory conducted on June 8, 2021.
    + Data file structure for the IS experiment files includes the material, the abbreviated name for the apparatus, the measurand, whether the test is a sample measurement or standard reference, date of test, and replicate number.
        * Example: __OSB_IS_REFLECT_MEAS_2

File: ABS_STA_N2_10KData_211013_R1.csv
##Temp./Â°C,Time/min,Mass loss(subtr.2)/mg,DSC(subtr.2)/(mW/mg),Sensit./(uV/mW)
49.912,10.01,-0.00065,0.01054803,1.03584
52.912,12.50549,0.000964519,0.07663155,1.03568
55.912,13.2549,-8.4324e-05,0.11003,1.03548
58.912,13.8635,-0.0003438095,0.12836,1.03524
61.912,14.39916,0.001171699,0.14828,1.03496
64.912,14.88235,-0.000368457,0.16474,1.03465
67.912,15.3306,-0.000296135,0.18004,1.03429
70.912,15.7518,-0.0006777878,0.19277,1.0339
73.912,16.1519,-0.001080578,0.20658,1.03347
76.912,16.53507,-0.0002639166,0.21955,1.033
79.912,16.90365,-0.00191528,0.2322,1.0325
82.912,17.26241,-0.001950991,0.23258,1.03196
85.912,17.6099,-0.00120996,0.23471,1.03138
88.912,17.94881,-0.001224842,0.24089,1.03077
91.912,18.27974,-0.001201263,0.24669,1.03012
94.912,18.60247,-0.001755083,0.25698,1.02944
97.912,18.91955,-0.003275265,0.26535,1.02872
100.912,19.23208,-0.000816297,0.27622,1.02796
103.912,19.54018,-0.00207938,0.28722,1.02717
106.912,19.84575,-0.0008806243,0.30242,1.02635
109.912,20.1491,-0.000865455,0.32231,1.02549
112.912,20.44993,-0.002190063,0.33462,1.0246
115.912,20.74706,-0.00218412,0.33939,1.02367
118.912,21.0426,-0.002231753,0.33798,1.02271
121.912,21.3358,-0.0024632,0.34427,1.02172
124.912,21.62642,-0.002382314,0.3515,1.02069
127.912,21.91445,-0.00242515,0.358,1.01964
130.912,22.20109,-0.002410272,0.36485,1.01855
133.912,22.48479,-0.0009503978,0.36626,1.01742
136.912,22.7669,-0.002310017,0.36102,1.01627
139.912,23.04711,-0.001670662,0.36383,1.01509
142.912,23.32623,-0.003405611,0.36787,1.01387
145.912,23.6031,-0.003490728,0.37011,1.01263
148.912,23.8788,-0.004154042,0.37325,1.01135
151.912,24.1543,-0.00328992,0.37736,1.01005
154.912,24.42793,-0.004610015,0.3821,1.00871
157.912,24.70156,-0.003279152,0.3877,1.00735
160.912,24.97492,-0.00538003,0.38961,1.00596
163.912,25.2479,-0.0051773,0.39483,1.00454
166.912,25.52061,-0.0034,0.39838,1.00309
169.912,25.79285,-0.004695192,0.39922,1.00161
172.912,26.06416,-0.00610977,0.40244,1.00011
175.912,26.33615,-0.006039975,0.4044,0.99858
178.912,26.6068,-0.00606671,0.40844,0.99702
181.912,26.8769,-0.007680061,0.41037,0.99544
184.912,27.14681,-0.007666384,0.41316,0.99383
187.912,27.41593,-0.00907763,0.41582,0.99219
190.912,27.68393,-0.008997091,0.42128,0.99053
193.912,27.95239,-0.008463156,0.42424,0.98884
196.912,28.22,-0.01163005,0.42499,0.98713
199.912,28.4883,-0.01113916,0.42789,0.9854
202.912,28.7559,-0.01163,0.42902,0.98364
205.912,29.0237,-0.01295,0.43273,0.98185
208.912,29.2911,-0.0135973,0.43697,0.98005
211.912,29.55885,-0.0136961,0.44091,0.97822
214.912,29.8265,-0.01304966,0.44254,0.97637
217.912,30.0946,-0.01513476,0.44291,0.97449
220.912,30.36215,-0.01578845,0.44763,0.9726
223.912,30.6304,-0.01733,0.451,0.97068
226.912,30.89872,-0.01733009,0.45252,0.96874
229.912,31.1674,-0.01963174,0.45423,0.96678
232.912,31.43572,-0.02073706,0.45399,0.96481
235.912,31.70324,-0.02097821,0.45675,0.96281
238.912,31.97157,-0.02237977,0.4602,0.96079
241.912,32.24003,-0.02238,0.46056,0.95875
244.912,32.50923,-0.02599997,0.46468,0.95669
247.912,32.77799,-0.02633079,0.46457,0.95462
250.912,33.04613,-0.02796835,0.46747,0.95252
253.912,33.3157,-0.03229181,0.46869,0.95041
256.912,33.58498,-0.03224951,0.46654,0.94828
259.912,33.8544,-0.03553989,0.46959,0.94613
262.912,34.124,-0.03619997,0.47081,0.94397
265.912,34.3938,-0.03896867,0.47259,0.94179
268.912,34.66348,-0.04277332,0.46992,0.9396
271.912,34.93407,-0.04311451,0.47013,0.93738
274.912,35.2042,-0.04507589,0.46722,0.93516
277.912,35.47455,-0.04836984,0.46117,0.93292
280.912,35.74535,-0.04926248,0.46146,0.93066
283.912,36.0165,-0.05201704,0.4544,0.92839
286.912,36.2881,-0.05423455,0.44784,0.9261
289.912,36.5599,-0.05627009,0.4423,0.92381
292.912,36.83188,-0.05908608,0.43385,0.92149
295.912,37.10347,-0.06100912,0.42687,0.91917
298.912,37.37642,-0.06296,0.41525,0.91683
301.912,37.64891,-0.06426996,0.40601,0.91448
304.912,37.92157,-0.06658414,0.39369,0.91212
307.912,38.19397,-0.06920997,0.38382,0.90975
310.912,38.46739,-0.07315907,0.37319,0.90737
313.912,38.74133,-0.07273661,0.36282,0.90497
316.912,39.01498,-0.07413606,0.35297,0.90257
319.912,39.2888,-0.07980314,0.34407,0.90015
322.912,39.56239,-0.08223178,0.33396,0.89773
325.912,39.83815,-0.08281974,0.32,0.89529
328.912,40.1133,-0.08424,0.30816,0.89285
331.912,40.38858,-0.08818996,0.29625,0.8904
334.912,40.66427,-0.08787342,0.28539,0.88794
337.912,40.9402,-0.09182781,0.26674,0.88547
340.912,41.21606,-0.094771,0.25305,0.88299
343.912,41.49262,-0.09483444,0.23566,0.88051
346.912,41.76964,-0.10364,0.22083,0.87802
349.912,42.0462,-0.10891,0.207,0.87552
352.912,42.32347,-0.11388,0.19408,0.87302
355.912,42.6012,-0.12043,0.18436,0.87051
358.912,42.87962,-0.12734,0.17445,0.86799
361.912,43.15821,-0.13577,0.17684,0.86547
364.912,43.43708,-0.14475,0.17828,0.86294
367.912,43.7166,-0.15619,0.18744,0.86041
370.912,43.9958,-0.16681,0.20369,0.85788
373.912,44.276,-0.18044,0.22708,0.85534
376.912,44.55624,-0.20025,0.26365,0.85279
379.912,44.83658,-0.21899,0.31424,0.85025
382.912,45.1172,-0.24178,0.37859,0.8477
385.912,45.3984,-0.26914,0.45551,0.84514
388.912,45.68027,-0.29872,0.55008,0.84259
391.912,45.9627,-0.33432,0.66043,0.84003
394.912,46.24586,-0.378,0.78596,0.83747
397.912,46.52935,-0.4271,0.93282,0.8349
400.912,46.813,-0.48701,1.09394,0.83234
403.912,47.09652,-0.5586,1.28281,0.82978
406.912,47.38084,-0.64203,1.49106,0.82721
409.912,47.66559,-0.7396,1.7227,0.82464
412.912,47.95085,-0.85785,1.98033,0.82208
415.912,48.23644,-0.9984,2.2452,0.81951
418.912,48.52217,-1.15855,2.50951,0.81694
421.912,48.8076,-1.34175,2.74773,0.81438
424.912,49.09342,-1.54354,2.92784,0.81181
427.912,49.37984,-1.76156,3.02759,0.80925
430.912,49.6659,-1.9869,3.0157,0.80668
433.912,49.95185,-2.21099,2.9008,0.80412
436.912,50.2369,-2.42718,2.68493,0.80156
439.912,50.5215,-2.62619,2.40226,0.79901
442.912,50.8063,-2.80732,2.09395,0.79645
445.912,51.09117,-2.96578,1.80364,0.7939
448.912,51.37562,-3.11172,1.56257,0.79135
451.912,51.6603,-3.24277,1.29933,0.7888
454.912,51.94558,-3.35441,1.05581,0.78626
457.912,52.2315,-3.44879,0.86997,0.78372
460.912,52.51726,-3.52982,0.69643,0.78118
463.912,52.8031,-3.59609,0.5572,0.77865
466.912,53.08928,-3.65226,0.45872,0.77612
469.912,53.37746,-3.69804,0.38329,0.7736
472.912,53.66581,-3.73975,0.33153,0.77108
475.912,53.9542,-3.77246,0.2896,0.76857
478.912,54.2436,-3.80466,0.25363,0.76606
481.912,54.5333,-3.82951,0.21256,0.76356
484.912,54.8229,-3.84645,0.1817,0.76106
487.912,55.11374,-3.86104,0.14431,0.75857
490.912,55.4045,-3.87047,0.11181,0.75609
493.912,55.695,-3.87676,0.08470364,0.75361
496.912,55.98554,-3.8807,0.07282051,0.75114
499.912,56.2766,-3.88267,0.06032387,0.74867
502.912,56.5673,-3.8839,0.05412256,0.74621
505.912,56.85858,-3.88507,0.05247586,0.74376
508.912,57.1495,-3.88662,0.04807838,0.74131
511.912,57.44155,-3.88618,0.04728391,0.73888
514.912,57.7326,-3.8889,0.04432566,0.73645
517.912,58.0236,-3.88781,0.04270644,0.73403
520.912,58.3155,-3.88981,0.04871981,0.73161
523.912,58.6083,-3.88979,0.04838227,0.72921
526.912,58.9005,-3.88969,0.04562997,0.72681
529.912,59.19335,-3.88081,0.04310162,0.72442
532.912,59.48672,-3.89061,0.04196329,0.72204
535.912,59.7805,-3.8915,0.04112308,0.71967
538.912,60.07459,-3.89131,0.03889893,0.7173
541.912,60.36772,-3.88927,0.03586485,0.71495
544.912,60.6626,-3.89002,0.03758093,0.7126
547.912,60.95769,-3.89068,0.04205019,0.71027
550.912,61.25232,-3.89266,0.04423703,0.70794
553.912,61.5476,-3.89078,0.04849388,0.70563
556.912,61.84275,-3.89188,0.04678349,0.70332
559.912,62.13775,-3.88947,0.04913617,0.70103
562.912,62.43379,-3.89144,0.05658439,0.69874
565.912,62.72974,-3.89177,0.06383756,0.69646
568.912,63.0259,-3.88923,0.07398231,0.6942
571.912,63.3221,-3.89145,0.0813781,0.69194
574.912,63.6183,-3.89275,0.09332581,0.6897
577.912,63.91529,-3.89242,0.10441,0.68746
580.912,64.21152,-3.8911,0.11696,0.68524
583.912,64.50851,-3.89111,0.12327,0.68303
586.912,64.80547,-3.89079,0.13419,0.68082
589.912,65.1028,-3.89377,0.14164,0.67863
592.912,65.40004,-3.89309,0.15205,0.67645
595.912,65.69728,-3.8932,0.16363,0.67429
598.912,65.9948,-3.89183,0.17679,0.67213
601.912,66.2932,-3.8933,0.1896,0.66998
604.912,66.5921,-3.89265,0.19522,0.66785
607.912,66.8912,-3.89462,0.20365,0.66573
610.912,67.18871,-3.89188,0.20943,0.66362
613.912,67.48836,-3.89332,0.22422,0.66152
616.912,67.78692,-3.89056,0.23376,0.65943
619.912,68.08584,-3.89441,0.23467,0.65735
622.912,68.38508,-3.89309,0.25067,0.65529
625.912,68.68463,-3.89189,0.25793,0.65324
628.912,68.98406,-3.89123,0.2586,0.6512
631.912,69.28454,-3.8909,0.27059,0.64917
634.912,69.58507,-3.89122,0.27698,0.64716
637.912,69.8859,-3.89264,0.28278,0.64515
640.912,70.18571,-3.89109,0.28136,0.64316
643.912,70.48501,-3.8907,0.28874,0.64119
646.912,70.7854,-3.89188,0.29609,0.63922
649.912,71.0892,-3.89056,0.30391,0.63727
652.912,71.3921,-3.89121,0.31539,0.63532
655.912,71.69428,-3.89022,0.31923,0.6334
658.912,71.99634,-3.89114,0.31415,0.63148
661.912,72.29756,-3.88971,0.31793,0.62958
664.912,72.59873,-3.89224,0.32337,0.62768
667.912,72.90044,-3.8909,0.32812,0.62581
670.912,73.2028,-3.89089,0.32897,0.62394
673.912,73.50479,-3.8923,0.33638,0.62209
676.912,73.80725,-3.89142,0.34732,0.62024
679.912,74.10954,-3.89013,0.34947,0.61842
682.912,74.41314,-3.89276,0.35068,0.6166
685.912,74.71636,-3.89122,0.35035,0.6148
688.912,75.01957,-3.8921,0.35339,0.61301
691.912,75.32353,-3.8921,0.34643,0.61123
694.912,75.62708,-3.89352,0.34734,0.60946
697.912,75.93109,-3.89079,0.34018,0.60771
700.912,76.23392,-3.8908,0.33671,0.60597
703.912,76.5369,-3.89134,0.33587,0.60424
706.912,76.84039,-3.89145,0.32983,0.60252
709.912,77.14502,-3.89135,0.33079,0.60082
712.912,77.44925,-3.88983,0.33819,0.59913
715.912,77.75361,-3.89134,0.32461,0.59745
718.912,78.0586,-3.89024,0.32287,0.59579
721.912,78.36371,-3.89094,0.3206,0.59413
724.912,78.6695,-3.89023,0.33229,0.59249
727.912,78.9752,-3.89112,0.31721,0.59086
730.912,79.28069,-3.89112,0.3197,0.58925
733.912,79.58678,-3.89055,0.31773,0.58764
736.912,79.8922,-3.89122,0.31827,0.58605
737.912,79.9942,-3.88991,0.31902,0.58552

File: ABS_STA_N2_10KData_211018_R2.csv
##Temp./Â°C,Time/min,Mass loss(subtr.2)/mg,DSC(subtr.2)/(mW/mg),Sensit./(uV/mW)
50.127,10.00917,0.04189,-0.04460535,1.03583
52.727,12.3736,0.05647996,0.01416218,1.03569
55.327,13.07227,0.05634218,0.0418968,1.03552
57.927,13.6288,0.05579245,0.05775045,1.03532
60.527,14.11617,0.05310932,0.07117546,1.03509
63.127,14.55949,0.05998686,0.08472946,1.03484
65.727,14.96923,0.05691511,0.09326229,1.03455
68.327,15.35488,0.05702987,0.10648,1.03424
70.927,15.72039,0.06467245,0.11946,1.0339
73.527,16.0702,0.05652202,0.12724,1.03353
76.127,16.40577,0.05089683,0.1364,1.03313
78.727,16.73114,0.06590854,0.14306,1.0327
81.327,17.0467,0.0638933,0.14508,1.03225
83.927,17.35396,0.0647203,0.14882,1.03177
86.527,17.65438,0.05852041,0.14986,1.03126
89.127,17.94653,0.06526112,0.15076,1.03073
91.727,18.2337,0.06340528,0.15725,1.03016
94.327,18.51549,0.06023414,0.16239,1.02957
96.927,18.79283,0.06792273,0.16935,1.02896
99.527,19.06505,0.06409176,0.17569,1.02831
102.127,19.33584,0.0600515,0.18282,1.02765
104.727,19.60332,0.06828815,0.19225,1.02695
107.327,19.86906,0.06712079,0.20297,1.02623
109.927,20.13225,0.0705449,0.21991,1.02548
112.527,20.39343,0.07027714,0.23121,1.02471
115.127,20.65287,0.05996592,0.23195,1.02392
117.727,20.90939,0.06835771,0.23132,1.02309
120.327,21.16529,0.06471627,0.23235,1.02225
122.927,21.41904,0.072146,0.23646,1.02137
125.527,21.67043,0.06943809,0.23922,1.02048
128.127,21.92062,0.06983699,0.2418,1.01956
130.727,22.16862,0.06896537,0.24627,1.01861
133.327,22.41583,0.06207733,0.24755,1.01765
135.927,22.66056,0.07231124,0.24197,1.01665
138.527,22.9043,0.06720938,0.24051,1.01564
141.127,23.14705,0.06185641,0.24487,1.0146
143.727,23.38863,0.0668878,0.24768,1.01354
146.327,23.6292,0.06832996,0.24907,1.01245
148.927,23.8688,0.07270289,0.25188,1.01135
151.527,24.10768,0.06735211,0.25516,1.01022
154.127,24.34625,0.07395657,0.25982,1.00907
156.727,24.58472,0.05972196,0.25932,1.00789
159.327,24.8225,0.06917571,0.26571,1.0067
161.927,25.05978,0.06914226,0.26675,1.00548
164.527,25.29717,0.06521189,0.26774,1.00424
167.127,25.53314,0.07312566,0.26918,1.00298
169.727,25.77024,0.07405102,0.27099,1.0017
172.327,26.00649,0.07111519,0.2754,1.0004
174.927,26.24192,0.0736318,0.27608,0.99908
177.527,26.4765,0.06583348,0.27491,0.99774
180.127,26.71167,0.06692502,0.27915,0.99638
182.727,26.94609,0.07110774,0.27793,0.995
185.327,27.17963,0.06795599,0.28181,0.9936
187.927,27.4132,0.07407169,0.28478,0.99218
190.527,27.64645,0.07227239,0.28493,0.99074
193.127,27.87875,0.07062896,0.29027,0.98929
195.727,28.1113,0.07564247,0.29025,0.98781
198.327,28.34338,0.06311818,0.29363,0.98632
200.927,28.57534,0.0719368,0.29597,0.9848
203.527,28.8076,0.06654975,0.29571,0.98327
206.127,29.0404,0.07056913,0.29818,0.98173
208.727,29.27348,0.07905493,0.29728,0.98016
211.327,29.5056,0.07182502,0.29984,0.97858
213.927,29.73858,0.06427354,0.29965,0.97698
216.527,29.9718,0.06926755,0.30134,0.97536
219.127,30.2046,0.07156738,0.30012,0.97373
221.727,30.43733,0.06617468,0.30339,0.97208
224.327,30.6708,0.06832607,0.30384,0.97041
226.927,30.90359,0.06797093,0.30614,0.96873
229.527,31.13617,0.06344139,0.30919,0.96704
232.127,31.3688,0.05484525,0.30786,0.96533
234.727,31.6025,0.06784634,0.30786,0.9636
237.327,31.8358,0.06681955,0.30719,0.96186
239.927,32.06919,0.0596637,0.30997,0.9601
242.527,32.30237,0.06010693,0.31075,0.95833
245.127,32.5362,0.06604081,0.31055,0.95654
247.727,32.77015,0.06615045,0.3115,0.95474
250.327,33.00356,0.06304056,0.31124,0.95293
252.927,33.23733,0.05831566,0.30986,0.95111
255.527,33.47103,0.05860209,0.31045,0.94927
258.127,33.70516,0.06036354,0.31344,0.94741
260.727,33.9394,0.0534966,0.31351,0.94555
263.327,34.1733,0.05141359,0.31066,0.94367
265.927,34.40747,0.04940682,0.31281,0.94178
268.527,34.64178,0.0525321,0.31013,0.93988
271.127,34.8764,0.05003104,0.30856,0.93796
273.727,35.11136,0.04814926,0.30748,0.93604
276.327,35.34599,0.04144765,0.3076,0.9341
278.927,35.58153,0.03933959,0.30665,0.93215
281.527,35.817,0.04267315,0.30453,0.93019
284.127,36.052,0.03795052,0.29818,0.92823
286.727,36.2881,0.0368382,0.2927,0.92624
289.327,36.52337,0.034751,0.28777,0.92425
291.927,36.75995,0.0331909,0.28006,0.92225
294.527,36.99642,0.02875077,0.27053,0.92024
297.127,37.23264,0.02608807,0.26549,0.91822
299.727,37.4699,0.03132468,0.25577,0.9162
302.327,37.70714,0.02971364,0.24707,0.91416
304.927,37.94419,0.03192832,0.23764,0.91211
307.527,38.18173,0.02189678,0.22995,0.91005
310.127,38.41952,0.02031287,0.22359,0.90799
312.727,38.65722,0.02018071,0.2149,0.90592
315.327,38.89515,0.01613282,0.20749,0.90384
317.927,39.13347,0.01248249,0.19795,0.90175
320.527,39.37164,0.0196681,0.18641,0.89966
323.127,39.61063,0.02028823,0.17759,0.89755
325.727,39.84898,0.01317711,0.16872,0.89544
328.327,40.0881,0.01043379,0.15933,0.89333
330.927,40.32757,0.003285493,0.15342,0.8912
333.527,40.56637,0.00347626,0.14048,0.88907
336.127,40.8059,0.000518861,0.12817,0.88694
338.727,41.0457,0.004400515,0.11376,0.8848
341.327,41.28501,-0.00393821,0.10404,0.88265
343.927,41.5252,-0.008434198,0.09145814,0.8805
346.527,41.76592,-0.007870013,0.08006567,0.87834
349.127,42.00675,-0.01386348,0.06685375,0.87617
351.727,42.24685,-0.01701913,0.05196911,0.87401
354.327,42.48827,-0.02289995,0.04449745,0.87183
356.927,42.7294,-0.02854575,0.03815452,0.86966
359.527,42.97063,-0.03273061,0.03379743,0.86747
362.127,43.21209,-0.04123673,0.03297264,0.86529
364.727,43.45434,-0.04630007,0.03750227,0.8631
367.327,43.69721,-0.05734446,0.05003192,0.86091
369.927,43.94025,-0.05792094,0.06471371,0.85871
372.527,44.18326,-0.07602485,0.08325567,0.85651
375.127,44.426,-0.0883443,0.1114,0.85431
377.727,44.67003,-0.10829,0.14618,0.8521
380.327,44.91415,-0.12167,0.1906,0.84989
382.927,45.15842,-0.1401,0.24932,0.84768
385.527,45.40315,-0.16535,0.31585,0.84547
388.127,45.6486,-0.18295,0.39319,0.84326
390.727,45.8939,-0.21114,0.48398,0.84104
393.327,46.13987,-0.24592,0.58705,0.83882
395.927,46.3855,-0.28844,0.69842,0.8366
398.527,46.63157,-0.3284,0.82685,0.83438
401.127,46.87788,-0.37508,0.96454,0.83216
403.727,47.12493,-0.44358,1.12686,0.82993
406.327,47.372,-0.50648,1.30388,0.82771
408.927,47.6198,-0.57945,1.49942,0.82549
411.527,47.86785,-0.67388,1.71199,0.82326
414.127,48.1154,-0.78801,1.93845,0.82104
416.727,48.36397,-0.89741,2.16425,0.81881
419.327,48.612,-1.0434,2.38844,0.81659
421.927,48.86133,-1.19517,2.59083,0.81436
424.527,49.1109,-1.3524,2.75597,0.81214
427.127,49.3604,-1.54161,2.85787,0.80992
429.727,49.60966,-1.7255,2.88703,0.8077
432.327,49.85825,-1.91266,2.8349,0.80548
434.927,50.10682,-2.104,2.69814,0.80326
437.527,50.35455,-2.26837,2.49456,0.80104
440.127,50.60167,-2.44181,2.2482,0.79882
442.727,50.8491,-2.59996,1.98085,0.79661
445.327,51.09693,-2.7214,1.72304,0.7944
447.927,51.34409,-2.85948,1.4918,0.79219
450.527,51.59179,-2.9643,1.28874,0.78998
453.127,51.8407,-3.07485,1.04266,0.78777
455.727,52.08931,-3.16536,0.83741,0.78557
458.327,52.33811,-3.2411,0.68269,0.78337
460.927,52.5874,-3.30214,0.52888,0.78117
463.527,52.83685,-3.35028,0.4001,0.77898
466.127,53.08619,-3.41893,0.30388,0.77679
468.727,53.33668,-3.44874,0.2341,0.7746
471.327,53.58647,-3.49235,0.1741,0.77241
473.927,53.83655,-3.52066,0.13068,0.77023
476.527,54.08654,-3.55254,0.08981316,0.76806
479.127,54.33705,-3.57183,0.05052556,0.76588
481.727,54.58791,-3.5928,0.01791857,0.76371
484.327,54.8384,-3.61697,-0.01593464,0.76155
486.927,55.08985,-3.62411,-0.04992739,0.75939
489.527,55.34131,-3.63481,-0.07704209,0.75723
492.127,55.59463,-3.63754,-0.10198,0.75508
494.727,55.8479,-3.64378,-0.12133,0.75294
497.327,56.10046,-3.65772,-0.14165,0.75079
499.927,56.35408,-3.64984,-0.15033,0.74866
502.527,56.6073,-3.65598,-0.15497,0.74653
505.127,56.8611,-3.65342,-0.15881,0.7444
507.727,57.11518,-3.65603,-0.16931,0.74228
510.327,57.3688,-3.65995,-0.16783,0.74016
512.927,57.62393,-3.66178,-0.16875,0.73805
515.527,57.87766,-3.65506,-0.16564,0.73595
518.127,58.13267,-3.65788,-0.16782,0.73385
520.727,58.38709,-3.65243,-0.17305,0.73176
523.327,58.64213,-3.65664,-0.17775,0.72967
525.927,58.89655,-3.65479,-0.1832,0.72759
528.527,59.15149,-3.65997,-0.18847,0.72552
531.127,59.40695,-3.64701,-0.19922,0.72345
533.727,59.6622,-3.66254,-0.19822,0.72139
536.327,59.9179,-3.66101,-0.19844,0.71934
538.927,60.17346,-3.65925,-0.19925,0.71729
541.527,60.4293,-3.66211,-0.19519,0.71525
544.127,60.68524,-3.65897,-0.19228,0.71322
546.727,60.9411,-3.66328,-0.19071,0.71119
549.327,61.19673,-3.6527,-0.18961,0.70917
551.927,61.4532,-3.65612,-0.19287,0.70716
554.527,61.71034,-3.65198,-0.19639,0.70515
557.127,61.9668,-3.65833,-0.19365,0.70316
559.727,62.2239,-3.65981,-0.19059,0.70117
562.327,62.48132,-3.65767,-0.18937,0.69918
564.927,62.7387,-3.66078,-0.19114,0.69721
567.527,62.99514,-3.67583,-0.18942,0.69524
570.127,63.25274,-3.66418,-0.18816,0.69328
572.727,63.5109,-3.65255,-0.18961,0.69133
575.327,63.76752,-3.67069,-0.18548,0.68939
577.927,64.02538,-3.65663,-0.18903,0.68745
580.527,64.28368,-3.64815,-0.18698,0.68552
583.127,64.5404,-3.65884,-0.18801,0.6836
585.727,64.79915,-3.66122,-0.18995,0.68169
588.327,65.05677,-3.64765,-0.193,0.67979
590.927,65.31501,-3.65729,-0.19265,0.67789
593.527,65.57255,-3.65463,-0.19428,0.67601
596.127,65.83075,-3.65223,-0.19996,0.67413
598.727,66.08951,-3.65024,-0.18957,0.67226
601.327,66.34766,-3.6562,-0.18095,0.6704
603.927,66.60792,-3.65125,-0.18286,0.66855
606.527,66.86661,-3.65618,-0.17535,0.66671
609.127,67.12601,-3.65322,-0.17363,0.66487
611.727,67.38638,-3.65176,-0.17136,0.66304
614.327,67.6463,-3.66592,-0.17101,0.66123
616.927,67.9062,-3.66017,-0.16816,0.65942
619.527,68.16598,-3.64648,-0.16706,0.65762
622.127,68.42534,-3.66153,-0.17084,0.65583
624.727,68.68574,-3.64987,-0.16672,0.65405
627.327,68.94578,-3.65711,-0.169,0.65228
629.927,69.20651,-3.65328,-0.16943,0.65051
632.527,69.46695,-3.65321,-0.16697,0.64876
635.127,69.72742,-3.65909,-0.16772,0.64701
637.727,69.98852,-3.65947,-0.16831,0.64528
637.827,69.99804,-3.65945,-0.16608,0.64521