Folder: fsri_materials_database/01_Data/ABS/STA/N2/30K_min (part 2)

File: ABS_STA_N2_30KData_211020_R3.csv
##Temp./Â°C,Time/min,Mass loss(subtr.2)/mg,DSC(subtr.2)/(mW/mg),Sensit./(uV/mW)
49.503,10.01,-0.0237,-0.003809703,1.05401
52.003,11.53599,-0.0239573,0.0815017,1.05405
54.503,11.88464,-0.02244989,0.14301,1.05406
57.003,12.13875,-0.02520016,0.18926,1.05404
59.503,12.35143,-0.02393629,0.22864,1.05399
62.003,12.54073,-0.0193948,0.25709,1.05391
64.503,12.71535,-0.03411015,0.28666,1.0538
67.003,12.8789,-0.02499489,0.31044,1.05366
69.503,13.0349,-0.02175031,0.33243,1.05349
72.003,13.18479,-0.02181386,0.35512,1.05328
74.503,13.3292,-0.0231672,0.37779,1.05305
77.003,13.46899,-0.0230277,0.39982,1.05279
79.503,13.60414,-0.0237844,0.41527,1.0525
82.003,13.73515,-0.02612698,0.43074,1.05219
84.503,13.8621,-0.02412631,0.44534,1.05184
87.003,13.98535,-0.02651353,0.45516,1.05146
89.503,14.10501,-0.02498949,0.46295,1.05106
92.003,14.2211,-0.0271166,0.46757,1.05063
94.503,14.33441,-0.02468479,0.48192,1.05017
97.003,14.4449,-0.02729761,0.49866,1.04968
99.503,14.5528,-0.027867,0.51837,1.04916
102.003,14.65872,-0.0281086,0.54114,1.04862
104.503,14.76235,-0.02637896,0.56741,1.04804
107.003,14.86415,-0.02629995,0.60063,1.04744
109.503,14.9642,-0.02456717,0.63771,1.04682
112.003,15.06236,-0.02565612,0.67648,1.04616
114.503,15.1593,-0.02697735,0.71241,1.04548
117.003,15.2549,-0.02715591,0.73423,1.04478
119.503,15.3491,-0.02693151,0.75135,1.04405
122.003,15.4418,-0.02756978,0.76578,1.04329
124.503,15.5336,-0.02702489,0.78185,1.0425
127.003,15.6239,-0.02583482,0.79981,1.04169
129.503,15.71297,-0.0282532,0.81717,1.04085
132.003,15.8013,-0.02906901,0.83346,1.03999
134.503,15.88851,-0.02909892,0.83889,1.0391
137.003,15.9749,-0.02774184,0.84039,1.03819
139.503,16.06015,-0.02644039,0.8482,1.03726
142.003,16.14455,-0.02713658,0.85678,1.03629
144.503,16.22824,-0.03029857,0.8656,1.03531
147.003,16.31116,-0.02611581,0.87846,1.0343
149.503,16.39323,-0.02648414,0.89184,1.03326
152.003,16.4748,-0.02814573,0.90468,1.03221
154.503,16.55565,-0.02696335,0.91833,1.03113
157.003,16.63616,-0.02820122,0.93207,1.03002
159.503,16.71615,-0.02951922,0.94694,1.02889
162.003,16.79551,-0.0294536,0.95967,1.02774
164.503,16.87409,-0.02809185,0.97033,1.02657
167.003,16.9523,-0.02804951,0.98332,1.02538
169.503,17.03025,-0.03083096,0.9957,1.02416
172.003,17.1078,-0.03082999,1.00795,1.02292
174.503,17.1845,-0.02941485,1.01903,1.02166
177.003,17.2608,-0.02952888,1.03006,1.02038
179.503,17.33674,-0.03086566,1.04413,1.01907
182.003,17.41207,-0.03220669,1.05627,1.01775
184.503,17.487,-0.03226004,1.06865,1.0164
187.003,17.56148,-0.03114806,1.07848,1.01503
189.503,17.63562,-0.03256543,1.09046,1.01365
192.003,17.7093,-0.03071009,1.10123,1.01224
194.503,17.7826,-0.03026636,1.11426,1.01081
197.003,17.85564,-0.03269244,1.12397,1.00937
199.503,17.9283,-0.03321009,1.13649,1.0079
202.003,18.00065,-0.03403178,1.14682,1.00642
204.503,18.07295,-0.03490724,1.15535,1.00491
207.003,18.14488,-0.03673995,1.1649,1.00339
209.503,18.21651,-0.03521182,1.17575,1.00185
212.003,18.28796,-0.03684628,1.18663,1.00029
214.503,18.35918,-0.03739317,1.19661,0.99871
217.003,18.43015,-0.03189045,1.20777,0.99712
219.503,18.50098,-0.03451335,1.21508,0.9955
222.003,18.57169,-0.04039631,1.22344,0.99387
224.503,18.64215,-0.03888812,1.23248,0.99223
227.003,18.71237,-0.03992907,1.23979,0.99056
229.503,18.78246,-0.04147211,1.25052,0.98888
232.003,18.8525,-0.0404324,1.25937,0.98718
234.503,18.92225,-0.03898097,1.2645,0.98547
237.003,18.9919,-0.04147748,1.27283,0.98374
239.503,19.06135,-0.04421674,1.28322,0.982
242.003,19.13058,-0.04427365,1.28934,0.98024
244.503,19.19986,-0.04299937,1.29542,0.97846
247.003,19.26887,-0.04040807,1.30366,0.97667
249.503,19.33783,-0.04351817,1.31012,0.97487
252.003,19.40677,-0.04354999,1.31402,0.97305
254.503,19.47549,-0.0426365,1.32248,0.97122
257.003,19.54406,-0.04553344,1.32938,0.96937
259.503,19.61259,-0.04651999,1.33554,0.96751
262.003,19.68103,-0.04652018,1.33913,0.96564
264.503,19.74945,-0.04783502,1.34111,0.96375
267.003,19.8177,-0.04952748,1.34793,0.96185
269.503,19.8859,-0.04792549,1.35356,0.95994
272.003,19.954,-0.04595965,1.35545,0.95801
274.503,20.02202,-0.05643722,1.36266,0.95608
277.003,20.08974,-0.05296906,1.36358,0.95413
279.503,20.15786,-0.05535333,1.36651,0.95217
282.003,20.22591,-0.05827288,1.3688,0.95019
284.503,20.29393,-0.05819497,1.37126,0.94821
287.003,20.36178,-0.05953957,1.37185,0.94621
289.503,20.42971,-0.06087996,1.36979,0.94421
292.003,20.49758,-0.06198296,1.37233,0.94219
294.503,20.5654,-0.06381,1.36958,0.94017
297.003,20.63316,-0.06643831,1.36444,0.93813
299.503,20.70099,-0.06735205,1.3588,0.93609
302.003,20.76879,-0.06965118,1.35475,0.93403
304.503,20.83662,-0.07196439,1.3488,0.93197
307.003,20.9043,-0.07338161,1.33989,0.92989
309.503,20.97208,-0.07469758,1.33227,0.92781
312.003,21.03977,-0.07601894,1.32081,0.92572
314.503,21.10752,-0.0789014,1.30554,0.92362
317.003,21.17522,-0.08158965,1.29364,0.92151
319.503,21.24294,-0.08293625,1.27573,0.9194
322.003,21.31071,-0.08570653,1.26055,0.91728
324.503,21.3784,-0.08876414,1.24052,0.91515
327.003,21.44633,-0.08633178,1.21729,0.91301
329.503,21.5142,-0.08935567,1.19634,0.91086
332.003,21.58202,-0.09069605,1.16779,0.90871
334.503,21.65005,-0.09301918,1.14952,0.90656
337.003,21.71786,-0.09590261,1.12605,0.90439
339.503,21.78584,-0.09761736,1.10404,0.90222
342.003,21.85387,-0.10146,1.07711,0.90005
344.503,21.9219,-0.10279,1.05036,0.89787
347.003,21.9901,-0.10443,1.02083,0.89568
349.503,22.0583,-0.10717,0.98764,0.89349
352.003,22.12667,-0.10904,0.9502,0.89129
354.503,22.195,-0.11202,0.91481,0.88909
357.003,22.2634,-0.11529,0.87158,0.88689
359.503,22.33183,-0.11878,0.83328,0.88468
362.003,22.40024,-0.12363,0.78833,0.88246
364.503,22.46882,-0.12677,0.74318,0.88025
367.003,22.53742,-0.12934,0.69782,0.87803
369.503,22.60581,-0.12956,0.64988,0.8758
372.003,22.67484,-0.13305,0.60789,0.87357
374.503,22.74375,-0.14132,0.56756,0.87134
377.003,22.81276,-0.14812,0.53256,0.86911
379.503,22.8816,-0.15093,0.49931,0.86688
382.003,22.95075,-0.15869,0.47341,0.86464
384.503,23.01985,-0.16802,0.45436,0.8624
387.003,23.0892,-0.17421,0.44626,0.86016
389.503,23.15839,-0.18168,0.45592,0.85792
392.003,23.2277,-0.19263,0.47889,0.85567
394.503,23.29751,-0.2044,0.51998,0.85343
397.003,23.36715,-0.21684,0.58308,0.85118
399.503,23.43681,-0.23262,0.67304,0.84893
402.003,23.50658,-0.25214,0.79159,0.84669
404.503,23.57674,-0.27067,0.93762,0.84444
407.003,23.64692,-0.28743,1.11099,0.84219
409.503,23.71718,-0.30957,1.31561,0.83994
412.003,23.78753,-0.33705,1.55561,0.83769
414.503,23.85802,-0.37077,1.83103,0.83545
417.003,23.92878,-0.40668,2.14052,0.8332
419.503,23.99954,-0.44723,2.47957,0.83095
422.003,24.0706,-0.49064,2.85384,0.82871
424.503,24.1419,-0.53951,3.26188,0.82646
427.003,24.21335,-0.59756,3.70604,0.82422
429.503,24.28492,-0.66808,4.18619,0.82198
432.003,24.35666,-0.74035,4.69709,0.81974
434.503,24.42868,-0.82415,5.23683,0.8175
437.003,24.5009,-0.92264,5.79186,0.81526
439.503,24.57326,-1.03109,6.35369,0.81303
442.003,24.64572,-1.15029,6.90756,0.8108
444.503,24.7183,-1.27891,7.41536,0.80857
447.003,24.79109,-1.42369,7.86425,0.80634
449.503,24.86405,-1.57766,8.2113,0.80412
452.003,24.93702,-1.74199,8.43279,0.8019
454.503,25.00982,-1.91676,8.51241,0.79968
457.003,25.08275,-2.08407,8.42702,0.79747
459.503,25.1557,-2.2641,8.18791,0.79526
462.003,25.22849,-2.4291,7.82583,0.79305
464.503,25.3012,-2.58928,7.35644,0.79085
467.003,25.37385,-2.7466,6.77394,0.78865
469.503,25.4463,-2.89208,6.00486,0.78646
472.003,25.5187,-3.01842,5.22182,0.78427
474.503,25.59115,-3.13206,4.51494,0.78208
477.003,25.6637,-3.23642,3.8633,0.7799
479.503,25.73629,-3.3286,3.30571,0.77772
482.003,25.8089,-3.41506,2.77191,0.77555
484.503,25.88186,-3.47993,2.29942,0.77339
487.003,25.9547,-3.54391,1.89234,0.77122
489.503,26.02789,-3.5953,1.5481,0.76907
492.003,26.10141,-3.63794,1.26795,0.76692
494.503,26.17495,-3.67893,1.04795,0.76477
497.003,26.24868,-3.70839,0.87288,0.76264
499.503,26.32253,-3.73555,0.73336,0.7605
502.003,26.3966,-3.76034,0.61378,0.75838
504.503,26.4708,-3.78145,0.51311,0.75625
507.003,26.54525,-3.79814,0.42334,0.75414
509.503,26.6198,-3.80706,0.34599,0.75203
512.003,26.6944,-3.81873,0.27709,0.74993
514.503,26.7692,-3.82158,0.21976,0.74784
517.003,26.84405,-3.82513,0.17811,0.74575
519.503,26.91893,-3.82589,0.13844,0.74367
522.003,26.99382,-3.83081,0.11798,0.74159
524.503,27.06901,-3.83201,0.10024,0.73952
527.003,27.1443,-3.83464,0.09289273,0.73746
529.503,27.2196,-3.83335,0.0878702,0.73541
532.003,27.295,-3.83337,0.08172124,0.73337
534.503,27.37043,-3.83761,0.08066152,0.73133
537.003,27.446,-3.84154,0.08126613,0.7293
539.503,27.5217,-3.84023,0.08361057,0.72727
542.003,27.5975,-3.84023,0.08312863,0.72526
544.503,27.67328,-3.83957,0.08111272,0.72325
547.003,27.74917,-3.83891,0.08512523,0.72125
549.503,27.82517,-3.84154,0.08496156,0.71926
552.003,27.9013,-3.8415,0.08731578,0.71728
554.503,27.9775,-3.83754,0.09005026,0.7153
557.003,28.0538,-3.83624,0.0937201,0.71334
559.503,28.1302,-3.83901,0.09538787,0.71138
562.003,28.2068,-3.83901,0.0976829,0.70943
564.503,28.2835,-3.83969,0.09863911,0.70749
567.003,28.36014,-3.84176,0.1008,0.70556
569.503,28.4368,-3.84176,0.10721,0.70363
572.003,28.51367,-3.84176,0.11612,0.70172
574.503,28.59047,-3.84041,0.12021,0.69981
577.003,28.66775,-3.84018,0.12268,0.69792
579.503,28.74482,-3.84005,0.12278,0.69603
582.003,28.8222,-3.83737,0.12307,0.69415
584.503,28.89964,-3.83869,0.12591,0.69228
587.003,28.9771,-3.83847,0.13356,0.69042
589.503,29.05462,-3.83943,0.13657,0.68857
592.003,29.1323,-3.84264,0.14041,0.68673
594.503,29.21009,-3.84164,0.14239,0.68489
597.003,29.28748,-3.83792,0.1469,0.68307
599.503,29.3657,-3.83847,0.14958,0.68126
602.003,29.44377,-3.83847,0.15296,0.67945
604.503,29.5218,-3.83982,0.15361,0.67766
607.003,29.5999,-3.84242,0.15954,0.67587
609.503,29.67807,-3.83923,0.16097,0.6741
612.003,29.7564,-3.83923,0.16562,0.67233
614.503,29.83483,-3.83915,0.17195,0.67057
617.003,29.9134,-3.83936,0.17398,0.66883
619.503,29.992,-3.83912,0.17568,0.66709
619.703,29.9985,-3.83912,0.1753,0.66695