Folder: fsri_materials_database/01_Data/ABS/STA/N2/30K_min

Note: README.md
# Materials and Products Database
### Repository of materials and products properties and fire test data to improve fire modeling and fire investigation.

This project was supported in part by Award No. 2019-DU-BX-0018, awarded by the National Institute of Justice, Office of Justice Programs, U.S. Department of Justice. The opinions, findings, and conclusions or recommendations expressed in this publication / program / exhibition are those of the author(s) and do not necessarily reflect those of the Department of Justice.

***
***

__Cite this database:__ "McKinnon, M., Weinschenk, C., Dow, N., DiDomizio, M., and Madrzykowski, D. Materials and Products Database (Version 1.0.0), Fire Safety Research Institute, UL Research Institutes. Columbia, MD 21045, 2023."

__Cite the Technical Reference Guide:__ "McKinnon, M., Weinschenk, C., and Madrzykowski, D. Materials and Products Database - Technical Reference Guide, Fire Safety Research Institute, UL Research Institutes. Columbia, MD 21045, 2023."

__Cite the User Guide:__ "McKinnon, M., and Weinschenk, C. Materials and Products Database - User Guide, Fire Safety Research Institute, UL Research Institutes. Columbia, MD 21045, 2023."

***
***

## Database Structure

## 01_Data/
Raw data generated from each apparatus are included here in plain-text format. The data is organized first by material, next by the short name of test apparatus used, and where applicable additional filtering by test settings.

### Test Apparatus and Data File Structure
- __Cone Calorimeter__ (Cone)
    + Data file structure includes the material, the short name for the apparatus, heat flux setting and scan/scalar, date of test, and replicate number. Scan is for the raw output data and scalar is for the initial conditions and high-level test parameters. 
        * Example: __MDF_Cone_HF25scalar_210323_R1__ stands for the first replicate of scalar data generated from a medium density fiber board test in cone calorimeter exposed to 25 kW/m<sup>2</sup> on March 23, 2021.
    + A _Cone_Notes.csv_ is generated for each material from the __plot_Cone_data.py__ script. For materials whose experiments deviated from typical behavior relevant pictures are included in the respective material directory.
- __Fourier Transform Infrared Spectrometer__ (FTIR)
    + The FTIR directory contains subdirectories for the Attenuated Total Reflectance method (ATR) and the Integrating Sphere (IS)
    + Data file structure for the ATR experiment files includes the material, the abbreviated name for the apparatus, date of test, and replicate number. 
        * Example: __MDF_ATR_210323_R5__ stands for the fifth replicate of data collected with the ATR accessory conducted on June 8, 2021.
    + Data file structure for the IS experiment files includes the material, the abbreviated name for the apparatus, the measurand, whether the test is a sample measurement or standard reference, date of test, and replicate number.
        * Example: __OSB_IS_REFLECT_MEAS_2

File: ABS_STA_N2_30KData_211019_R1.csv
Temp/C,Time/min,DSC/mW,Mass loss/mg,Sensit./(uV/mW)
50,10.9797,0.0428483,0.05546442,1.05402
52.4,11.6062,0.555352,0.0577328,1.05406
54.8,11.9215,0.908023,0.0584855,1.05406
57.2,12.1597,1.18985,0.0572106,1.05404
59.6,12.3631,1.42277,0.0585864,1.05399
62,12.5443,1.61723,0.0569522,1.05391
64.4,12.7118,1.80016,0.0601504,1.0538
66.8,12.8707,1.95663,0.05987603,1.05367
69.2,13.0212,2.10108,0.0606434,1.05351
71.6,13.1662,2.23332,0.0611845,1.05332
74,13.306,2.36356,0.0587608,1.0531
76.4,13.4417,2.48979,0.0618546,1.05286
78.8,13.573,2.61339,0.0624767,1.05259
81.2,13.701,2.71299,0.0611153,1.05229
83.6,13.8247,2.80653,0.0608499,1.05197
86,13.9448,2.89329,0.0622326,1.05162
88.4,14.0616,2.97218,0.0639341,1.05124
90.8,14.1751,3.01107,0.062359,1.05084
93.2,14.2857,3.07979,0.0647014,1.05041
95.6,14.3935,3.16728,0.0639042,1.04996
98,14.4992,3.25815,0.0656225,1.04948
100.4,14.6023,3.37515,0.0613,1.04897
102.8,14.7029,3.49387,0.061574,1.04844
105.2,14.8024,3.6237,0.0657873,1.04788
107.6,14.9003,3.75879,0.0635361,1.0473
110,14.9962,3.93381,0.0662012,1.04669
112.4,15.0907,4.11129,0.0691599,1.04606
114.8,15.184,4.28575,0.0682309,1.04541
117.2,15.2758,4.39794,0.0678451,1.04472
119.6,15.3667,4.51403,0.0670357,1.04402
122,15.456,4.61581,0.0662096,1.04329
124.4,15.5445,4.7193,0.0655328,1.04254
126.8,15.6317,4.82212,0.0679027,1.04176
129.2,15.7178,4.92092,0.0680646,1.04096
131.6,15.8029,5.01179,0.0670076,1.04014
134,15.8873,5.08349,0.0671001,1.03929
136.4,15.9706,5.1257,0.068223,1.03842
138.8,16.0532,5.16005,0.0674159,1.03753
141.2,16.1347,5.20963,0.0685398,1.03661
143.6,16.2159,5.26531,0.06730363,1.03567
146,16.2953,5.3272,0.06855849,1.03471
148.4,16.3754,5.39364,0.0695018,1.03373
150.8,16.4546,5.44785,0.0687797,1.03272
153.2,16.5331,5.50039,0.0687593,1.03169
155.6,16.6109,5.57665,0.0687714,1.03065
158,16.6881,5.63772,0.0702,1.02957
160.4,16.7647,5.70366,0.0688797,1.02848
162.8,16.8411,5.76404,0.06835502,1.02738
165.2,16.9172,5.83293,0.06887,1.02625
167.6,16.9926,5.89323,0.0661964,1.02508
170,17.0675,5.93822,0.0648062,1.02391
172.4,17.1418,5.99631,0.0661631,1.02272
174.8,17.2158,6.06267,0.06635,1.0215
177.2,17.2896,6.1168,0.06635,1.02027
179.6,17.3627,6.17863,0.065036,1.01902
182,17.4353,6.23886,0.0667174,1.01774
184.4,17.5075,6.30027,0.0687403,1.01645
186.8,17.5793,6.35591,0.0692491,1.01514
189.2,17.6507,6.42223,0.06888,1.01381
191.6,17.7216,6.47289,0.0697601,1.01247
194,17.7923,6.52335,0.0692,1.0111
196.4,17.8629,6.57394,0.0692,1.00971
198.8,17.933,6.63105,0.0665814,1.00831
201.2,18.003,6.67419,0.0666216,1.00689
203.6,18.0726,6.72885,0.0666305,1.00545
206,18.1421,6.77642,0.0654062,1.004
208.4,18.2113,6.8256,0.06383,1.00253
210.8,18.2803,6.86931,0.06383,1.00104
213.2,18.3492,6.91839,0.0654206,0.999533
215.6,18.4177,6.96716,0.0669,0.998014
218,18.4862,7.01104,0.064177,0.996473
220.4,18.5543,7.04906,0.06426,0.994923
222.8,18.6223,7.09393,0.0651226,0.993353
225.2,18.6902,7.14595,0.06418984,0.991762
227.6,18.7579,7.1741,0.0655583,0.990162
230,18.8256,7.2255,0.06458099,0.988543
232.4,18.893,7.24245,0.0648453,0.986912
234.8,18.9603,7.28824,0.0659137,0.985263
237.2,19.0274,7.33517,0.06306229,0.983602
239.6,19.0944,7.36105,0.06174,0.9819323
242,19.1613,7.40001,0.0616971,0.980242
244.4,19.2281,7.42075,0.0624,0.978541
246.8,19.2945,7.46676,0.0617496,0.976823
249.2,19.361,7.50784,0.059,0.975091
251.6,19.4274,7.54304,0.059,0.973342
254,19.4938,7.58173,0.05899757,0.971591
256.4,19.56,7.6083,0.06032,0.969821
258.8,19.6262,7.63303,0.059,0.968032
261.2,19.6922,7.66652,0.0613449,0.966242
263.6,19.7581,7.68416,0.0603927,0.964432
266,19.8239,7.7023,0.05988,0.962612
268.4,19.8897,7.72305,0.058516,0.960781
270.8,19.9554,7.73731,0.0593359,0.958941
273.2,20.0209,7.76496,0.0546267,0.957082
275.6,20.0866,7.77796,0.0533,0.955221
278,20.152,7.78881,0.0519719,0.953342
280.4,20.2175,7.79974,0.05066,0.951461
282.8,20.2829,7.81149,0.0516375,0.949561
285.2,20.3483,7.81277,0.0506723,0.9476512
287.6,20.4136,7.81418,0.0506699,0.945741
290,20.479,7.82119,0.0479108,0.9438112
292.4,20.5444,7.81827,0.0456958,0.941871
294.8,20.6097,7.80992,0.04505078,0.93993
297.2,20.6749,7.79402,0.0450649,0.937971
299.6,20.7402,7.7812,0.0424265,0.93601
302,20.8056,7.75896,0.0378156,0.934031
304.4,20.8707,7.73857,0.0346588,0.932051
306.8,20.9356,7.70855,0.0339415,0.930062
309.2,21.001,7.66286,0.03759981,0.928061
311.6,21.0664,7.62955,0.0360755,0.92606
314,21.1318,7.58189,0.0318502,0.924041
316.4,21.1969,7.53534,0.0319905,0.922021
318.8,21.2622,7.47979,0.03038,0.919991
321.2,21.3274,7.42246,0.02809068,0.91796
323.6,21.3926,7.37316,0.0227929,0.915911
326,21.4578,7.32531,0.0215486,0.913871
328.4,21.5232,7.28926,0.02052334,0.91181
330.8,21.5886,7.28049,0.0212699,0.90975
333.2,21.6539,7.24455,0.0180643,0.90768
335.6,21.7193,7.21107,0.0150133,0.905611
338,21.7847,7.14504,0.0156043,0.903531
340.4,21.8502,7.08239,0.01458,0.90144
342.8,21.9158,7.01289,0.013058,0.89935
345.2,21.9814,6.91068,0.0130495,0.897261
347.6,22.047,6.81456,0.008500279,0.895161
350,22.1126,6.69744,0.001146921,0.89305
352.4,22.1783,6.57528,-0.0018702,0.89094
354.8,22.2441,6.42543,-0.001279648,0.88883
357.2,22.31,6.27794,-0.004701179,0.88671
359.6,22.3757,6.12924,-0.007979423,0.88459
362,22.4416,5.96497,-0.01112799,0.882471
364.4,22.5076,5.78905,-0.0112485,0.88034
366.8,22.5736,5.61004,-0.0140628,0.878211
369.2,22.6397,5.43554,-0.0158648,0.87607
371.6,22.7059,5.24971,-0.02039827,0.87393
374,22.772,5.08936,-0.0255685,0.87179
376.4,22.8383,4.93266,-0.0374891,0.8696501
378.8,22.9047,4.77883,-0.037848,0.86751
381.2,22.971,4.6376,-0.0431644,0.8653601
383.6,23.0373,4.53765,-0.0472323,0.8632101
386,23.104,4.4744,-0.0567893,0.8610601
388.4,23.1707,4.43921,-0.0652983,0.85891
390.8,23.2373,4.47667,-0.0721949,0.8567501
393.2,23.3039,4.58094,-0.0854961,0.8546001
395.6,23.3705,4.76006,-0.09610065,0.8524401
398,23.4376,5.01684,-0.106495,0.85028
400.4,23.5047,5.37631,-0.124476,0.8481301
402.8,23.572,5.82683,-0.141022,0.8459701
405.2,23.6396,6.39332,-0.160202,0.8438101
407.6,23.7071,7.0718,-0.175878,0.8416501
410,23.7746,7.87821,-0.196817,0.8394901
412.4,23.8423,8.79997,-0.223702,0.8373401
414.8,23.91,9.84578,-0.253727,0.8351801
417.2,23.9779,11.0221,-0.289855,0.8330201
419.6,24.0457,12.3024,-0.328373,0.8308601
422,24.1138,13.6937,-0.365864,0.8287101
424.4,24.1824,15.217,-0.41139,0.82655
426.8,24.2511,16.8897,-0.466926,0.8244001
429.2,24.32,18.657,-0.525397,0.8222501
431.6,24.3888,20.5244,-0.598245,0.8201
434,24.4581,22.5195,-0.673332,0.8179501
436.4,24.5273,24.5996,-0.758569,0.8158001
438.8,24.5967,26.7051,-0.865573,0.81366
441.2,24.6659,28.8373,-0.974561,0.81151
443.6,24.7362,30.868,-1.09233,0.80937
446,24.806,32.6986,-1.22303,0.807231
448.4,24.8761,34.2904,-1.36226,0.8051
450.8,24.946,35.4716,-1.52476,0.802971
453.2,25.0162,36.2503,-1.67797,0.800841
455.6,25.0861,36.4612,-1.8498,0.79871
458,25.1561,36.1789,-2.0229,0.796591
460.4,25.2261,35.3848,-2.18274,0.794461
462.8,25.2961,34.1259,-2.34187,0.79235
465.2,25.3661,32.3597,-2.49909,0.790231
467.6,25.4359,29.8703,-2.64248,0.788121
470,25.5056,27.1666,-2.78821,0.78602
472.4,25.5754,24.2356,-2.91851,0.78392
474.8,25.6451,21.5939,-3.04027,0.78182
477.2,25.7148,18.9882,-3.14721,0.779731
479.6,25.7845,16.6137,-3.24366,0.777641
482,25.8544,14.4301,-3.32993,0.775551
484.4,25.9242,12.4452,-3.40339,0.773471
486.8,25.9942,10.7152,-3.46875,0.7714
489.2,26.0645,9.21429,-3.52501,0.76933
491.6,26.1348,7.98823,-3.57405,0.767261
494,26.2053,6.98991,-3.6133,0.765201
496.4,26.276,6.20201,-3.64286,0.76315
498.8,26.3469,5.55881,-3.67307,0.761101
501.2,26.4181,5.03135,-3.70036,0.75906
503.6,26.4891,4.57277,-3.72112,0.757021
506,26.5603,4.17701,-3.73598,0.75499
508.4,26.6316,3.82132,-3.75077,0.752961
510.8,26.7033,3.49619,-3.76257,0.750942
513.2,26.7749,3.23029,-3.77113,0.74893
515.6,26.8467,2.98776,-3.77026,0.74692
518,26.9185,2.81003,-3.77572,0.74492
520.4,26.9904,2.68852,-3.78321,0.742922
522.8,27.0624,2.604,-3.78855,0.740931
525.2,27.1342,2.544,-3.7952,0.738951
527.6,27.2065,2.5019,-3.79388,0.736971
530,27.2787,2.47675,-3.79328,0.735001
532.4,27.351,2.44865,-3.79038,0.733041
534.8,27.4235,2.45881,-3.79197,0.731081
537.2,27.496,2.46089,-3.79296,0.729141
539.6,27.5686,2.48884,-3.79156,0.727191
542,27.6413,2.50493,-3.79766,0.7252612
544.4,27.714,2.49639,-3.79448,0.7233312
546.8,27.7869,2.51633,-3.79989,0.721411
549.2,27.8599,2.52703,-3.79966,0.7195012
551.6,27.9328,2.52063,-3.79567,0.717601
554,28.0059,2.54024,-3.79453,0.715701
556.4,28.079,2.55364,-3.79569,0.713811
558.8,28.1522,2.54358,-3.79711,0.711931
561.2,28.2257,2.5475,-3.79482,0.710052
563.6,28.2992,2.52849,-3.79547,0.708191
566,28.373,2.51766,-3.79082,0.706331
568.4,28.4465,2.53767,-3.78856,0.704481
570.8,28.5203,2.53477,-3.79129,0.702642
573.2,28.5941,2.53625,-3.79027,0.700802
575.6,28.668,2.57102,-3.79129,0.698982
578,28.7422,2.55855,-3.79541,0.697162
580.4,28.8162,2.57392,-3.7969,0.695352
582.8,28.8904,2.59872,-3.79426,0.693552
585.2,28.9646,2.59356,-3.79294,0.691762
587.6,29.039,2.60516,-3.79165,0.689972
590,29.1134,2.61445,-3.79287,0.688203
592.4,29.1878,2.63673,-3.78677,0.686432
594.8,29.2622,2.6394,-3.78981,0.684672
597.2,29.3366,2.65274,-3.79569,0.682922
599.6,29.4109,2.6656,-3.79292,0.681182
602,29.4855,2.67123,-3.79327,0.679452
604.4,29.5602,2.70915,-3.7954,0.677733
606.8,29.6351,2.70086,-3.79836,0.676012
609.2,29.7103,2.72562,-3.78794,0.674312
611.6,29.7847,2.7383,-3.79429,0.6726123
614,29.86,2.76294,-3.79427,0.6709223
616.4,29.9353,2.75726,-3.793,0.669242
618.8,,,,
621.2,,,,
623.6,,,,
626,,,,
628.4,,,,
630.8,,,,
633.2,,,,
635.6,,,,
638,,,,
640.4,,,,
642.8,,,,
645.2,,,,
647.6,,,,
650,,,,
652.4,,,,
654.8,,,,
657.2,,,,
659.6,,,,
662,,,,
664.4,,,,
666.8,,,,
669.2,,,,
671.6,,,,
674,,,,
676.4,,,,
678.8,,,,
681.2,,,,
683.6,,,,
686,,,,
688.4,,,,
690.8,,,,
693.2,,,,
695.6,,,,
698,,,,
700.4,,,,
702.8,,,,
705.2,,,,
707.6,,,,
710,,,,
712.4,,,,
714.8,,,,
717.2,,,,
719.6,,,,
722,,,,
724.4,,,,
726.8,,,,
729.2,,,,
731.6,,,,
734,,,,
736.4,,,,
738.8,,,,
741.2,,,,
743.6,,,,
746,,,,
748.4,,,,
750,,,,

File: ABS_STA_N2_30KData_211020_R2.csv
##Temp./Â°C,Time/min,Mass loss(subtr.2)/mg,DSC(subtr.2)/(mW/mg),Sensit./(uV/mW)
49.456,10.01,0.02467,-0.06542088,1.05401
51.956,11.53604,0.03310896,0.03856606,1.05405
54.456,11.88463,0.03499515,0.1093,1.05406
56.956,12.1389,0.03291707,0.16219,1.05404
59.456,12.35277,0.03584753,0.20421,1.05399
61.956,12.54256,0.03820734,0.244,1.05391
64.456,12.71739,0.03497911,0.2725,1.0538
66.956,12.88075,0.03749059,0.30145,1.05366
69.456,13.03773,0.03686186,0.32677,1.05349
71.956,13.188,0.03860161,0.35119,1.05329
74.456,13.33279,0.03915714,0.37323,1.05306
76.956,13.4725,0.03906181,0.39616,1.0528
79.456,13.60803,0.03873081,0.41796,1.05251
81.956,13.7393,0.04096601,0.43856,1.05219
84.456,13.86685,0.03994627,0.45116,1.05185
86.956,13.99051,0.0401663,0.46439,1.05147
89.456,14.1104,0.04067477,0.47173,1.05107
91.956,14.22655,0.04246648,0.48218,1.05064
94.456,14.33985,0.04441696,0.4929,1.05018
96.956,14.45049,0.04236465,0.5068,1.04969
99.456,14.55874,0.04470356,0.52908,1.04917
101.956,14.66465,0.04376076,0.54918,1.04863
104.456,14.76847,0.04176904,0.57356,1.04806
106.956,14.8702,0.04454021,0.60014,1.04746
109.456,14.97015,0.04545263,0.63663,1.04683
111.956,15.06903,0.04559223,0.67701,1.04618
114.456,15.166,0.04569319,0.71979,1.0455
116.956,15.26145,0.0439748,0.74184,1.04479
119.456,15.3563,0.0436509,0.74565,1.04406
121.956,15.44917,0.04381753,0.74468,1.0433
124.456,15.5411,0.05134725,0.75591,1.04252
126.956,15.63175,0.04511278,0.7648,1.04171
129.456,15.72134,0.04791802,0.77643,1.04087
131.956,15.80964,0.04854764,0.79003,1.04001
134.456,15.89686,0.05071947,0.7954,1.03912
136.956,15.98351,0.04909885,0.79668,1.03821
139.456,16.0689,0.04716047,0.80062,1.03727
141.956,16.15371,0.04632608,0.80686,1.03631
144.456,16.23764,0.04682312,0.81632,1.03533
146.956,16.32078,0.04708355,0.82741,1.03432
149.456,16.4032,0.0479812,0.83935,1.03328
151.956,16.4849,0.04891091,0.85175,1.03223
154.456,16.5659,0.05006391,0.86678,1.03115
156.956,16.64668,0.05082199,0.88052,1.03004
159.456,16.72666,0.04937095,0.89327,1.02892
161.956,16.80617,0.04694162,0.90968,1.02777
164.456,16.88533,0.04795977,0.92629,1.02659
166.956,16.9638,0.0492399,0.93755,1.0254
169.456,17.0418,0.04903218,0.95433,1.02418
171.956,17.11934,0.05033839,0.96688,1.02294
174.456,17.19657,0.04969847,0.98108,1.02168
176.956,17.27306,0.04902885,0.99382,1.0204
179.456,17.34913,0.04903354,1.00461,1.0191
181.956,17.42464,0.04988228,1.01817,1.01777
184.456,17.4998,0.04880923,1.03046,1.01643
186.956,17.57465,0.04858092,1.04135,1.01506
189.456,17.64894,0.04989772,1.05543,1.01367
191.956,17.72285,0.05121851,1.06557,1.01227
194.456,17.79632,0.04850373,1.07652,1.01084
196.956,17.86937,0.04726011,1.08944,1.0094
199.456,17.94262,0.04726,1.10052,1.00793
201.956,18.0153,0.04726,1.11223,1.00644
204.456,18.08766,0.04742946,1.1205,1.00494
206.956,18.15995,0.04727293,1.13185,1.00342
209.456,18.23171,0.0502382,1.13999,1.00188
211.956,18.3034,0.05046022,1.14843,1.00032
214.456,18.3748,0.05337641,1.15955,0.99874
216.956,18.44612,0.05441026,1.16484,0.99715
219.456,18.5171,0.05016467,1.17073,0.99553
221.956,18.58788,0.04732243,1.18024,0.9939
224.456,18.65858,0.04647615,1.18625,0.99226
226.956,18.72906,0.04746924,1.19414,0.99059
229.456,18.79932,0.04811144,1.20374,0.98891
231.956,18.8694,0.04545799,1.21038,0.98722
234.456,18.9394,0.04259009,1.21728,0.9855
236.956,19.00919,0.04584555,1.22297,0.98378
239.456,19.0789,0.04518249,1.229,0.98203
241.956,19.14848,0.04382028,1.23403,0.98027
244.456,19.21791,0.04870577,1.24012,0.9785
246.956,19.2871,0.04204194,1.24748,0.97671
249.456,19.3563,0.04291594,1.25074,0.9749
251.956,19.42531,0.04208718,1.25782,0.97309
254.456,19.4941,0.04332596,1.2624,0.97125
256.956,19.5627,0.04862858,1.268,0.96941
259.456,19.63139,0.04881483,1.27367,0.96755
261.956,19.69998,0.0422314,1.27809,0.96567
264.456,19.76855,0.02781107,1.28186,0.96379
266.956,19.83701,0.03593054,1.2873,0.96189
269.456,19.90529,0.0495924,1.28955,0.95997
271.956,19.97364,0.04190532,1.293,0.95805
274.456,20.04176,0.04078537,1.29763,0.95611
276.956,20.10971,0.03689468,1.30001,0.95416
279.456,20.17786,0.03260331,1.29977,0.9522
281.956,20.24596,0.03410061,1.30558,0.95023
284.456,20.314,0.0327846,1.30725,0.94825
286.956,20.382,0.03410988,1.30741,0.94625
289.456,20.44997,0.03268002,1.30628,0.94425
291.956,20.51786,0.03133777,1.30753,0.94223
294.456,20.58584,0.02873573,1.30313,0.94021
296.956,20.65362,0.02869974,1.29927,0.93817
299.456,20.72159,0.02892628,1.29593,0.93612
301.956,20.78951,0.02795945,1.29133,0.93407
304.456,20.85738,0.02576635,1.28485,0.93201
306.956,20.92501,0.01756143,1.27866,0.92993
309.456,20.99311,0.02549318,1.27332,0.92785
311.956,21.06085,0.01998706,1.25568,0.92576
314.456,21.12869,0.01904799,1.24125,0.92366
316.956,21.19655,0.01507349,1.22836,0.92155
319.456,21.26435,0.01425226,1.21211,0.91944
321.956,21.33209,0.009848232,1.19448,0.91732
324.456,21.39995,0.00844,1.17155,0.91519
326.956,21.46786,0.007246214,1.15027,0.91305
329.456,21.5358,0.01020183,1.12918,0.9109
331.956,21.60353,0.007090054,1.10977,0.90875
334.456,21.67148,0.005800479,1.09298,0.9066
336.956,21.73949,0.001529225,1.07456,0.90443
339.456,21.80753,-0.001204898,1.05718,0.90226
341.956,21.87559,-0.002598954,1.03987,0.90009
344.456,21.94371,-0.005695975,1.01685,0.89791
346.956,22.0118,-0.01125787,0.99537,0.89572
349.456,22.08008,-0.009651112,0.96578,0.89353
351.956,22.14845,-0.009631279,0.9359,0.89133
354.456,22.21666,-0.01244884,0.90089,0.88913
356.956,22.28501,-0.01110111,0.85122,0.88693
359.456,22.3534,-0.01860239,0.82679,0.88472
361.956,22.42165,-0.02575022,0.7951,0.88251
364.456,22.49071,-0.02647589,0.75499,0.88029
366.956,22.5594,-0.02514236,0.71102,0.87807
369.456,22.62803,-0.029555,0.67417,0.87584
371.956,22.69686,-0.03598806,0.63171,0.87362
374.456,22.76589,-0.03903803,0.58955,0.87139
376.956,22.83474,-0.04497844,0.55502,0.86915
379.456,22.90374,-0.05037333,0.52163,0.86692
381.956,22.97299,-0.05708926,0.49182,0.86468
384.456,23.04214,-0.06703395,0.47329,0.86244
386.956,23.11129,-0.0735128,0.46283,0.8602
389.456,23.18073,-0.0795139,0.4654,0.85796
391.956,23.25013,-0.09018123,0.48444,0.85571
394.456,23.31972,-0.10493,0.51852,0.85347
396.956,23.38938,-0.11362,0.57598,0.85122
399.456,23.45908,-0.12689,0.65231,0.84898
401.956,23.52882,-0.14217,0.75683,0.84673
404.456,23.59885,-0.16045,0.88689,0.84448
406.956,23.66902,-0.17725,1.04995,0.84223
409.456,23.73925,-0.20222,1.24417,0.83998
411.956,23.80941,-0.22707,1.47067,0.83774
414.456,23.87986,-0.2564,1.73191,0.83549
416.956,23.95044,-0.29165,2.02577,0.83324
419.456,24.02117,-0.32707,2.35217,0.83099
421.956,24.09207,-0.36862,2.71656,0.82875
424.456,24.16321,-0.41739,3.11441,0.8265
426.956,24.23447,-0.46987,3.54607,0.82426
429.456,24.3059,-0.53516,4.00991,0.82202
431.956,24.37748,-0.60334,4.50854,0.81978
434.456,24.4494,-0.68624,5.03919,0.81754
436.956,24.52148,-0.77835,5.58436,0.8153
439.456,24.59382,-0.88776,6.14695,0.81307
441.956,24.66629,-1.00333,6.70016,0.81084
444.456,24.73895,-1.13304,7.22464,0.80861
446.956,24.81186,-1.27335,7.69307,0.80638
449.456,24.88476,-1.42468,8.07583,0.80416
451.956,24.95774,-1.5905,8.33279,0.80194
454.456,25.03075,-1.76038,8.4472,0.79972
456.956,25.1037,-1.92702,8.40276,0.79751
459.456,25.17657,-2.09606,8.2093,0.7953
461.956,25.24942,-2.26897,7.87761,0.79309
464.456,25.32196,-2.42584,7.42452,0.79089
466.956,25.3949,-2.58223,6.87633,0.78869
469.456,25.4676,-2.72806,6.19861,0.7865
471.956,25.5402,-2.86554,5.41313,0.78431
474.456,25.61274,-2.98576,4.69172,0.78212
476.956,25.68528,-3.08923,4.03367,0.77994
479.456,25.75791,-3.179,3.42573,0.77776
481.956,25.8306,-3.26235,2.88856,0.77559
484.456,25.90329,-3.33631,2.40289,0.77343
486.956,25.976,-3.40352,1.97404,0.77127
489.456,26.0492,-3.45714,1.60302,0.76911
491.956,26.12231,-3.50129,1.29511,0.76696
494.456,26.19584,-3.54356,1.04725,0.76481
496.956,26.2694,-3.57661,0.85446,0.76268
499.456,26.3432,-3.60607,0.69482,0.76054
501.956,26.41709,-3.62262,0.56102,0.75842
504.456,26.49077,-3.64402,0.45319,0.75629
506.956,26.56536,-3.66171,0.35227,0.75418
509.456,26.6398,-3.67753,0.26974,0.75207
511.956,26.7143,-3.6848,0.18955,0.74997
514.456,26.7891,-3.6916,0.13045,0.74787
516.956,26.86379,-3.69827,0.07566367,0.74579
519.456,26.9386,-3.70207,0.03588682,0.7437
521.956,27.01342,-3.7027,0.00557343,0.74163
524.456,27.0885,-3.70314,-0.01402212,0.73956
526.956,27.16362,-3.70751,-0.02832735,0.7375
529.456,27.23876,-3.7075,-0.03921458,0.73545
531.956,27.3141,-3.70752,-0.04357827,0.7334
534.456,27.38948,-3.70926,-0.04354365,0.73137
536.956,27.465,-3.70926,-0.04303601,0.72933
539.456,27.5404,-3.71057,-0.04855771,0.72731
541.956,27.6163,-3.70874,-0.04889143,0.7253
544.456,27.69207,-3.71094,-0.04519694,0.72329
546.956,27.7679,-3.70941,-0.05242824,0.72129
549.456,27.84388,-3.70794,-0.05579254,0.7193
551.956,27.91987,-3.70795,-0.05818876,0.71732
554.456,27.9958,-3.71079,-0.05802792,0.71534
556.956,28.072,-3.70997,-0.06302333,0.71337
559.456,28.14837,-3.70941,-0.06671566,0.71142
561.956,28.2248,-3.71082,-0.07384089,0.70947
564.456,28.30126,-3.7108,-0.07580242,0.70753
566.956,28.378,-3.7108,-0.07919681,0.70559
569.456,28.45445,-3.70694,-0.07724468,0.70367
571.956,28.5313,-3.70678,-0.08093874,0.70176
574.456,28.6085,-3.70502,-0.07837618,0.69985
576.956,28.68548,-3.70367,-0.0796589,0.69795
579.456,28.7626,-3.70378,-0.08013867,0.69606
581.956,28.8397,-3.70911,-0.07367574,0.69418
584.456,28.9168,-3.7062,-0.07368124,0.69231
586.956,28.99417,-3.70048,-0.07750192,0.69045
589.456,29.07146,-3.70542,-0.07274378,0.6886
591.956,29.1488,-3.70805,-0.07809497,0.68676
594.456,29.2264,-3.70937,-0.07415042,0.68493
596.956,29.30381,-3.71001,-0.07799858,0.6831
599.456,29.38155,-3.7092,-0.0726154,0.68129
601.956,29.45934,-3.70302,-0.07715781,0.67948
604.456,29.537,-3.70586,-0.07382853,0.67769
606.956,29.61488,-3.70708,-0.06927735,0.6759
609.456,29.69282,-3.70448,-0.07222526,0.67413
611.956,29.77088,-3.70447,-0.07131902,0.67236
614.456,29.84917,-3.70256,-0.07233027,0.67061
616.956,29.9275,-3.70263,-0.0681984,0.66886
619.256,29.99975,-3.70652,-0.07287466,0.66726