Folder: fsri_materials_database/01_Data/ABS/STA/N2/3K_min

Note: README.md
# Materials and Products Database
### Repository of materials and products properties and fire test data to improve fire modeling and fire investigation.

This project was supported in part by Award No. 2019-DU-BX-0018, awarded by the National Institute of Justice, Office of Justice Programs, U.S. Department of Justice. The opinions, findings, and conclusions or recommendations expressed in this publication / program / exhibition are those of the author(s) and do not necessarily reflect those of the Department of Justice.

***
***

__Cite this database:__ "McKinnon, M., Weinschenk, C., Dow, N., DiDomizio, M., and Madrzykowski, D. Materials and Products Database (Version 1.0.0), Fire Safety Research Institute, UL Research Institutes. Columbia, MD 21045, 2023."

__Cite the Technical Reference Guide:__ "McKinnon, M., Weinschenk, C., and Madrzykowski, D. Materials and Products Database - Technical Reference Guide, Fire Safety Research Institute, UL Research Institutes. Columbia, MD 21045, 2023."

__Cite the User Guide:__ "McKinnon, M., and Weinschenk, C. Materials and Products Database - User Guide, Fire Safety Research Institute, UL Research Institutes. Columbia, MD 21045, 2023."

***
***

## Database Structure

## 01_Data/
Raw data generated from each apparatus are included here in plain-text format. The data is organized first by material, next by the short name of test apparatus used, and where applicable additional filtering by test settings.

### Test Apparatus and Data File Structure
- __Cone Calorimeter__ (Cone)
    + Data file structure includes the material, the short name for the apparatus, heat flux setting and scan/scalar, date of test, and replicate number. Scan is for the raw output data and scalar is for the initial conditions and high-level test parameters. 
        * Example: __MDF_Cone_HF25scalar_210323_R1__ stands for the first replicate of scalar data generated from a medium density fiber board test in cone calorimeter exposed to 25 kW/m<sup>2</sup> on March 23, 2021.
    + A _Cone_Notes.csv_ is generated for each material from the __plot_Cone_data.py__ script. For materials whose experiments deviated from typical behavior relevant pictures are included in the respective material directory.
- __Fourier Transform Infrared Spectrometer__ (FTIR)
    + The FTIR directory contains subdirectories for the Attenuated Total Reflectance method (ATR) and the Integrating Sphere (IS)
    + Data file structure for the ATR experiment files includes the material, the abbreviated name for the apparatus, date of test, and replicate number. 
        * Example: __MDF_ATR_210323_R5__ stands for the fifth replicate of data collected with the ATR accessory conducted on June 8, 2021.
    + Data file structure for the IS experiment files includes the material, the abbreviated name for the apparatus, the measurand, whether the test is a sample measurement or standard reference, date of test, and replicate number.
        * Example: __OSB_IS_REFLECT_MEAS_2

File: ABS_STA_N2_3KData_211019_R1.csv
##Temp./Â°C,Time/min,Mass loss(subtr.2)/mg,DSC(subtr.2)/(mW/mg),Sensit./(uV/mW)
50.205,10.01667,-0.0283,-0.00266273,0.99785
52.805,13.92734,-0.03367101,0.03841752,0.99982
55.405,15.4735,-0.03263202,0.05287712,1.00173
58.005,16.74009,-0.03572046,0.06296003,1.00356
60.605,17.88083,-0.03748871,0.06942878,1.00532
63.205,18.94025,-0.03616636,0.07795996,1.00701
65.805,19.94707,-0.03816411,0.07992803,1.00862
68.405,20.91872,-0.04088952,0.08668714,1.01016
71.005,21.86808,-0.0394374,0.08780936,1.01163
73.605,22.7969,-0.04179476,0.09229173,1.01303
76.205,23.71321,-0.04144386,0.0891183,1.01436
78.805,24.61887,-0.03607272,0.09218066,1.01562
81.405,25.51501,-0.04234341,0.08773654,1.01681
84.005,26.4025,-0.04244219,0.09049188,1.01793
86.605,27.2786,-0.04410812,0.09037694,1.01897
89.205,28.15555,-0.04359205,0.09062759,1.01995
91.805,29.0236,-0.04503131,0.09459563,1.02086
94.405,29.88897,-0.04245294,0.09704704,1.02171
97.005,30.74643,-0.04461202,0.09799952,1.02248
99.605,31.6019,-0.04394044,0.10132,1.02319
102.205,32.45316,-0.04567684,0.10457,1.02383
104.805,33.302,-0.04471851,0.10318,1.0244
107.405,34.15262,-0.04427877,0.11253,1.02491
110.005,35.00031,-0.04628998,0.1157,1.02535
112.605,35.84612,-0.04611807,0.11177,1.02573
115.205,36.69405,-0.0441419,0.11371,1.02604
117.805,37.53614,-0.04377043,0.1121,1.02628
120.405,38.38044,-0.04684585,0.11799,1.02647
123.005,39.22142,-0.04617557,0.11682,1.02659
125.605,40.061,-0.04574106,0.12051,1.02664
128.205,40.90266,-0.04562741,0.12277,1.02664
130.805,41.7401,-0.04563,0.1225,1.02657
133.405,42.57568,-0.04790619,0.12054,1.02644
136.005,43.41017,-0.04650999,0.12,1.02625
138.605,44.24395,-0.04727132,0.12294,1.026
141.205,45.07591,-0.04924952,0.12202,1.02569
143.805,45.90361,-0.04825849,0.12682,1.02531
146.405,46.73386,-0.04858957,0.12533,1.02489
149.005,47.56465,-0.04879647,0.12503,1.0244
151.605,48.3932,-0.04880746,0.12602,1.02385
154.205,49.21517,-0.04987369,0.12474,1.02325
156.805,50.04757,-0.05188799,0.12737,1.02259
159.405,50.87246,-0.05141907,0.13036,1.02187
162.005,51.69939,-0.05048147,0.12897,1.0211
164.605,52.5242,-0.04931324,0.13056,1.02027
167.205,53.3439,-0.05511213,0.12845,1.01939
169.805,54.16828,-0.05278978,0.12824,1.01845
172.405,54.99041,-0.05598576,0.12722,1.01746
175.005,55.8115,-0.05790707,0.12658,1.01642
177.605,56.6342,-0.05645116,0.1277,1.01533
180.205,57.46141,-0.05374816,0.12697,1.01418
182.805,58.28575,-0.05956758,0.12607,1.01298
185.405,59.10791,-0.05735851,0.12761,1.01173
188.005,59.9286,-0.05724614,0.1292,1.01043
190.605,60.7517,-0.05930326,0.12993,1.00909
193.205,61.5752,-0.062331,0.12867,1.00769
195.805,62.3982,-0.05945268,0.12507,1.00624
198.405,63.22279,-0.06054937,0.12773,1.00475
201.005,64.04475,-0.06057368,0.12866,1.00321
203.605,64.8653,-0.06167615,0.12728,1.00163
206.205,65.68404,-0.06417696,0.12772,1.0
208.805,66.50338,-0.06306811,0.12669,0.99832
211.405,67.32391,-0.06643514,0.12693,0.9966
214.005,68.13891,-0.06822871,0.12792,0.99483
216.605,68.96124,-0.06746113,0.12799,0.99303
219.205,69.7807,-0.07065399,0.12585,0.99117
221.805,70.60016,-0.0741543,0.1274,0.98928
224.405,71.42209,-0.07301517,0.12488,0.98735
227.005,72.24606,-0.07332278,0.12652,0.98537
229.605,73.0698,-0.07745143,0.1272,0.98336
232.205,73.89529,-0.0764764,0.12743,0.9813
234.805,74.7174,-0.07832053,0.12741,0.97921
237.405,75.53702,-0.08447885,0.12617,0.97708
240.005,76.3567,-0.0855899,0.12738,0.97491
242.605,77.1785,-0.08708674,0.12479,0.97271
245.205,78.00174,-0.08993909,0.12476,0.97046
247.805,78.82355,-0.09433969,0.12191,0.96819
250.405,79.64617,-0.09377504,0.12025,0.96588
253.005,80.46983,-0.09771523,0.11723,0.96353
255.605,81.2915,-0.09557626,0.1165,0.96115
258.205,82.11406,-0.10103,0.11708,0.95874
260.805,82.938,-0.10247,0.11462,0.95629
263.405,83.7653,-0.10307,0.11174,0.95381
266.005,84.5908,-0.10804,0.11255,0.95131
268.605,85.41681,-0.11145,0.10941,0.94877
271.205,86.24261,-0.11229,0.10782,0.9462
273.805,87.0655,-0.11195,0.10564,0.94361
276.405,87.89166,-0.1115,0.10334,0.94098
279.005,88.71809,-0.1166,0.10037,0.93833
281.605,89.5472,-0.11711,0.09816732,0.93565
284.205,90.3729,-0.12088,0.09614482,0.93294
286.805,91.19735,-0.12107,0.0923689,0.93021
289.405,92.02207,-0.12384,0.09090259,0.92745
292.005,92.8484,-0.12286,0.09047284,0.92467
294.605,93.67806,-0.12804,0.08972547,0.92187
297.205,94.5085,-0.1308,0.09467157,0.91904
299.805,95.3439,-0.13515,0.09437094,0.91619
302.405,96.17868,-0.1344,0.09549307,0.91332
305.005,97.0099,-0.13246,0.09055917,0.91043
307.605,97.83974,-0.13591,0.09134754,0.90751
310.205,98.67007,-0.13716,0.08753143,0.90458
312.805,99.50445,-0.14339,0.0890329,0.90163
315.405,100.335,-0.14577,0.08283689,0.89866
318.005,101.165,-0.15109,0.08221856,0.89567
320.605,101.995,-0.15074,0.07887967,0.89266
323.205,102.827,-0.15655,0.0742749,0.88964
325.805,103.66,-0.15848,0.06653637,0.8866
328.405,104.492,-0.16275,0.06167335,0.88355
331.005,105.321,-0.16572,0.06294568,0.88048
333.605,106.15,-0.17375,0.06061523,0.8774
336.205,106.991,-0.17682,0.06331904,0.8743
338.805,107.83,-0.18703,0.06732798,0.87119
341.405,108.67,-0.18811,0.06322804,0.86807
344.005,109.508,-0.19994,0.0680298,0.86494
346.605,110.348,-0.20923,0.06807272,0.8618
349.205,111.182,-0.21756,0.06900186,0.85864
351.805,112.016,-0.22625,0.0722783,0.85548
354.405,112.855,-0.2415,0.09140405,0.85231
357.005,113.7023,-0.25517,0.10628,0.84913
359.605,114.546,-0.27184,0.1246,0.84594
362.205,115.39,-0.29104,0.1408,0.84275
364.805,116.23,-0.31306,0.16788,0.83955
367.405,117.068,-0.34065,0.19644,0.83634
370.005,117.917,-0.37088,0.22599,0.83312
372.605,118.759,-0.4023,0.25796,0.82991
375.205,119.602,-0.43905,0.29993,0.82669
377.805,120.447,-0.49153,0.34369,0.82346
380.405,121.2903,-0.54442,0.3908,0.82023
383.005,122.13,-0.60988,0.45228,0.817
385.605,122.971,-0.68402,0.51214,0.81377
388.205,123.818,-0.77843,0.58987,0.81053
390.805,124.666,-0.88872,0.67626,0.8073
393.405,125.515,-1.02054,0.77194,0.80406
396.005,126.363,-1.15961,0.86482,0.80083
398.605,127.211,-1.32902,0.94837,0.7976
401.205,128.063,-1.51165,1.02445,0.79436
403.805,128.916,-1.7131,1.06703,0.79113
406.405,129.77,-1.92441,1.0767,0.78791
409.005,130.624,-2.13826,1.05183,0.78468
411.605,131.473,-2.34213,0.98134,0.78146
414.205,132.322,-2.5266,0.88843,0.77825
416.805,133.17,-2.70315,0.77979,0.77503
419.405,134.014,-2.85391,0.67616,0.77183
422.005,134.858,-2.98553,0.58529,0.76863
424.605,135.702,-3.10382,0.51221,0.76543
427.205,136.55,-3.20845,0.45438,0.76225
429.805,137.401,-3.30392,0.40326,0.75907
432.405,138.249,-3.39231,0.35616,0.75589
435.005,139.1067,-3.4679,0.30566,0.75273
437.605,139.962,-3.53358,0.26358,0.74957
440.205,140.815,-3.59269,0.22522,0.74643
442.805,141.67,-3.63823,0.20206,0.74329
445.405,142.523,-3.6834,0.18601,0.74017
448.005,143.381,-3.72664,0.17923,0.73705
450.605,144.237,-3.76122,0.17128,0.73395
453.205,145.097,-3.79278,0.16096,0.73085
455.805,145.955,-3.82488,0.14913,0.72777
458.405,146.808,-3.8497,0.13878,0.72471
461.005,147.663,-3.87178,0.1268,0.72165
463.605,148.522,-3.89098,0.11586,0.71861
466.205,149.385,-3.90632,0.10203,0.71558
468.805,150.243,-3.91761,0.08612622,0.71257
471.405,151.1,-3.92314,0.07836357,0.70957
474.005,151.955,-3.92521,0.07244745,0.70658
476.605,152.82,-3.92649,0.07380789,0.70362
479.205,153.679,-3.92973,0.064843,0.70066
481.805,154.547,-3.93155,0.05369213,0.69773
484.405,155.408,-3.93175,0.04889566,0.69481
487.005,156.2667,-3.93027,0.04662586,0.6919
489.605,157.129,-3.93279,0.04415364,0.68902
492.205,157.992,-3.93287,0.04445833,0.68615
494.805,158.857,-3.93174,0.04270128,0.6833
497.405,159.718,-3.9348,0.04563866,0.68047
500.005,160.584,-3.93434,0.04954895,0.67766
502.605,161.443,-3.93544,0.05567784,0.67486
505.205,162.317,-3.93455,0.06462779,0.67209
507.805,163.192,-3.93461,0.07401716,0.66933
510.405,164.062,-3.93642,0.07920088,0.6666
513.005,164.922,-3.93771,0.07169591,0.66389
515.605,165.785,-3.93886,0.07702838,0.6612
518.205,166.652,-3.93571,0.07723162,0.65852
520.805,167.517,-3.93722,0.077838,0.65587
523.405,168.387,-3.939,0.08188213,0.65325
526.005,169.254,-3.93484,0.07986536,0.65064
528.605,170.116,-3.93797,0.08048061,0.64805
531.205,170.982,-3.93905,0.08098128,0.64549
533.805,171.85,-3.93773,0.07939841,0.64295
536.405,172.718,-3.93844,0.08360978,0.64044
539.005,173.5896,-3.93973,0.08206843,0.63795
541.605,174.4675,-3.94136,0.08226584,0.63548
544.205,175.337,-3.93972,0.08248994,0.63303
546.805,176.215,-3.94152,0.09392674,0.63061
549.405,177.09,-3.94132,0.09668503,0.62821
552.005,177.963,-3.94218,0.09578617,0.62584
554.605,178.8352,-3.94379,0.09170191,0.6235
557.205,179.705,-3.94352,0.09551482,0.62117
559.805,180.574,-3.94319,0.10235,0.61888
562.405,181.442,-3.94274,0.10911,0.6166
565.005,182.317,-3.94135,0.11213,0.61436
567.605,183.188,-3.94443,0.11464,0.61214
570.205,184.06,-3.94396,0.12409,0.60994
572.805,184.937,-3.94587,0.1271,0.60777
575.405,185.813,-3.94508,0.12947,0.60563
578.005,186.6865,-3.94487,0.12261,0.60352
580.605,187.56,-3.94698,0.12496,0.60143
583.205,188.431,-3.94988,0.12201,0.59936
585.805,189.304,-3.94685,0.12425,0.59733
588.405,190.1876,-3.9464,0.1278,0.59532
591.005,191.073,-3.94686,0.13862,0.59334
593.605,191.954,-3.94692,0.14042,0.59139
596.205,192.833,-3.94824,0.13748,0.58946
598.805,193.711,-3.94899,0.13857,0.58756
601.405,194.5928,-3.94962,0.14532,0.58569
604.005,195.476,-3.94658,0.14175,0.58384
606.605,196.359,-3.94795,0.14687,0.58203
609.205,197.23,-3.94533,0.13512,0.58024
611.805,198.106,-3.94583,0.13522,0.57848
614.405,198.984,-3.94444,0.13861,0.57675
617.005,199.8688,-3.94401,0.13382,0.57504
619.605,200.7559,-3.94399,0.135,0.57337
622.205,201.64,-3.9452,0.1377,0.57172
624.805,202.521,-3.94377,0.12565,0.5701
627.405,203.403,-3.94397,0.12641,0.56851
630.005,204.282,-3.94306,0.1287,0.56694
632.605,205.166,-3.9455,0.11715,0.56541
635.205,206.05,-3.94496,0.11143,0.5639
637.805,206.933,-3.94618,0.12115,0.56243
640.405,207.82,-3.94531,0.13238,0.56098
643.005,208.71,-3.94414,0.13193,0.55956
645.605,209.595,-3.94512,0.12185,0.55816
646.705,209.967,-3.94464,0.11533,0.55758