Folder: fsri_materials_database/01_Data/Particleboard/Cone (part 4)

File: Particleboard_Cone_HF50Scan_230705_R2.csv
Names,Time,Stack TC,Smoke TC,Exh Press,Smoke Comp,Smoke Meas,CO Meter,CO2 Meter,O2 Meter,Sample Mass,Ext Coeff,Start Test,Flame Verif
Chan Gain,,500,500,1,1,1,1,1,1,1,1,1.0,1.0
Offset,,0,0,0.138104,0,0,0,0,0,0,0,0.0,0.0
Gain,,1,1,25.011,13.0255,26.639,1,1,1,1.00088,0.812795,1.0,1.0
Units,sec,C,C,Pa,%,%,%,%,%,g,/m,,
Baseline,,56.238,59.1959,165.399,101.271,103.033,0.000352877,0.0433636,20.9303,-447.026,-0.122819,,
61,15,55.1336,58.0058,164.96,100.872,10.1815,0.000617894,0.0462499,20.9288,207.012,16.3506,0.0,0.0
122,30.25,55.7099,58.8723,165.668,100.966,9.93597,0.000482297,0.0457163,20.9313,206.531,16.5313,0.0,0.0
183,45.5,61.9386,73.4159,146.63,101.007,11.3416,0.00158236,0.14421,20.8745,204.83,15.5908,0.0,0.0
244,60.75,75.2554,94.8553,142.552,100.979,11.1237,0.00419167,0.528499,20.4067,201.797,15.7271,0.0,0.0
305,76,83.7517,103.686,140.47,100.982,10.718,0.00671051,0.61666,20.2266,198.604,15.9922,0.0,0.0
366,91.25,88.7679,106.615,143.109,100.816,10.6676,0.00676678,0.590937,20.252,195.572,16.0141,0.0,0.0
427,106.5,89.9457,104.304,144.738,100.65,10.9595,0.00654039,0.503783,20.3458,193.019,15.8099,0.0,0.0
488,121.75,89.1755,100.147,147.668,100.521,10.5953,0.00548758,0.424197,20.4422,190.597,16.0417,0.0,0.0
549,137,87.9679,97.4199,151.858,100.462,10.4912,0.00440213,0.367676,20.5225,188.555,16.1079,0.0,0.0
610,152.25,86.6554,94.6628,152.115,100.532,10.9822,0.00400033,0.335048,20.5735,186.644,15.7867,0.0,0.0
671,167.5,85.2398,92.7036,147.371,100.63,10.9351,0.00349703,0.31375,20.5965,184.702,15.8243,0.0,0.0
732,182.75,84.2534,91.0973,150.479,100.747,11.0253,0.00333882,0.296847,20.6153,182.961,15.774,0.0,0.0
793,198,83.4781,89.9745,153.129,100.935,10.9335,0.00272115,0.283178,20.6348,181.309,15.847,0.0,0.0
854,213.25,83.2854,89.2973,152.451,101.128,10.9123,0.00248475,0.272326,20.6507,179.648,15.8744,0.0,0.0
915,228.5,81.8998,88.4143,154.357,101.28,10.8253,0.00250339,0.267272,20.6592,178.016,15.9422,0.0,0.0
976,243.75,81.7839,87.6091,152.861,101.272,10.9969,0.00213655,0.260965,20.6675,176.535,15.8295,0.0,0.0
1037,259,81.3718,87.4718,151.464,101.062,10.6432,0.00221534,0.254818,20.6762,174.984,16.0478,0.0,0.0
1098,274.25,80.9408,86.642,154.103,100.708,11.0806,0.00220079,0.246832,20.6857,173.532,15.7356,0.0,0.0
1159,289.5,80.5222,86.703,150.417,100.25,11.1156,0.00185297,0.242068,20.689,172.101,15.6807,0.0,0.0
1220,304.75,80.5436,86.3799,154.885,99.9199,10.9018,0.00197899,0.23686,20.6945,170.63,15.7956,0.0,0.0
1281,320,80.1953,85.8119,151.892,99.7887,10.5847,0.0017309,0.22861,20.7066,169.279,15.9967,0.0,0.0
1342,335.25,79.6106,84.466,155.745,99.6611,10.6465,0.00178432,0.220692,20.7141,168.037,15.9461,0.0,0.0
1403,350.5,78.7812,83.6994,153.567,99.6106,10.3555,0.0019316,0.211324,20.7258,166.676,16.1401,0.0,0.0
1464,365.75,78.363,83.0349,158.027,99.6953,10.8538,0.00113387,0.205922,20.7321,165.465,15.811,0.0,0.0
1525,381,77.5599,82.6175,154.515,99.8352,10.7278,0.00157335,0.202003,20.7385,164.244,15.9043,0.0,0.0
1586,396.25,77.6163,81.7061,155.183,100.029,10.6546,0.00169461,0.194978,20.7462,163.063,15.9669,0.0,0.0
1647,411.5,77.4043,81.2673,153.4,100.138,10.5823,0.00165085,0.19175,20.7467,161.982,16.0233,0.0,0.0
1708,426.75,76.8076,81.4944,161.203,100.218,10.6839,0.00183915,0.188149,20.7563,160.871,15.9608,0.0,0.0
1769,442,76.0217,80.5958,155.169,100.253,10.8197,0.00167458,0.184362,20.7621,159.75,15.8732,0.0,0.0
1830,457.25,76.2304,80.033,156.944,100.319,10.5286,0.00160736,0.181788,20.7604,158.699,16.0724,0.0,0.0
1891,472.5,75.431,79.3805,156.423,100.487,10.6132,0.00177946,0.179038,20.7677,157.658,16.0273,0.0,0.0
1952,487.75,74.9821,79.2476,157.447,100.615,10.8156,0.00177574,0.176662,20.7712,156.557,15.9016,0.0,0.0
2013,503,75.1962,79.2453,152.186,100.721,10.9668,0.00176678,0.175225,20.7729,155.637,15.8102,0.0,0.0
2074,518.25,74.9579,79.16,152.133,100.79,10.5945,0.00204216,0.17532,20.7719,154.636,16.0613,0.0,0.0
2135,533.5,74.9148,79.1702,154.554,100.808,10.9343,0.00201277,0.176506,20.7705,153.615,15.8375,0.0,0.0
2196,548.75,74.6645,79.1897,156.036,100.839,10.6554,0.0013236,0.175512,20.7736,152.644,16.0239,0.0,0.0
2257,564,74.4567,79.0121,159.661,100.817,10.7896,0.00167754,0.176803,20.7703,151.673,15.9331,0.0,0.0
2318,579.25,74.0876,79.0507,154.733,100.75,10.705,0.00180284,0.176659,20.7725,150.622,15.9845,0.0,0.0
2379,594.5,74.1823,78.3394,154.287,100.63,10.505,0.00171197,0.177473,20.7703,149.731,16.1104,0.0,0.0
2440,609.75,74.3837,79.1995,153.69,100.713,10.6766,0.00177576,0.180914,20.7691,148.69,16.0008,0.0,0.0
2501,625,74.2348,79.4117,153.345,100.615,10.4766,0.00167569,0.182495,20.7675,147.66,16.1287,0.0,0.0
2562,640.25,74.6387,78.7693,158.257,100.467,10.7148,0.00205748,0.186527,20.7597,146.699,15.9579,0.0,0.0
2623,655.5,74.5652,79.6671,159.571,100.353,10.4254,0.0017343,0.187896,20.759,145.648,16.145,0.0,0.0
2684,670.75,74.5785,79.7971,155.589,100.204,10.4693,0.0015444,0.189816,20.7564,144.597,16.1045,0.0,0.0
2745,686,74.9239,80.3568,157.151,100.052,10.5847,0.00185368,0.196591,20.7495,143.646,16.0155,0.0,0.0
2806,701.25,75.236,80.6958,156.026,100.282,10.6985,0.00151727,0.197809,20.7488,142.465,15.9556,0.0,0.0
2867,716.5,75.9775,80.8339,151.691,100.464,10.679,0.00163099,0.200036,20.7469,141.394,15.9815,0.0,0.0
2928,731.75,76.0999,81.3972,152.239,100.701,10.6595,0.00144956,0.207027,20.7378,140.363,16.0114,0.0,0.0
2989,747,76.1692,81.4531,151.867,100.739,10.679,0.00144615,0.210168,20.7353,139.142,16.001,0.0,0.0
3050,762.25,77.0042,82.5315,153.262,100.697,10.7863,0.00138792,0.216667,20.7286,137.981,15.9267,0.0,0.0
3111,777.5,77.4961,83.3034,153.195,100.618,10.5652,0.00153755,0.223179,20.718,136.86,16.0689,0.0,0.0
3172,792.75,77.7238,83.7838,156.789,100.371,10.6717,0.00146211,0.229866,20.711,135.579,15.9798,0.0,0.0
3233,808,78.5228,83.7724,154.833,100.581,10.8579,0.00181404,0.23587,20.7002,134.408,15.8714,0.0,0.0
3294,823.25,78.5149,83.8825,152.403,100.791,10.8392,0.00169223,0.240207,20.6989,133.137,15.8986,0.0,0.0
3355,838.5,79.0688,84.8649,154.972,100.955,10.9839,0.0017425,0.244641,20.6936,131.776,15.8156,0.0,0.0
3416,853.75,79.2367,85.4858,154.01,101.05,11.0896,0.00143864,0.247709,20.688,130.505,15.754,0.0,0.0
3477,869,79.471,85.3791,153.589,101.05,10.6717,0.00199637,0.250482,20.6833,129.233,16.0279,0.0,0.0
3538,884.25,79.6208,86.1072,154.819,101.07,10.8806,0.00160215,0.254984,20.6806,127.802,15.8911,0.0,0.0
3599,899.5,80.1515,86.1765,155.804,101.187,10.5132,0.0019289,0.266594,20.6635,126.551,16.1443,0.0,0.0
3660,914.75,80.7303,86.7182,150.24,101.252,10.9148,0.00205647,0.265248,20.6666,125.11,15.8816,0.0,0.0
3721,930,80.6422,87.4883,155.376,101.285,10.8221,0.00168818,0.269113,20.659,123.769,15.9447,0.0,0.0
3782,945.25,80.9596,87.1376,149.767,101.322,10.7083,0.00213182,0.269186,20.664,122.387,16.0227,0.0,0.0
3843,960.5,80.9341,86.952,150.865,101.34,10.6766,0.00201462,0.268742,20.6625,120.976,16.0451,0.0,0.0
3904,975.75,80.7764,87.0449,151.509,101.277,10.8018,0.00188989,0.272954,20.663,119.525,15.9575,0.0,0.0
3965,991,81.0745,87.7938,152.859,101.194,10.5636,0.00182653,0.274587,20.6552,118.114,16.1107,0.0,0.0
4026,1006.25,81.1878,88.3391,151.178,101.077,10.7538,0.00231515,0.278973,20.6479,116.772,15.9752,0.0,0.0
4087,1021.5,81.9379,88.8308,150.949,100.936,10.8587,0.00222301,0.279462,20.6441,115.311,15.896,0.0,0.0
4148,1036.75,82.0749,88.2466,147.552,100.751,10.7571,0.00210502,0.274808,20.6487,113.97,15.95,0.0,0.0
4209,1052,81.9336,87.791,149.044,100.552,10.4741,0.00238494,0.270899,20.6522,112.679,16.1259,0.0,0.0
4270,1067.25,82.1207,87.9924,152.984,100.335,10.3652,0.00216916,0.268103,20.6557,111.268,16.185,0.0,0.0
4331,1082.5,81.4101,87.6753,152.957,100.113,10.8172,0.0021785,0.259955,20.6608,110.127,15.8649,0.0,0.0
4392,1097.75,81.1953,86.9608,156.909,99.9044,10.5701,0.00184212,0.253147,20.6699,108.986,16.0148,0.0,0.0
4453,1113,80.9563,86.2927,156.921,99.7462,10.5115,0.00189541,0.240188,20.6832,107.885,16.0431,0.0,0.0
4514,1128.25,80.086,84.7253,157.289,99.7489,10.5245,0.00172803,0.225295,20.7008,107.014,16.0345,0.0,0.0
4575,1143.5,78.5794,82.5062,159.259,99.8034,10.4465,0.00188273,0.190338,20.7279,106.393,16.0915,0.0,0.0
4636,1158.75,76.5883,78.9184,159.696,99.929,10.601,0.00217351,0.142394,20.7875,105.923,15.9958,0.0,0.0
4697,1174,74.7405,76.3882,162.624,100.004,10.3359,0.0047786,0.121945,20.8184,105.693,16.1816,0.0,0.0
4758,1189.25,73.3091,74.7554,161.938,100.075,10.3148,0.00556991,0.116277,20.8315,105.372,16.2013,0.0,0.0
4819,1204.5,71.7166,73.5151,158.269,100.24,10.301,0.0058355,0.111771,20.838,105.062,16.2226,0.0,0.0
4880,1219.75,69.9624,72.1141,160.251,100.434,10.1668,0.00617595,0.10963,20.8405,104.972,16.3298,0.0,0.0
4941,1235,69.6175,71.8219,159.962,100.615,10.4172,0.0067406,0.106667,20.8444,104.702,16.1692,0.0,0.0
5002,1250.25,69.1758,71.3276,160.055,100.779,10.3481,0.00693134,0.103593,20.8484,104.402,16.2283,0.0,0.0
5063,1265.5,68.3634,70.5255,160.981,100.901,10.2758,0.00719538,0.10166,20.8489,104.291,16.2869,0.0,0.0
5124,1280.75,68.0239,69.9679,161.735,100.967,10.3896,0.00782973,0.100388,20.8582,104.011,16.213,0.0,0.0
5185,1296,66.6811,69.0667,159.838,100.966,10.4619,0.00779575,0.101715,20.8566,103.821,16.1635,0.0,0.0
5246,1311.25,66.2998,68.8727,160.092,100.95,10.3928,0.00775466,0.103369,20.8552,103.691,16.2096,0.0,0.0
5307,1326.5,66.6941,68.8073,158.074,100.887,10.3603,0.00753473,0.0994824,20.8592,103.391,16.2275,0.0,0.0
5368,1341.75,66.3377,68.2653,163.931,100.795,10.4327,0.00783831,0.0995848,20.8599,103.251,16.1714,0.0,0.0
5429,1357,65.7365,68.6431,159.972,100.657,10.3335,0.00772378,0.100139,20.8556,103.11,16.2297,0.0,0.0
5490,1372.25,65.244,67.4721,161.884,100.469,10.2408,0.00777631,0.0996409,20.8586,102.86,16.2806,0.0,0.0
5551,1387.5,64.6913,66.9803,161.841,100.364,10.4815,0.00849335,0.0961693,20.8611,102.77,16.1076,0.0,0.0
5612,1402.75,65.031,67.3133,158.196,100.303,10.2628,0.00844183,0.0954979,20.8633,102.55,16.2536,0.0,0.0
5673,1418,64.3965,66.886,161.315,100.209,10.5806,0.00831204,0.094773,20.8629,102.34,16.0294,0.0,0.0
5734,1433.25,64.3294,66.9324,163.696,100.154,10.4498,0.00833789,0.0954036,20.8609,102.22,16.1142,0.0,0.0
5795,1448.5,64.3141,67.1558,162.612,100.195,10.2376,0.00836772,0.0957535,20.8612,102.08,16.2634,0.0,0.0
5856,1463.75,64.2878,67.3875,163.431,100.192,10.1612,0.00841775,0.095518,20.8634,101.779,16.3166,0.0,0.0
5917,1479,64.0334,66.74,159.365,100.202,10.127,0.00840031,0.0964988,20.8612,101.709,16.3413,0.0,0.0
5948,1486.75,63.8832,67.1735,162.254,100.216,10.3335,0.00814794,0.0955749,20.8648,101.639,16.1984,0.0,0.0

File: Particleboard_Cone_HF50Scan_230705_R3.csv
Names,Time,Stack TC,Smoke TC,Exh Press,Smoke Comp,Smoke Meas,CO Meter,CO2 Meter,O2 Meter,Sample Mass,Ext Coeff,Start Test,Flame Verif
Chan Gain,,500,500,1,1,1,1,1,1,1,1,1.0,1.0
Offset,,0,0,0.138104,0,0,0,0,0,0,0,0.0,0.0
Gain,,1,1,25.011,12.9522,294.665,1,1,1,1.00088,0.812795,1.0,1.0
Units,sec,C,C,Pa,%,%,%,%,%,g,/m,,
Baseline,,53.3247,56.1287,166.757,100.338,110.431,0.000221205,0.0427077,20.9286,-446.753,-0.682794,,
62,15.25,52.4404,55.4563,164.924,100.972,105.859,0.00076839,0.0469577,20.9267,205.991,-0.336972,0.0,0.0
124,30.75,53.217,56.4748,167.435,100.899,106.615,0.000329392,0.0446366,20.9294,205.52,-0.392887,0.0,0.0
186,46.25,59.1746,70.0296,150.492,100.763,121.524,0.00118954,0.127354,20.8938,203.959,-1.33571,0.0,0.0
248,61.75,71.7193,90.3594,141.348,100.55,115.994,0.00345514,0.49928,20.4223,201.036,-1.01872,0.0,0.0
310,77.25,81.2645,101.411,139.327,100.222,111.803,0.00600409,0.609963,20.2487,197.874,-0.779646,0.0,0.0
372,92.75,86.2769,103.738,143.969,99.8942,114.573,0.00644006,0.576942,20.2627,194.801,-0.977496,0.0,0.0
434,108.25,87.6791,102.616,155.251,99.5768,110.571,0.00658093,0.51764,20.3369,191.968,-0.746714,0.0,0.0
496,123.75,87.4249,98.6849,150.613,99.3286,114.681,0.00540624,0.436515,20.4305,189.436,-1.02469,0.0,0.0
558,139.25,86.4194,95.2192,150.289,99.1997,112.361,0.00423747,0.372797,20.5135,187.164,-0.888231,0.0,0.0
620,154.75,84.9373,92.5772,152.572,99.3001,115.814,0.00353788,0.332008,20.5752,185.192,-1.09683,0.0,0.0
682,170.25,83.0672,90.0497,151.432,99.6238,115.104,0.00282714,0.300336,20.609,183.351,-1.02976,0.0,0.0
744,185.75,81.3996,88.5432,148.968,100.042,118.584,0.00312294,0.286688,20.6335,181.719,-1.21223,0.0,0.0
806,201.25,80.9649,86.929,152.847,100.353,115.697,0.00280596,0.274239,20.6481,179.978,-1.01443,0.0,0.0
868,216.75,80.3748,86.4378,151.462,100.404,116.956,0.00247027,0.26354,20.6585,178.276,-1.08799,0.0,0.0
930,232.25,79.1749,85.0091,157.281,100.378,116.362,0.0023526,0.261504,20.662,176.685,-1.05355,0.0,0.0
992,247.75,78.7957,85.1903,152.8,100.205,115.94,0.00234474,0.251355,20.6775,175.234,-1.03988,0.0,0.0
1054,263.25,78.6961,84.2902,159.559,99.9894,118.62,0.0019966,0.248251,20.6811,173.642,-1.21817,0.0,0.0
1116,278.75,78.7075,84.069,154.939,99.7626,116.443,0.00225086,0.246732,20.6804,172.181,-1.10235,0.0,0.0
1178,294.25,78.4355,84.4194,150.988,99.7756,118.566,0.0019389,0.241322,20.6883,170.69,-1.23019,0.0,0.0
1240,309.75,78.0779,83.6403,152.871,100.078,118.781,0.0021447,0.235309,20.6967,169.198,-1.22156,0.0,0.0
1302,325.25,77.5165,83.2444,155.545,100.343,114.474,0.0019302,0.232835,20.6997,167.787,-0.939361,0.0,0.0
1364,340.75,77.3777,82.7435,152.744,100.395,116.65,0.00170086,0.229738,20.7036,166.326,-1.06998,0.0,0.0
1426,356.25,77.2396,82.9449,156.35,100.006,115.059,0.00136482,0.222411,20.7107,164.935,-0.999699,0.0,0.0
1488,371.75,77.2417,82.185,156.471,100.393,119.474,0.00137922,0.217148,20.7165,163.714,-1.24062,0.0,0.0
1550,387.25,76.6349,81.319,152.25,100.779,117.675,0.00150111,0.208268,20.7279,162.443,-1.1051,0.0,0.0
1612,402.75,76.0123,81.0052,155.546,100.935,114.771,0.00124972,0.201448,20.7357,161.211,-0.915872,0.0,0.0
1674,418.25,75.5927,80.1116,151.371,100.649,117.837,0.0017411,0.195841,20.7413,159.96,-1.12411,0.0,0.0
1736,433.75,75.5357,79.1734,154.059,99.9981,118.754,0.00133271,0.189684,20.7498,158.859,-1.22565,0.0,0.0
1798,449.25,75.0479,78.6955,153.308,99.5471,116.812,0.00142193,0.184526,20.7585,157.758,-1.1403,0.0,0.0
1860,464.75,74.7921,78.928,154.249,99.2918,116.713,0.00145884,0.180908,20.7606,156.667,-1.15258,0.0,0.0
1922,480.25,74.351,78.3538,155.019,99.1847,113.215,0.00125391,0.180533,20.7653,155.556,-0.943314,0.0,0.0
1984,495.75,73.6346,78.3858,157.671,99.3195,113.008,0.00159659,0.177594,20.7654,154.425,-0.920594,0.0,0.0
2046,511.25,73.4271,77.6764,159.314,99.8195,113.35,0.00115445,0.176227,20.7697,153.395,-0.906317,0.0,0.0
2108,526.75,73.5609,77.9281,158.462,100.276,116.147,0.00120646,0.177079,20.7683,152.394,-1.04756,0.0,0.0
2170,542.25,73.5985,77.5089,155.672,100.414,116.174,0.00150387,0.178538,20.7663,151.333,-1.03938,0.0,0.0
2232,557.75,73.3579,77.4773,155.075,100.36,117.711,0.00162685,0.180442,20.7641,150.372,-1.13698,0.0,0.0
2294,573.25,73.261,77.6455,158.802,100.197,114.654,0.00134371,0.180765,20.763,149.321,-0.960953,0.0,0.0
2356,588.75,73.6397,77.8917,155.976,100.027,116.012,0.00128185,0.184543,20.7619,148.26,-1.05697,0.0,0.0
2418,604.25,73.5695,77.876,161.287,99.9179,116.605,0.00166956,0.186691,20.7566,147.169,-1.10116,0.0,0.0
2480,619.75,73.9531,78.1933,153.71,99.7321,116.758,0.00134223,0.191101,20.7506,146.088,-1.12377,0.0,0.0
2542,635.25,74.1716,79.3404,156.093,99.6321,116.929,0.00137943,0.194997,20.7493,145.017,-1.14135,0.0,0.0
2604,650.75,74.1481,79.3155,151.645,99.8199,115.805,0.00149869,0.196713,20.7472,143.866,-1.05906,0.0,0.0
2666,666.25,74.4017,79.3394,152.066,99.9709,116.156,0.00130346,0.201394,20.7421,142.685,-1.06984,0.0,0.0
2728,681.75,74.9014,80.0472,154.667,100.205,118.701,0.0015949,0.208728,20.7358,141.554,-1.20766,0.0,0.0
2790,697.25,75.7265,80.7928,156.335,100.327,115.697,0.00133924,0.214001,20.7284,140.313,-1.01628,0.0,0.0
2852,712.75,76.249,81.7783,153.448,100.339,117.612,0.00121401,0.223979,20.7179,139.062,-1.13251,0.0,0.0
2914,728.25,76.4104,82.3918,151.819,100.225,116.371,0.00203333,0.232931,20.7057,137.781,-1.06497,0.0,0.0
2976,743.75,77.1498,83.8152,150.469,100.035,115.4,0.00166249,0.244974,20.6956,136.44,-1.01876,0.0,0.0
3038,759.25,78.2488,84.3785,157.608,100.484,115.032,0.00161106,0.253731,20.6841,135.048,-0.964038,0.0,0.0
3100,774.75,78.616,85.0182,156.488,100.892,116.075,0.00144083,0.259014,20.6751,133.607,-0.99946,0.0,0.0
3162,790.25,79.0806,85.1603,152.159,100.832,118.278,0.0020371,0.264657,20.6685,132.186,-1.13777,0.0,0.0
3224,805.75,79.6707,85.4895,151.361,100.59,119.015,0.00192137,0.268043,20.661,130.765,-1.19923,0.0,0.0
3286,821.25,79.8426,85.047,151.094,100.338,113.485,0.00166983,0.263384,20.6636,129.353,-0.877822,0.0,0.0
3348,836.75,79.7015,86.0677,150.243,99.9329,114.006,0.00205087,0.26389,20.6645,127.952,-0.93939,0.0,0.0
3410,852.25,80.2149,86.0748,150.637,99.5313,114.24,0.00193114,0.263505,20.6645,126.541,-0.982706,0.0,0.0
3472,867.75,79.8451,85.9284,151.093,99.2677,114.537,0.00173712,0.259403,20.6687,125.17,-1.02011,0.0,0.0
3534,883.25,79.8856,86.0157,152.437,99.2056,115.229,0.001936,0.260325,20.6702,123.819,-1.06755,0.0,0.0
3596,898.75,79.9393,85.8708,157.028,99.2787,114.294,0.00232182,0.258284,20.6745,122.507,-1.00419,0.0,0.0
3658,914.25,80.0704,85.6483,152.525,99.4566,114.483,0.00228183,0.257543,20.6712,121.146,-1.0032,0.0,0.0
3720,929.75,80.5419,85.8048,150.109,99.7191,117.064,0.00233888,0.259466,20.6703,119.745,-1.14335,0.0,0.0
3782,945.25,80.4666,86.4068,157.973,100.018,116.039,0.00209818,0.263166,20.6673,118.394,-1.05931,0.0,0.0
3844,960.75,80.5612,86.4525,150.447,100.244,115.967,0.00166625,0.269335,20.6581,117.013,-1.03876,0.0,0.0
3906,976.25,81.4412,87.3844,149.618,100.368,116.533,0.00215849,0.273822,20.6513,115.591,-1.06474,0.0,0.0
3968,991.75,81.4768,87.8537,148.94,100.41,115.751,0.00250453,0.279786,20.6448,114.16,-1.01374,0.0,0.0
4030,1007.25,81.8665,88.2408,151.74,100.355,116.237,0.00268712,0.27903,20.6407,112.739,-1.04749,0.0,0.0
4092,1022.75,81.806,88.0041,152.806,100.165,113.107,0.00249502,0.275886,20.6421,111.368,-0.866367,0.0,0.0
4154,1038.25,81.4811,87.1934,150.649,99.7361,113.917,0.00239354,0.270447,20.6467,110.007,-0.947822,0.0,0.0
4216,1053.75,80.9653,86.7614,147.774,99.9468,115.301,0.00209455,0.26098,20.66,108.715,-1.01893,0.0,0.0
4278,1069.25,80.6989,86.0721,152.621,100.302,118.611,0.00189237,0.250982,20.672,107.534,-1.19537,0.0,0.0
4340,1084.75,80.6532,85.5585,154.654,100.191,112.936,0.00169188,0.241063,20.6804,106.443,-0.85376,0.0,0.0
4402,1100.25,79.8461,84.347,152.24,99.9622,113.197,0.00183483,0.227463,20.6947,105.473,-0.886509,0.0,0.0
4464,1115.75,78.5769,82.6138,154.31,100.352,115.544,0.00163865,0.20528,20.716,104.742,-1.00506,0.0,0.0
4526,1131.25,76.84,79.3738,159.076,100.718,115.814,0.0018732,0.160394,20.7595,104.291,-0.995725,0.0,0.0
4588,1146.75,75.1481,76.8846,157.485,100.886,115.148,0.00371254,0.129311,20.8032,104.001,-0.942758,0.0,0.0
4650,1162.25,72.7041,74.3089,159.523,100.746,113.008,0.00480113,0.118019,20.8273,103.671,-0.818945,0.0,0.0
4712,1177.75,72.0559,72.9376,160.788,100.249,114.132,0.00536875,0.111321,20.838,103.471,-0.924762,0.0,0.0
4774,1193.25,70.5699,72.1878,159.354,99.5894,110.472,0.00635248,0.108934,20.8407,103.161,-0.739428,0.0,0.0
4836,1208.75,69.9187,71.4142,155.703,99.2246,109.025,0.00643284,0.105735,20.8446,102.88,-0.671538,0.0,0.0
4898,1224.25,68.5684,70.8105,159.442,99.4724,112.774,0.00638408,0.103203,20.8457,102.68,-0.894855,0.0,0.0
4960,1239.75,68.1714,70.0038,159.498,99.9381,110.445,0.00635514,0.10301,20.8516,102.43,-0.712771,0.0,0.0
5022,1255.25,67.912,69.8965,166.367,100.331,112.361,0.00696349,0.102069,20.8509,102.2,-0.807355,0.0,0.0
5084,1270.75,66.8248,69.1997,162.023,100.421,111.363,0.0069046,0.100196,20.8538,102.04,-0.73739,0.0,0.0
5146,1286.25,66.3974,68.6765,159.181,100.172,114.591,0.00717617,0.100573,20.8568,101.859,-0.958838,0.0,0.0
5208,1301.75,66.2737,68.4279,158.205,99.8511,112.46,0.00696309,0.100272,20.8543,101.719,-0.847839,0.0,0.0
5270,1317.25,66.0306,68.1287,161.303,99.6618,109.438,0.00769243,0.0979023,20.8582,101.519,-0.667195,0.0,0.0
5332,1332.75,65.7158,68.2227,158.607,100.025,113.611,0.00819527,0.0967239,20.8629,101.379,-0.908063,0.0,0.0
5394,1348.25,65.626,67.704,159.684,100.252,113.089,0.00843043,0.0956566,20.8632,101.179,-0.859103,0.0,0.0
5456,1363.75,64.5089,66.6905,162.193,100.263,113.809,0.00824253,0.0957072,20.8625,100.979,-0.90347,0.0,0.0
5518,1379.25,64.5562,66.9048,159.008,99.9689,111.246,0.00874597,0.0941363,20.8664,100.808,-0.76205,0.0,0.0
5580,1394.75,63.9016,65.9681,163.338,100.375,112.613,0.00846222,0.0936919,20.868,100.618,-0.820198,0.0,0.0
5642,1410.25,64.0969,66.5121,162.855,100.761,110.661,0.00834842,0.0938655,20.8686,100.368,-0.668247,0.0,0.0
5704,1425.75,63.763,66.4786,163.722,100.872,113.665,0.00816172,0.0944035,20.8663,100.248,-0.851323,0.0,0.0
5766,1441.25,63.6754,66.4868,158.922,100.56,112.685,0.00846847,0.09442,20.8669,100.038,-0.811651,0.0,0.0
5828,1456.75,63.6838,66.3936,163.287,99.9653,115.346,0.00842844,0.0933438,20.8661,99.8976,-1.02038,0.0,0.0
5890,1472.25,63.5037,66.1486,159.372,99.4487,108.791,0.00814461,0.0943395,20.8669,99.7375,-0.640146,0.0,0.0

File: Particleboard_Cone_HF75Scalar_230705_R1.csv
LABORATORY,FSRI
TEST IDENT,Part_Board_HF75_R1
OPERATOR,Marino
MATERIAL,Particle Board
ORIENTATION,Horizontal
HEAT FLUX,75
SURF AREA,0.01
C FACTOR,0.0387138
SPEC HOLDER DIFF,-566
SPECIMEN MASS,137.2
SCAN TIME,0.25
O2 DELAY TIME,11
CO DELAY TIME,11
CO2 DELAY TIME,8
FLOW FACTOR,1
SCAN COUNT,5581
TIME TO IGN,15.5
END OF TEST SCAN,5101
END OF TEST TIME,1275.25
TEST STATUS,1
PRE TEST CMT,Dimensions: 101.93 x 101.51 x 19.43 mm; with tie wires
POST TEST CMT,Sample charred and reduced in surface area. Surface of sample fractured. Weigh table bumped around 4 minutes.

File: Particleboard_Cone_HF75Scalar_230705_R2.csv
LABORATORY,FSRI
TEST IDENT,Part_Board_HF75_R2
OPERATOR,Marino
MATERIAL,Particle Board
ORIENTATION,Horizontal
HEAT FLUX,75
SURF AREA,0.01
C FACTOR,0.0387138
SPEC HOLDER DIFF,-566
SPECIMEN MASS,135.41
SCAN TIME,0.25
O2 DELAY TIME,11
CO DELAY TIME,11
CO2 DELAY TIME,8
FLOW FACTOR,1
SCAN COUNT,5596
TIME TO IGN,14.5
END OF TEST SCAN,5116
END OF TEST TIME,1279
TEST STATUS,1
PRE TEST CMT,Dimensions: 101.83 x 101.86 x 19.40 mm; with tie wires
POST TEST CMT,"Sample charred and reduced in surface area. Test was ended after the average mass loss rate over 1 minute was less than 150 g/m^2 despite ongoing flaming combustion, in accordance with ASTM 1354."

File: Particleboard_Cone_HF75Scalar_230705_R3.csv
LABORATORY,FSRI
TEST IDENT,Part_Board_HF75_R3
OPERATOR,Marino
MATERIAL,Particle Board
ORIENTATION,Horizontal
HEAT FLUX,75
SURF AREA,0.01
C FACTOR,0.0383364
SPEC HOLDER DIFF,-566
SPECIMEN MASS,136.43
SCAN TIME,0.25
O2 DELAY TIME,11
CO DELAY TIME,11
CO2 DELAY TIME,8
FLOW FACTOR,1
SCAN COUNT,5619
TIME TO IGN,15.75
END OF TEST SCAN,5139
END OF TEST TIME,1284.75
TEST STATUS,1
PRE TEST CMT,Dimensions: 101.81 x 101.89 x 19.39 mm; with tie wires
POST TEST CMT,Sample charred and reduced in surface area. Surface of sample fractured.