Folder: fsri_materials_database/01_Data/Particleboard/Cone (part 6)

File: Particleboard_Cone_HF75Scan_230705_R3.csv
Names,Time,Stack TC,Smoke TC,Exh Press,Smoke Comp,Smoke Meas,CO Meter,CO2 Meter,O2 Meter,Sample Mass,Ext Coeff,Start Test,Flame Verif
Chan Gain,,500,500,1,1,1,1,1,1,1,1,1.0,1.0
Offset,,0,0,0.18266,0,0,0,0,0,0,0,0.0,0.0
Gain,,1,1,25.011,12.9763,53.2187,1,1,1,1.00092,0.871134,1.0,1.0
Units,sec,C,C,Pa,%,%,%,%,%,g,/m,,
Baseline,,62.2781,66.016,170.21,98.7179,102.66,0.000581308,0.0468603,20.9434,-446.18,-0.298976,,
59,14.5,60.8557,64.7642,166.782,98.6985,97.2353,0.000836622,0.0531289,20.9363,207.922,0.114135,0.0,0.0
118,29.25,72.7145,89.8452,142.956,98.7389,99.4879,0.00177539,0.23261,20.8379,205.179,-0.0577481,0.0,0.0
177,44,90.5273,116.967,135.801,98.7294,93.7386,0.0068952,0.835227,20.0687,201.095,0.396389,0.0,0.0
236,58.75,99.58,125.411,134.9,98.7112,91.9894,0.00952121,0.837956,19.9579,197.051,0.538916,0.0,0.0
295,73.5,104.195,125.8,147.002,98.7144,94.7277,0.00955644,0.743728,20.0719,193.478,0.315017,0.0,0.0
354,88.25,104.567,122.04,145.543,98.7698,96.5126,0.00862909,0.6181,20.2199,190.475,0.176662,0.0,0.0
413,103,103.807,117.873,152.925,99.0549,97.4643,0.00758678,0.519259,20.3515,187.663,0.123705,0.0,0.0
472,117.75,102.018,114.256,154.345,99.5107,99.4619,0.00622891,0.456342,20.4278,185.151,0.0037476,0.0,0.0
531,132.5,100.437,110.844,149.506,99.9515,101.19,0.00536895,0.421013,20.4792,182.738,-0.0941052,0.0,0.0
590,147.25,98.6094,108.68,148.37,100.013,100.641,0.00504896,0.394902,20.5146,180.426,-0.0478161,0.0,0.0
649,162,98.3312,106.611,154.954,99.6945,100.464,0.00411019,0.377817,20.5341,178.244,-0.0587583,0.0,0.0
708,176.75,97.3307,105.335,157.83,99.9214,101.388,0.00364183,0.362477,20.5524,176.072,-0.111355,0.0,0.0
767,191.5,96.6948,105.388,155.544,100.292,101.198,0.00400634,0.357811,20.5645,173.99,-0.0687561,0.0,0.0
826,206.25,95.8616,104.674,149.692,100.068,100.987,0.00324815,0.349441,20.5733,171.958,-0.0698633,0.0,0.0
885,221,95.8487,104.488,153.508,100.671,102.98,0.00309019,0.346494,20.5741,169.917,-0.173297,0.0,0.0
944,235.75,95.8337,104.536,151.33,100.537,102.444,0.00305506,0.340838,20.582,168.005,-0.143591,0.0,0.0
1003,250.5,95.7688,104.468,152.906,99.4561,102.687,0.00269325,0.335431,20.5879,166.083,-0.244326,0.0,0.0
1062,265.25,95.592,104.036,151.192,98.7983,103.881,0.00252085,0.326768,20.5986,164.231,-0.383351,0.0,0.0
1121,280,95.3569,103.392,151.982,99.3278,103.282,0.00198586,0.31364,20.6167,162.52,-0.298297,0.0,0.0
1180,294.75,94.3561,102.069,158.972,99.9368,103.751,0.0019282,0.300281,20.6343,160.738,-0.286233,0.0,0.0
1239,309.5,93.6207,100.73,155.372,100.007,104.029,0.00200576,0.287957,20.6477,159.157,-0.301302,0.0,0.0
1298,324.25,92.5444,99.674,154.314,99.7012,103.974,0.00182843,0.281442,20.6577,157.555,-0.320641,0.0,0.0
1357,339,93.1672,99.7933,155.195,99.4596,103.836,0.00176691,0.279479,20.6614,156.044,-0.329025,0.0,0.0
1416,353.75,92.7933,99.5092,155.176,99.7875,104.277,0.00167608,0.275632,20.6676,154.462,-0.336315,0.0,0.0
1475,368.5,92.5428,99.4247,157.15,100.19,104.386,0.0018923,0.273471,20.6725,152.911,-0.313537,0.0,0.0
1534,383.25,91.8077,98.2005,151.21,100.268,104.378,0.0016505,0.27301,20.6716,151.419,-0.306965,0.0,0.0
1593,398,92.0602,97.875,151.508,99.8002,104.331,0.00200422,0.268366,20.6741,149.908,-0.339272,0.0,0.0
1652,412.75,91.1029,97.8075,157.446,100.319,106.766,0.00149896,0.275311,20.6691,148.447,-0.475949,0.0,0.0
1711,427.5,91.36,98.1142,149.405,100.692,104.76,0.00171784,0.275242,20.6666,146.915,-0.302661,0.0,0.0
1770,442.25,91.2873,98.4859,153.589,100.615,105.054,0.00187504,0.278509,20.6666,145.354,-0.329906,0.0,0.0
1829,457,91.1117,98.1259,155.721,100.234,105.322,0.00179442,0.278139,20.6622,143.873,-0.378332,0.0,0.0
1888,471.75,91.6451,98.3696,152.351,99.6937,103.694,0.00186095,0.283054,20.6591,142.321,-0.300659,0.0,0.0
1947,486.5,91.801,98.889,150.215,99.207,101.408,0.0019721,0.285376,20.6583,140.85,-0.167653,0.0,0.0
2006,501.25,91.3794,99.0413,154.81,98.9017,102.244,0.00193101,0.288569,20.6538,139.248,-0.253976,0.0,0.0
2065,516,91.8173,99.4803,153.026,98.7967,102.59,0.00196409,0.290635,20.6498,137.697,-0.287899,0.0,0.0
2124,530.75,92.4826,99.2958,152.677,98.9535,101.577,0.00204291,0.293383,20.6501,136.266,-0.199917,0.0,0.0
2183,545.5,92.3053,98.8796,154.777,99.207,102.824,0.00191532,0.292274,20.65,134.784,-0.273634,0.0,0.0
2242,560.25,91.9178,98.9751,148.876,99.5048,103.006,0.00203415,0.290662,20.651,133.273,-0.264236,0.0,0.0
2301,575,92.6192,99.7373,151.71,99.7226,101.006,0.00208405,0.290842,20.6511,131.771,-0.0977526,0.0,0.0
2360,589.75,92.6299,99.723,151.73,99.94,103.992,0.00201514,0.293077,20.6505,130.25,-0.303674,0.0,0.0
2419,604.5,92.661,99.5635,152.54,100.066,103.728,0.00235179,0.29516,20.6475,128.799,-0.274723,0.0,0.0
2478,619.25,92.2841,99.061,152.862,100.065,103.136,0.00210968,0.292938,20.6481,127.337,-0.230957,0.0,0.0
2537,634,92.0951,98.9146,156.211,99.9432,104.633,0.00188688,0.291207,20.6513,125.876,-0.350427,0.0,0.0
2596,648.75,92.026,98.8118,154.545,99.7705,102.666,0.00193929,0.28737,20.6566,124.485,-0.218634,0.0,0.0
2655,663.5,91.3593,98.2472,152.991,99.6418,103.777,0.00196966,0.283195,20.6595,123.033,-0.310739,0.0,0.0
2714,678.25,91.8429,98.1158,156.625,99.5634,103.071,0.00193688,0.281521,20.6622,121.722,-0.264554,0.0,0.0
2773,693,91.2338,97.7538,153.461,99.4877,103.983,0.00187557,0.277349,20.6653,120.411,-0.337734,0.0,0.0
2832,707.75,91.6701,97.9651,153.641,99.4672,101.905,0.0017262,0.278895,20.6649,119.06,-0.184997,0.0,0.0
2891,722.5,90.9991,97.5076,155.964,99.4315,101.533,0.00204184,0.274194,20.6702,117.758,-0.159795,0.0,0.0
2950,737.25,90.843,97.4955,154.3,99.3959,102.713,0.00232275,0.27836,20.663,116.467,-0.250886,0.0,0.0
3009,752,91.042,97.6972,155.792,99.4438,104.295,0.00222005,0.276398,20.6695,115.096,-0.363992,0.0,0.0
3068,766.75,90.8553,97.0576,158.769,99.4668,104.17,0.00219421,0.276073,20.6665,113.885,-0.35306,0.0,0.0
3127,781.5,90.9639,97.0531,151.811,99.624,102.549,0.00186255,0.27652,20.6696,112.664,-0.221156,0.0,0.0
3186,796.25,89.991,96.4322,159.027,99.917,103.475,0.00202459,0.272007,20.6691,111.423,-0.267384,0.0,0.0
3245,811,89.8053,96.2818,155.09,100.246,100.722,0.00192315,0.268575,20.6754,110.232,-0.0361793,0.0,0.0
3304,825.75,89.7643,95.864,153.511,100.115,102.52,0.00170673,0.265084,20.6725,109.04,-0.181405,0.0,0.0
3363,840.5,89.7815,95.8445,154.314,99.9218,103.956,0.00163091,0.262073,20.6797,107.929,-0.302441,0.0,0.0
3422,855.25,89.132,94.5826,159.284,100.363,101.771,0.00175354,0.257977,20.6817,106.808,-0.106526,0.0,0.0
3481,870,88.7819,93.7546,153.296,100.694,103.969,0.0018508,0.245479,20.6938,105.827,-0.244598,0.0,0.0
3540,884.75,87.8844,92.5369,158.47,100.613,104.284,0.0020379,0.2278,20.7057,104.987,-0.273824,0.0,0.0
3599,899.5,86.1193,89.8668,162.52,100.052,102.962,0.00184098,0.188462,20.7448,104.486,-0.219069,0.0,0.0
3658,914.25,83.956,87.1114,161.231,99.3313,103.028,0.00268254,0.142654,20.8049,104.166,-0.279255,0.0,0.0
3717,929,82.312,85.1475,161.46,98.8945,103.777,0.00331116,0.12921,20.8302,103.936,-0.368262,0.0,0.0
3776,943.75,81.0065,83.3062,161.821,99.0656,104.792,0.00343071,0.123882,20.8336,103.686,-0.429435,0.0,0.0
3835,958.5,79.6874,82.4177,161.927,99.6881,103.936,0.00385855,0.120451,20.8392,103.395,-0.318897,0.0,0.0
3894,973.25,79.517,82.3138,161.15,100.137,105.658,0.00412823,0.12212,20.8384,103.155,-0.410115,0.0,0.0
3953,988,78.8222,82.0271,163.25,99.9032,103.217,0.00464662,0.118487,20.842,102.905,-0.24935,0.0,0.0
4012,1002.75,78.557,81.0296,166.11,99.5064,103.23,0.00511293,0.117699,20.845,102.745,-0.280723,0.0,0.0
4071,1017.5,77.6464,81.0157,162.443,100.311,103.787,0.00531366,0.114683,20.8468,102.544,-0.260303,0.0,0.0
4130,1032.25,77.4184,80.4961,166.101,99.8869,103.483,0.00573478,0.113746,20.85,102.384,-0.270286,0.0,0.0
4189,1047,77.4918,80.2774,160.71,100.434,105.291,0.00703346,0.114906,20.8489,102.194,-0.360862,0.0,0.0
4248,1061.75,76.5666,79.8218,161.164,100.774,106.572,0.00724304,0.112657,20.8527,101.964,-0.427462,0.0,0.0
4307,1076.5,76.8202,80.6032,164.302,100.459,104.867,0.00784517,0.113141,20.8514,101.804,-0.328168,0.0,0.0
4366,1091.25,76.5391,79.4754,162.763,99.7495,103.571,0.00847771,0.111917,20.8529,101.654,-0.28728,0.0,0.0
4425,1106,75.971,79.3545,166.706,99.1515,103.889,0.00878152,0.109632,20.8535,101.463,-0.356676,0.0,0.0
4484,1120.75,75.823,78.9689,163.303,98.9211,102.567,0.0098042,0.108694,20.8579,101.283,-0.276594,0.0,0.0
4543,1135.5,75.2164,78.5838,165.827,99.0418,103.253,0.0102909,0.108589,20.8589,101.103,-0.318162,0.0,0.0
4602,1150.25,75.2434,78.4305,167.9,99.3095,103.748,0.0106268,0.106872,20.8599,100.973,-0.334108,0.0,0.0
4661,1165,74.6538,77.9791,162.585,99.4747,102.936,0.0115429,0.107233,20.8616,100.823,-0.261366,0.0,0.0
4720,1179.75,74.4685,77.9256,163.836,99.5986,104.216,0.0122703,0.105752,20.8621,100.673,-0.34627,0.0,0.0
4779,1194.5,74.2369,77.0413,163.77,99.6469,105.33,0.0124904,0.104274,20.8636,100.433,-0.423824,0.0,0.0
4838,1209.25,73.7874,76.7702,164.966,99.6465,104.071,0.0131966,0.104354,20.8645,100.282,-0.331989,0.0,0.0
4897,1224,73.6359,76.8055,161.367,99.6026,104.234,0.0135057,0.103267,20.8656,100.082,-0.347277,0.0,0.0
4956,1238.75,73.0611,76.6506,161.065,99.5614,103.141,0.0140755,0.102498,20.8672,99.9421,-0.269882,0.0,0.0
5015,1253.5,73.1901,76.4331,165.005,99.5052,103.576,0.0141475,0.102594,20.8655,99.7319,-0.306379,0.0,0.0
5074,1268.25,72.6842,76.0469,161.874,99.4442,102.77,0.0145807,0.101828,20.8672,99.6618,-0.2514,0.0,0.0
5133,1283,72.8437,76.1069,163.754,99.3012,102.704,0.0146198,0.10295,20.8659,99.5417,-0.257441,0.0,0.0
5192,1297.75,72.1609,75.7883,164.201,99.0668,103.719,0.0144345,0.101274,20.8689,99.3115,-0.350656,0.0,0.0
5251,1312.5,71.5434,75.424,160.946,98.908,102.444,0.014331,0.100312,20.8698,99.0913,-0.268402,0.0,0.0
5310,1327.25,71.6538,75.9882,164.244,98.9385,101.901,0.0152972,0.10343,20.8668,98.9111,-0.225476,0.0,0.0
5369,1342,71.5298,75.0893,162.764,99.1408,105.221,0.0150099,0.102606,20.8688,98.761,-0.454835,0.0,0.0
5428,1356.75,71.5962,75.4294,163.486,99.5091,104.144,0.0149401,0.102412,20.8669,98.6609,-0.347899,0.0,0.0
5487,1371.5,71.5472,75.5374,171.136,99.9491,105.292,0.0150132,0.102111,20.8672,98.5208,-0.397978,0.0,0.0
5546,1386.25,71.1344,75.1284,164.293,100.323,105.234,0.0148938,0.102978,20.8666,98.3606,-0.365237,0.0,0.0
5605,1401,71.2092,75.0703,165.885,100.589,105.273,0.0149225,0.102029,20.8683,98.2005,-0.347763,0.0,0.0
5619,1404.5,71.2922,74.6761,163.357,100.604,106.402,0.0150745,0.102646,20.8681,98.1204,-0.428147,0.0,0.0

File: Particleboard_HRRPUA_25.csv
Time after Ignition,Particleboard_R1,Particleboard_R2,Particleboard_R3,Particleboard_R4,Mean,Std. Dev.
0.0,3.1,1.5,2.0,0.4,1.8,1.1
5.75,4.3,2.7,2.6,1.1,2.7,1.3
11.5,19.5,10.0,10.6,10.3,12.6,4.6
17.25,122.9,74.0,73.1,71.3,85.4,25.1
23.0,190.7,129.6,141.1,130.8,148.1,28.9
28.75,227.2,160.3,171.5,161.4,180.1,31.8
34.5,240.3,175.8,184.0,179.6,195.0,30.4
40.25,232.4,183.7,191.7,187.1,198.7,22.7
46.0,226.9,189.0,189.3,191.6,199.2,18.5
51.75,215.4,188.0,186.6,193.4,195.9,13.4
57.5,204.7,180.8,182.9,194.3,190.7,11.1
63.25,196.6,175.2,179.8,187.4,184.8,9.4
69.0,186.0,172.9,174.9,176.9,177.7,5.8
74.75,177.1,171.7,176.5,169.1,173.6,3.8
80.5,170.9,171.5,171.7,160.1,168.5,5.6
86.25,161.7,173.0,165.2,154.7,163.6,7.6
92.0,156.8,165.7,159.7,153.1,158.8,5.3
97.75,150.5,162.8,155.6,147.7,154.2,6.6
103.5,143.3,158.0,155.3,148.3,151.2,6.7
109.25,140.8,156.1,148.7,150.4,149.0,6.3
115.0,137.9,153.1,143.7,143.3,144.5,6.3
120.75,134.3,143.1,139.6,139.1,139.0,3.6
126.5,131.1,140.1,137.6,134.7,135.9,3.8
132.25,125.7,135.7,133.7,130.6,131.4,4.4
138.0,123.1,126.6,131.2,120.5,125.4,4.6
143.75,115.2,122.0,127.7,118.5,120.8,5.3
149.5,109.1,120.3,121.9,111.8,115.8,6.3
155.25,104.6,113.3,117.7,108.6,111.1,5.7
161.0,102.8,111.1,114.3,104.2,108.1,5.5
166.75,101.3,104.8,110.8,102.2,104.8,4.3
172.5,99.0,102.8,108.6,100.5,102.7,4.2
178.25,97.8,98.7,107.1,99.3,100.7,4.3
184.0,96.0,96.7,102.0,96.1,97.7,2.9
189.75,94.0,93.5,101.4,96.0,96.2,3.6
195.5,91.8,92.0,100.9,93.9,94.7,4.3
201.25,93.5,89.7,98.8,93.6,93.9,3.7
207.0,91.5,89.2,96.4,88.5,91.4,3.6
212.75,91.2,87.3,95.4,86.4,90.1,4.1
218.5,88.8,86.5,93.2,85.9,88.6,3.3
224.25,84.3,84.5,90.3,84.3,85.9,3.0
230.0,85.4,83.6,88.3,82.0,84.8,2.7
235.75,83.7,81.2,86.6,80.5,83.0,2.8
241.5,83.3,79.3,83.7,79.3,81.4,2.4
247.25,84.3,77.1,82.6,77.4,80.3,3.7
253.0,83.6,78.1,82.1,78.2,80.5,2.8
258.75,80.3,77.2,81.9,77.5,79.2,2.3
264.5,79.2,77.6,81.2,75.9,78.5,2.3
270.25,78.8,77.2,78.9,74.4,77.3,2.1
276.0,77.6,76.1,76.7,73.6,76.0,1.7
281.75,75.5,75.0,76.1,72.9,74.9,1.4
287.5,76.0,73.8,77.5,70.4,74.4,3.1
293.25,76.4,73.4,76.6,70.2,74.2,3.0
299.0,76.0,72.1,75.1,71.9,73.8,2.1
304.75,77.1,71.5,75.5,70.0,73.6,3.3
310.5,74.7,71.9,74.5,70.2,72.8,2.1
316.25,74.8,72.8,73.7,69.4,72.7,2.3
322.0,72.0,70.8,74.6,67.2,71.2,3.1
327.75,71.1,70.7,73.2,65.5,70.1,3.3
333.5,70.4,71.4,73.3,64.7,70.0,3.7
339.25,70.1,68.8,71.6,64.2,68.7,3.2
345.0,66.9,68.2,69.7,64.1,67.2,2.4
350.75,67.7,68.2,69.9,63.6,67.4,2.7
356.5,67.2,68.6,68.4,64.9,67.3,1.7
362.25,67.0,67.7,67.4,65.1,66.8,1.2
368.0,65.1,67.1,66.6,64.6,65.9,1.2
373.75,64.9,67.9,66.1,62.5,65.4,2.3
379.5,64.9,66.3,64.2,63.1,64.6,1.3
385.25,63.9,66.3,63.1,63.1,64.1,1.5
391.0,63.7,65.8,62.4,63.7,63.9,1.4
396.75,64.4,62.9,59.5,63.3,62.5,2.1
402.5,61.7,63.3,58.2,63.4,61.7,2.4
408.25,60.6,62.7,55.2,61.5,60.0,3.3
414.0,62.2,61.5,54.2,59.3,59.3,3.6
419.75,60.5,61.3,47.7,57.3,56.7,6.3
425.5,60.0,59.3,37.0,58.6,53.7,11.2
431.25,54.7,57.3,32.4,61.0,51.3,12.9
437.0,51.1,56.6,31.3,59.8,49.7,12.8
442.75,49.5,56.3,30.3,55.5,47.9,12.1
448.5,50.6,52.2,28.4,53.6,46.2,11.9
454.25,50.7,49.7,27.0,52.7,45.0,12.1
460.0,50.1,48.7,26.4,49.8,43.7,11.6
465.75,48.4,47.1,25.9,46.6,42.0,10.8
471.5,47.2,45.6,26.1,47.8,41.6,10.4
477.25,45.6,43.4,26.3,43.3,39.6,8.9
483.0,46.3,42.3,25.0,40.7,38.6,9.3
488.75,44.0,41.4,24.7,40.2,37.6,8.8
494.5,42.0,40.8,23.8,39.7,36.6,8.6
500.25,43.4,40.5,25.0,38.2,36.8,8.2
506.0,43.0,40.0,25.3,38.8,36.8,7.8
511.75,45.7,40.8,26.6,37.0,37.5,8.1
517.5,49.4,39.7,26.2,38.2,38.4,9.5
523.25,48.4,40.4,26.4,38.2,38.4,9.1
529.0,49.3,40.5,26.3,36.5,38.1,9.5
534.75,47.6,40.6,27.3,36.8,38.1,8.5
540.5,43.1,41.4,26.4,36.7,36.9,7.5
546.25,41.0,41.5,26.9,36.2,36.4,6.8
552.0,38.1,40.2,26.5,37.5,35.6,6.2
557.75,38.0,38.6,26.4,38.1,35.3,5.9
563.5,39.9,38.9,26.4,37.2,35.6,6.2
569.25,40.1,37.9,26.0,38.4,35.6,6.4
575.0,39.6,36.9,25.7,38.5,35.2,6.4
580.75,39.0,34.3,25.7,38.9,34.5,6.3
586.5,39.5,31.7,25.6,38.3,33.8,6.4
592.25,40.7,32.6,26.8,38.7,34.7,6.3
598.0,38.2,33.9,26.6,37.8,34.1,5.4
603.75,36.8,32.7,26.4,37.6,33.4,5.1
609.5,39.0,33.4,26.2,37.7,34.1,5.8
615.25,38.9,33.7,26.8,37.2,34.1,5.3
621.0,40.3,32.6,26.7,38.1,34.4,6.1
626.75,40.6,34.1,25.2,38.0,34.5,6.7
632.5,40.3,33.8,25.0,38.1,34.3,6.7
638.25,39.5,32.3,26.3,37.9,34.0,6.0
644.0,41.0,32.9,26.5,37.2,34.4,6.2
649.75,41.2,32.9,26.8,38.4,34.8,6.4
655.5,41.1,31.7,26.3,38.5,34.4,6.7
661.25,41.0,33.9,26.7,37.9,34.9,6.2
667.0,40.2,33.8,26.3,38.7,34.7,6.3
672.75,40.5,33.4,25.9,39.4,34.8,6.7
678.5,41.1,33.6,25.6,38.5,34.7,6.8
684.25,40.5,33.8,26.5,37.8,34.7,6.1
690.0,39.5,32.3,27.1,38.1,34.2,5.7
695.75,39.0,31.8,26.7,37.9,33.8,5.7
701.5,38.7,32.8,26.2,38.1,34.0,5.8
707.25,38.5,34.4,27.7,39.2,35.0,5.3
713.0,38.9,34.7,27.9,40.5,35.5,5.6
718.75,38.7,33.9,26.6,39.9,34.8,6.0
724.5,42.0,33.2,25.6,39.3,35.0,7.3
730.25,43.8,35.1,27.6,38.6,36.3,6.8
736.0,45.3,33.6,29.1,38.6,36.7,7.0
741.75,46.2,34.6,29.4,39.3,37.4,7.1
747.5,45.6,34.8,28.3,38.7,36.8,7.2
753.25,46.4,34.7,26.7,39.0,36.7,8.2
759.0,50.3,35.5,27.5,39.0,38.1,9.5
764.75,52.1,35.0,28.9,38.9,38.7,9.8
770.5,52.3,35.2,30.7,39.9,39.5,9.3
776.25,52.3,35.1,29.8,39.4,39.2,9.6
782.0,50.4,35.6,28.1,39.4,38.4,9.3
787.75,50.4,36.1,27.0,40.1,38.4,9.7
793.5,50.3,39.3,27.5,40.2,39.3,9.3
799.25,49.5,38.7,28.4,41.0,39.4,8.7
805.0,47.9,36.9,29.0,40.7,38.6,7.9
810.75,47.6,37.5,29.2,39.4,38.4,7.6
816.5,49.8,36.8,30.0,40.7,39.3,8.3
822.25,49.0,37.3,28.8,40.0,38.8,8.3
828.0,49.1,38.1,27.2,42.4,39.2,9.2
833.75,54.4,37.5,26.7,41.9,40.1,11.4
839.5,56.7,36.8,27.4,43.3,41.1,12.3
845.25,54.0,37.0,29.8,44.2,41.3,10.4
851.0,51.9,36.6,30.2,43.0,40.4,9.2
856.75,53.6,36.3,32.5,42.2,41.1,9.2
862.5,56.6,36.4,33.5,43.4,42.5,10.3
868.25,56.3,37.2,32.4,43.3,42.3,10.3
874.0,57.4,38.3,32.4,43.7,42.9,10.7
879.75,59.2,38.6,32.4,43.3,43.4,11.4
885.5,60.0,39.3,32.7,43.3,43.8,11.6
891.25,62.1,37.3,33.7,43.2,44.1,12.6
897.0,63.4,37.4,33.9,43.8,44.6,13.2
902.75,64.2,38.2,32.9,44.0,44.8,13.7
908.5,62.8,38.9,36.2,44.6,45.6,12.0
914.25,62.9,39.5,38.6,44.5,46.4,11.3
920.0,67.8,40.3,39.2,45.0,48.1,13.4
925.75,68.7,40.8,40.0,46.3,48.9,13.4
931.5,65.1,40.5,40.0,46.1,47.9,11.8
937.25,63.3,40.2,41.0,47.8,48.1,10.7
943.0,63.0,42.0,40.5,47.8,48.3,10.3
948.75,61.2,41.3,41.5,48.2,48.0,9.3
954.5,59.8,40.8,42.5,48.0,47.8,8.6
960.25,58.9,40.8,41.8,48.8,47.6,8.4
966.0,60.2,40.3,42.5,50.1,48.2,9.0
971.75,61.0,40.6,43.8,50.5,49.0,9.0
977.5,60.8,41.2,44.4,50.9,49.3,8.7
983.25,61.5,41.8,49.8,51.2,51.1,8.1
989.0,62.4,42.9,53.3,52.9,52.9,7.9
994.75,63.8,41.5,54.7,51.9,52.9,9.2
1000.5,62.1,45.4,56.0,51.7,53.8,7.0
1006.25,63.2,50.7,56.6,53.9,56.1,5.3
1012.0,64.3,53.0,58.7,53.8,57.4,5.2
1017.75,63.8,53.3,61.9,56.4,58.8,4.9
1023.5,67.0,53.5,65.2,64.9,62.6,6.2
1029.25,67.5,62.2,67.4,70.9,67.0,3.6
1035.0,67.8,67.0,69.0,74.7,69.6,3.4
1040.75,68.1,74.1,69.4,76.3,72.0,3.9
1046.5,67.9,75.4,69.5,77.6,72.6,4.7
1052.25,68.5,78.8,70.4,79.2,74.2,5.6
1058.0,70.0,79.7,72.9,78.4,75.3,4.6
1063.75,72.0,82.6,72.5,82.5,77.4,6.0
1069.5,72.2,86.0,74.3,86.8,79.8,7.6
1075.25,72.8,87.2,75.9,87.4,80.8,7.6
1081.0,73.6,89.1,77.2,88.2,82.0,7.8
1086.75,74.1,91.1,77.9,87.9,82.8,8.1
1092.5,75.6,95.4,79.0,90.3,85.1,9.3
1098.25,77.8,94.2,80.1,93.0,86.3,8.5
1104.0,77.1,94.2,79.2,92.8,85.8,8.9
1109.75,80.7,96.2,80.4,94.4,87.9,8.5
1115.5,80.7,97.4,80.2,97.0,88.8,9.7
1121.25,81.2,99.1,82.1,97.3,90.0,9.6
1127.0,82.8,102.2,83.7,99.1,92.0,10.1
1132.75,83.3,103.0,84.2,102.6,93.3,11.0
1138.5,85.0,103.4,82.6,103.0,93.5,11.3
1144.25,86.5,102.6,83.9,103.9,94.2,10.5
1150.0,86.6,106.8,85.4,106.9,96.4,12.0
1155.75,88.1,106.0,85.4,109.2,97.2,12.1
1161.5,91.1,108.9,86.0,112.8,99.7,13.2
1167.25,92.7,108.1,87.4,116.0,101.1,13.3
1173.0,94.0,107.8,89.7,115.7,101.8,12.1
1178.75,95.0,108.0,88.6,117.4,102.2,12.9
1184.5,99.7,107.3,90.5,120.3,104.4,12.6
1190.25,101.1,109.8,90.5,117.8,104.8,11.7
1196.0,101.3,113.3,89.3,120.2,106.0,13.6
1201.75,103.2,109.7,90.7,118.9,105.6,11.9
1207.5,104.8,111.8,91.1,118.0,106.4,11.6
1213.25,111.2,112.7,91.4,116.5,107.9,11.3
1219.0,110.7,111.1,95.9,118.2,109.0,9.4
1224.75,111.0,110.0,95.8,116.5,108.3,8.8
1230.5,112.5,112.8,96.1,117.7,109.8,9.4
1236.25,115.6,113.6,97.4,118.1,111.2,9.4
1242.0,116.8,112.2,99.1,117.7,111.4,8.5
1247.75,117.0,115.6,100.1,119.7,113.1,8.8
1253.5,122.1,118.7,103.7,120.2,116.2,8.5
1259.25,127.0,117.5,105.8,123.3,118.4,9.3
1265.0,130.0,119.2,106.5,125.4,120.3,10.2
1270.75,132.4,121.7,108.5,125.3,121.9,10.0
1276.5,135.7,126.2,110.6,127.4,125.0,10.5
1282.25,139.1,129.5,113.5,128.7,127.7,10.6
1288.0,142.6,130.7,116.3,132.7,130.6,10.9
1293.75,145.5,134.9,120.3,133.3,133.5,10.3
1299.5,147.6,134.7,120.0,130.8,133.3,11.4
1305.25,153.4,139.1,123.0,133.1,137.2,12.7
1311.0,153.4,142.8,127.7,129.4,138.3,12.1
1316.75,158.0,147.7,131.3,130.7,141.9,13.3
1322.5,160.0,146.3,130.5,132.0,142.2,13.8
1328.25,166.6,149.7,134.1,127.8,144.6,17.3
1334.0,168.8,151.6,137.6,131.7,147.4,16.5
1339.75,174.7,155.1,140.7,129.9,150.1,19.4
1345.5,177.7,155.0,141.1,133.8,151.9,19.3
1351.25,185.1,157.7,149.1,136.7,157.2,20.5
1357.0,196.6,158.9,154.5,140.6,162.7,23.9
1362.75,197.1,158.0,160.9,140.0,164.0,23.9
1368.5,205.2,159.0,168.2,140.6,168.2,27.2
1374.25,205.3,158.4,175.2,138.8,169.4,28.1
1380.0,198.9,158.2,184.1,138.5,169.9,26.8
1385.75,189.9,163.1,195.7,134.6,170.8,28.0
1391.5,166.5,158.9,195.3,131.9,163.2,26.1
1397.25,137.0,153.9,200.8,126.3,154.5,32.9
1403.0,115.9,150.6,209.5,116.8,148.2,44.0
1408.75,108.7,143.0,210.4,110.4,143.1,47.6
1414.5,99.4,145.1,216.2,97.3,139.5,55.7
1420.25,90.5,126.0,215.3,86.7,129.6,59.8
1426.0,79.9,112.9,204.7,74.4,118.0,60.2
1431.75,74.5,96.7,190.6,67.8,107.4,56.8
1437.5,70.4,85.1,172.7,60.3,97.1,51.4
1443.25,67.6,75.1,147.8,55.1,86.4,41.7
1449.0,64.1,67.2,123.7,50.0,76.3,32.5
1454.75,62.5,61.8,109.0,45.3,69.7,27.4
1460.5,60.9,58.1,98.1,44.6,65.4,22.9
1466.25,59.3,54.5,89.4,42.8,61.5,19.9
1472.0,58.5,53.1,81.8,38.8,58.0,17.9
1477.75,57.0,48.6,75.0,37.1,54.4,15.9
1483.5,54.7,45.1,69.5,35.5,51.2,14.5
1489.25,53.8,43.1,66.5,34.3,49.4,13.9
1495.0,52.9,42.3,62.1,35.2,48.1,11.8
1500.75,54.8,41.1,59.2,35.8,47.7,11.1
1506.5,52.4,40.7,57.9,33.9,46.2,10.9
1512.25,51.1,38.5,56.1,32.6,44.6,10.9
1518.0,48.1,36.8,53.9,31.0,42.5,10.4
1518.5,48.1,37.0,54.2,31.7,42.8,10.3