Folder: fsri_materials_database/01_Data/Particleboard/Cone

Note: README.md
# Materials and Products Database
### Repository of materials and products properties and fire test data to improve fire modeling and fire investigation.

This project was supported in part by Award No. 2019-DU-BX-0018, awarded by the National Institute of Justice, Office of Justice Programs, U.S. Department of Justice. The opinions, findings, and conclusions or recommendations expressed in this publication / program / exhibition are those of the author(s) and do not necessarily reflect those of the Department of Justice.

***
***

__Cite this database:__ "McKinnon, M., Weinschenk, C., Dow, N., DiDomizio, M., and Madrzykowski, D. Materials and Products Database (Version 1.0.0), Fire Safety Research Institute, UL Research Institutes. Columbia, MD 21045, 2023."

__Cite the Technical Reference Guide:__ "McKinnon, M., Weinschenk, C., and Madrzykowski, D. Materials and Products Database - Technical Reference Guide, Fire Safety Research Institute, UL Research Institutes. Columbia, MD 21045, 2023."

__Cite the User Guide:__ "McKinnon, M., and Weinschenk, C. Materials and Products Database - User Guide, Fire Safety Research Institute, UL Research Institutes. Columbia, MD 21045, 2023."

***
***

## Database Structure

## 01_Data/
Raw data generated from each apparatus are included here in plain-text format. The data is organized first by material, next by the short name of test apparatus used, and where applicable additional filtering by test settings.

### Test Apparatus and Data File Structure
- __Cone Calorimeter__ (Cone)
    + Data file structure includes the material, the short name for the apparatus, heat flux setting and scan/scalar, date of test, and replicate number. Scan is for the raw output data and scalar is for the initial conditions and high-level test parameters. 
        * Example: __MDF_Cone_HF25scalar_210323_R1__ stands for the first replicate of scalar data generated from a medium density fiber board test in cone calorimeter exposed to 25 kW/m<sup>2</sup> on March 23, 2021.
    + A _Cone_Notes.csv_ is generated for each material from the __plot_Cone_data.py__ script. For materials whose experiments deviated from typical behavior relevant pictures are included in the respective material directory.
- __Fourier Transform Infrared Spectrometer__ (FTIR)
    + The FTIR directory contains subdirectories for the Attenuated Total Reflectance method (ATR) and the Integrating Sphere (IS)
    + Data file structure for the ATR experiment files includes the material, the abbreviated name for the apparatus, date of test, and replicate number. 
        * Example: __MDF_ATR_210323_R5__ stands for the fifth replicate of data collected with the ATR accessory conducted on June 8, 2021.
    + Data file structure for the IS experiment files includes the material, the abbreviated name for the apparatus, the measurand, whether the test is a sample measurement or standard reference, date of test, and replicate number.
        * Example: __OSB_IS_REFLECT_MEAS_2

File: Particleboard_Cone_HF25Scalar_230705_R1.csv
LABORATORY,FSRI
TEST IDENT,Part_Board_HF25_R1
OPERATOR,Marino
MATERIAL,Particle Board
ORIENTATION,Horizontal
HEAT FLUX,25
SURF AREA,0.01
C FACTOR,0.0396593
SPEC HOLDER DIFF,-566
SPECIMEN MASS,134.81
SCAN TIME,0.25
O2 DELAY TIME,11
CO DELAY TIME,11
CO2 DELAY TIME,8
FLOW FACTOR,1
SCAN COUNT,7108
TIME TO IGN,138.5
END OF TEST SCAN,6628
END OF TEST TIME,1657
TEST STATUS,1
PRE TEST CMT,Dimensions: 101.91 x 101.47 x 19.37 mm
POST TEST CMT,"Load cell bumped ~30 seconds. Momentary ignition occured 2 seconds before sustained ignition. Sample charred, warped, and reduced in surface area."

File: Particleboard_Cone_HF25Scalar_230705_R2.csv
LABORATORY,FSRI
TEST IDENT,Part_Board_HF25_R2
OPERATOR,Marino
MATERIAL,Particle Board
ORIENTATION,Horizontal
HEAT FLUX,25
SURF AREA,0.01
C FACTOR,0.0396593
SPEC HOLDER DIFF,-566
SPECIMEN MASS,137.64
SCAN TIME,0.25
O2 DELAY TIME,11
CO DELAY TIME,11
CO2 DELAY TIME,8
FLOW FACTOR,1
SCAN COUNT,7235
TIME TO IGN,150.5
END OF TEST SCAN,6755
END OF TEST TIME,1688.75
TEST STATUS,1
PRE TEST CMT,Dimensions: 101.83 x 101.78 x 19.41 mm; with tie wires
POST TEST CMT,Momentary ignition occured ~2 seconds before sustained ignition. Sample charred and reduced in surface area.

File: Particleboard_Cone_HF25Scalar_230705_R3.csv
LABORATORY,FSRI
TEST IDENT,Part_Board_HF25_R3
OPERATOR,Marino
MATERIAL,Particle Board
ORIENTATION,Horizontal
HEAT FLUX,25
SURF AREA,0.01
C FACTOR,0.0396593
SPEC HOLDER DIFF,-566
SPECIMEN MASS,136.12
SCAN TIME,0.25
O2 DELAY TIME,11
CO DELAY TIME,11
CO2 DELAY TIME,8
FLOW FACTOR,1
SCAN COUNT,7396
TIME TO IGN,147.5
END OF TEST SCAN,6916
END OF TEST TIME,1729
TEST STATUS,1
PRE TEST CMT,Dimensions: 101.83 x 101.83 x 19.37 mm; with tie wires
POST TEST CMT,"Momentary ignition occured ~2 seconds before sustained ignition. Sample charred and reduced in surface area. Sample self-extinguished ~10 minutes after ignition. Spark ignitor was re-inserted 30-60 seconds later and sample reignited at ~16:20, see reference photos (6602 and 6603)."

File: Particleboard_Cone_HF25Scalar_230705_R4.csv
LABORATORY,FSRI
TEST IDENT,Part_Board_HF25_R4
OPERATOR,Marino
MATERIAL,Particle Board
ORIENTATION,Horizontal
HEAT FLUX,25
SURF AREA,0.01
C FACTOR,0.0387138
SPEC HOLDER DIFF,-566
SPECIMEN MASS,136.17
SCAN TIME,0.25
O2 DELAY TIME,11
CO DELAY TIME,11
CO2 DELAY TIME,8
FLOW FACTOR,1
SCAN COUNT,7217
TIME TO IGN,140.5
END OF TEST SCAN,6737
END OF TEST TIME,1684.25
TEST STATUS,1
PRE TEST CMT,Dimensions: 101.32 x 101.85 x 19.44 mm; with tie wires
POST TEST CMT,Momentary ignition occured ~2 seconds before sustained ignition. Sample charred and reduced in surface area.

File: Particleboard_Cone_HF25Scan_230705_R1.csv
Names,Time,Stack TC,Smoke TC,Exh Press,Smoke Comp,Smoke Meas,CO Meter,CO2 Meter,O2 Meter,Sample Mass,Ext Coeff,Start Test,Flame Verif
Chan Gain,,500,500,1,1,1,1,1,1,1,1,1.0,1.0
Offset,,0,0,0.236064,0,0,0,0,0,0,0,0.0,0.0
Gain,,1,1,25.011,12.8603,34.579,1,1,1,1.00086,0.833623,1.0,1.0
Units,sec,C,C,Pa,%,%,%,%,%,g,/m,,
Baseline,,41.97,43.159,183.146,98.8057,99.4154,0.00086959,0.0420682,20.9675,-444.311,-0.0448873,,
75,18.5,41.3656,41.9584,181.794,99.323,99.9222,0.000678838,0.0452678,20.9662,181.647,-0.0439823,0.0,0.0
150,37.25,41.8837,42.8174,177.391,99.1212,99.8378,0.000895889,0.0476961,20.9651,181.357,-0.0526687,0.0,0.0
225,56,41.7813,43.4124,178.379,99.3493,99.4779,0.000891262,0.0459335,20.9602,181.156,-0.00946162,0.0,0.0
300,74.75,42.5816,44.0611,182.41,99.7912,98.8479,0.000743759,0.0431865,20.9682,181.006,0.0694508,0.0,0.0
375,93.5,42.7354,44.0914,185.334,99.9011,99.3133,0.00087857,0.0460605,20.9647,180.776,0.0431514,0.0,0.0
450,112.25,42.8196,44.1985,177.696,99.7413,98.3931,0.00108744,0.0466201,20.9681,180.486,0.0995208,0.0,0.0
525,131,43.5262,44.617,185.332,99.4427,95.9681,0.00126072,0.0497694,20.9635,180.036,0.260074,0.0,0.0
600,149.75,48.4838,54.1195,162.694,99.7048,104.138,0.00288608,0.154998,20.9334,178.094,-0.31811,0.0,0.0
675,168.5,59.4374,68.2667,155.7,100.053,99.6953,0.00407804,0.443779,20.5066,174.901,0.0261882,0.0,0.0
750,187.25,64.8861,73.3778,166.723,100.255,100.278,0.00490965,0.411094,20.5228,171.888,-0.00168478,0.0,0.0
825,206,66.2581,73.9887,163.209,100.325,101.712,0.004756,0.35278,20.5899,169.286,-0.100429,0.0,0.0
900,224.75,66.2292,73.0012,164.105,100.201,103.899,0.00432325,0.309798,20.6438,166.984,-0.265023,0.0,0.0
975,243.5,65.9422,71.2072,168.429,99.8367,102.452,0.00322465,0.275475,20.6856,164.872,-0.189064,0.0,0.0
1050,262.25,65.0163,69.9767,170.533,99.2837,101.425,0.00293696,0.255324,20.7073,163.041,-0.156024,0.0,0.0
1125,281,63.6546,67.8409,173.278,98.6636,101.903,0.00294607,0.227402,20.7377,161.369,-0.236222,0.0,0.0
1200,299.75,62.3727,65.7857,173.565,98.4705,99.5771,0.00260475,0.207041,20.7663,159.838,-0.0817153,0.0,0.0
1275,318.5,61.764,65.0774,172.748,98.5278,100.914,0.00284348,0.19747,20.7794,158.387,-0.174993,0.0,0.0
1350,337.25,60.588,63.9647,174.358,98.9388,102.176,0.00289217,0.191897,20.7893,156.916,-0.235447,0.0,0.0
1425,356,60.1949,63.108,172.893,99.4764,102.445,0.00246091,0.18501,20.7951,155.604,-0.215048,0.0,0.0
1500,374.75,59.6457,62.6696,181.374,99.726,102.127,0.00275185,0.178512,20.8054,154.273,-0.173939,0.0,0.0
1575,393.5,58.9902,61.5204,171.748,99.6063,102.332,0.00297809,0.173075,20.8092,153.032,-0.197441,0.0,0.0
1650,412.25,58.8215,60.6362,179.415,99.2598,102.725,0.00344282,0.166754,20.8177,151.791,-0.250925,0.0,0.0
1725,431,58.5381,60.7758,171.604,99.1008,100.958,0.00382271,0.164391,20.8228,150.53,-0.135801,0.0,0.0
1800,449.75,57.8275,60.4054,176.048,99.0573,100.36,0.0032637,0.162409,20.8237,149.399,-0.0955492,0.0,0.0
1875,468.5,57.1184,59.7852,171.904,99.122,101.096,0.00424726,0.155369,20.8334,148.248,-0.144167,0.0,0.0
1950,487.25,57.029,59.0269,170.656,99.199,100.398,0.00506156,0.150665,20.8384,147.037,-0.0878647,0.0,0.0
2025,506,56.6485,58.7777,179.583,99.4132,101.264,0.00573976,0.145368,20.8447,146.026,-0.134917,0.0,0.0
2100,524.75,56.5536,58.2656,174.208,99.8116,101.094,0.00543249,0.144044,20.845,144.975,-0.093319,0.0,0.0
2175,543.5,55.7163,57.9539,176.546,99.8614,101.556,0.00670174,0.141244,20.8509,143.904,-0.123025,0.0,0.0
2250,562.25,55.0994,56.9205,176.593,99.5255,100.159,0.00697776,0.136128,20.8537,142.843,-0.0463659,0.0,0.0
2325,581,54.1644,56.0186,175.237,99.5769,100.742,0.00826179,0.121618,20.8725,141.893,-0.0850707,0.0,0.0
2400,599.75,53.4489,55.0199,176.693,99.8328,100.615,0.00864016,0.120408,20.8732,140.892,-0.0571066,0.0,0.0
2475,618.5,53.0663,53.9926,179.665,100.111,100.108,0.00880112,0.114397,20.8825,139.911,0.000258895,0.0,0.0
2550,637.25,52.4823,53.0107,176.652,100.325,101.037,0.00927616,0.113215,20.8878,139,-0.0517117,0.0,0.0
2625,656,52.2687,52.6055,182.073,100.266,100.447,0.00965984,0.121182,20.8759,138.119,-0.0131857,0.0,0.0
2700,674.75,51.7833,52.676,180.986,99.9576,101.732,0.00949422,0.113018,20.8795,137.178,-0.128666,0.0,0.0
2775,693.5,51.2817,52.2096,177.533,99.3324,99.8114,0.0102017,0.104191,20.8979,136.298,-0.0351754,0.0,0.0
2850,712.25,51.1486,52.2398,178.669,98.8606,98.9249,0.010002,0.105945,20.8935,135.447,-0.00475414,0.0,0.0
2925,731,51.0038,52.2431,173.053,98.646,98.6569,0.00959039,0.107034,20.8922,134.586,-0.000810304,0.0,0.0
3000,749.75,50.8026,52.5768,178.525,98.5545,98.849,0.00988649,0.104909,20.8948,133.695,-0.0218141,0.0,0.0
3075,768.5,50.9413,51.3647,176.503,98.5059,98.3794,0.00935549,0.107213,20.8921,132.845,0.00939541,0.0,0.0
3150,787.25,50.8784,52.2024,176.605,98.5129,97.3389,0.0100362,0.110738,20.8901,131.964,0.0876716,0.0,0.0
3225,806,50.6735,51.5188,179.358,98.6405,99.4093,0.00920056,0.108259,20.8926,131.183,-0.0567745,0.0,0.0
3300,824.75,50.7418,51.6913,178.147,98.8697,98.5113,0.00958336,0.106917,20.8931,130.283,0.0265556,0.0,0.0
3375,843.5,50.722,52.0886,178.311,99.1628,99.2246,0.00922798,0.10671,20.8959,129.492,-0.00455526,0.0,0.0
3450,862.25,50.7952,51.7794,174.261,99.4894,99.67,0.00931116,0.111333,20.8902,128.631,-0.0132608,0.0,0.0
3525,881,50.7201,52.4598,176.01,99.719,101.238,0.00878833,0.115744,20.8808,127.78,-0.110558,0.0,0.0
3600,899.75,50.9063,52.9432,174.523,99.7464,100.896,0.00877772,0.126906,20.8723,126.95,-0.0838057,0.0,0.0
3675,918.5,51.6223,53.4361,179.063,99.6797,99.6784,0.00862194,0.123807,20.8716,126.149,9.67598e-05,0.0,0.0
3750,937.25,51.7177,53.5796,171.637,99.507,100.686,0.0085222,0.120974,20.8736,125.298,-0.0861427,0.0,0.0
3825,956,51.7655,53.3255,179.627,99.2347,100.169,0.00851633,0.121715,20.8732,124.4375,-0.0685349,0.0,0.0
3900,974.75,51.8731,53.9625,178.566,99.3112,99.5813,0.00848428,0.134678,20.8612,123.607,-0.0198624,0.0,0.0
3975,993.5,51.9459,54.1995,177.115,99.1719,100.411,0.0084687,0.129462,20.8686,122.756,-0.0907838,0.0,0.0
4050,1012.25,52.3944,54.3545,175.155,99.1063,100.622,0.00754187,0.134461,20.8591,121.875,-0.110972,0.0,0.0
4125,1031,52.6019,55.2654,173.378,99.5561,100.514,0.00672723,0.141677,20.8499,121.025,-0.0700349,0.0,0.0
4200,1049.75,53.3492,55.4958,175.687,99.7147,100.357,0.00695611,0.142567,20.8488,120.164,-0.0469502,0.0,0.0
4275,1068.5,53.1992,55.524,173.389,99.8489,102.144,0.0063652,0.145041,20.8425,119.303,-0.166146,0.0,0.0
4350,1087.25,53.6522,56.34,177.311,99.8732,100.205,0.00604035,0.140373,20.8523,118.362,-0.0242512,0.0,0.0
4425,1106,54.3,56.5367,174.759,99.6393,102.271,0.00560716,0.140728,20.8533,117.502,-0.190646,0.0,0.0
4500,1124.75,54.3182,56.2253,179.106,99.5353,101.671,0.00594406,0.14265,20.8502,116.641,-0.155224,0.0,0.0
4575,1143.5,54.4199,57.0895,176.372,99.737,100.791,0.00620229,0.144574,20.8479,115.65,-0.0768444,0.0,0.0
4650,1162.25,55.0429,57.254,172.39,100.035,101.449,0.00557919,0.149099,20.8416,114.709,-0.102655,0.0,0.0
4725,1181,55.5579,58.0789,176.648,100.236,102.424,0.00503394,0.153578,20.8382,113.728,-0.1579,0.0,0.0
4800,1199.75,55.9573,58.6921,172.537,100.353,100.821,0.00440429,0.158865,20.8339,112.707,-0.0340267,0.0,0.0
4875,1218.5,56.7349,59.2261,175.221,100.251,102.727,0.00396851,0.164691,20.8253,111.636,-0.178432,0.0,0.0
4950,1237.25,57.0736,59.5611,173.51,99.9011,101.917,0.00354639,0.171284,20.8182,110.505,-0.146064,0.0,0.0
5025,1256,57.3495,60.7841,173.104,99.186,102.731,0.00302545,0.178732,20.8104,109.344,-0.256813,0.0,0.0
5100,1274.75,58.4269,61.1255,170.473,98.8116,101.289,0.00269255,0.185229,20.805,108.093,-0.181059,0.0,0.0
5175,1293.5,59.046,62.2087,172.513,98.6468,99.4273,0.00263672,0.1931,20.796,106.812,-0.0576289,0.0,0.0
5250,1312.25,59.648,63.3128,171.407,98.5957,102.087,0.00267171,0.201287,20.7831,105.461,-0.254421,0.0,0.0
5325,1331,60.4986,64.4535,173.548,98.7853,101.08,0.00223499,0.212972,20.7716,103.96,-0.167905,0.0,0.0
5400,1349.75,61.4349,65.237,161.924,99.2398,101.47,0.00247796,0.224905,20.7579,102.418,-0.162532,0.0,0.0
5475,1368.5,62.577,66.9375,170.047,99.5031,101.218,0.00222776,0.237595,20.7459,100.817,-0.124956,0.0,0.0
5550,1387.25,63.4907,67.3725,162.567,99.6562,101.157,0.00246799,0.249157,20.7321,99.0656,-0.109293,0.0,0.0
5625,1406,64.8283,68.954,168.69,99.7264,101.993,0.00237349,0.267622,20.7078,97.204,-0.164308,0.0,0.0
5700,1424.75,66.068,70.6812,169.279,99.8147,101.576,0.00308458,0.28487,20.6908,95.2323,-0.12789,0.0,0.0
5775,1443.5,66.9123,71.687,165.421,99.8336,99.6077,0.00319147,0.301666,20.6665,93.1405,0.016563,0.0,0.0
5850,1462.25,68.351,73.5485,164.17,99.8536,98.1557,0.00341079,0.319349,20.6424,90.9386,0.125413,0.0,0.0
5925,1481,69.9794,75.7257,160.359,99.8489,97.7167,0.00456263,0.348209,20.6068,88.5365,0.157845,0.0,0.0
6000,1499.75,71.8485,77.5453,167.403,99.8281,95.7433,0.00574457,0.377332,20.5654,86.0143,0.305506,0.0,0.0
6075,1518.5,72.3541,77.2715,162.616,99.6927,96.7089,0.00556049,0.353732,20.5634,84.0626,0.222204,0.0,0.0
6150,1537.25,68.3276,72.0584,172.265,99.5369,97.4634,0.00347679,0.215544,20.7108,83.0918,0.153936,0.0,0.0
6225,1556,64.7661,66.807,173.781,99.3999,99.385,0.0064639,0.162686,20.7834,82.3712,0.00109305,0.0,0.0
6300,1574.75,62.0769,62.9447,177.364,99.2437,99.6309,0.00705915,0.137641,20.8304,81.9008,-0.0284759,0.0,0.0
6375,1593.5,59.848,60.4763,174.784,99.2939,100.239,0.00733968,0.127678,20.8487,81.4704,-0.0692517,0.0,0.0
6450,1612.25,58.2492,58.7794,172.041,99.77,100.748,0.00685029,0.121445,20.858,81,-0.0713644,0.0,0.0
6525,1631,56.4313,57.3549,174.093,99.9289,100.784,0.00725459,0.113886,20.8659,80.6297,-0.0623275,0.0,0.0
6600,1649.75,55.3902,56.0046,177.27,99.9352,101.318,0.00754947,0.110317,20.8709,80.2593,-0.100508,0.0,0.0
6675,1668.5,53.4431,53.6723,173.517,99.8917,100.542,0.00902404,0.10052,20.8851,79.899,-0.0474248,0.0,0.0
6750,1687.25,52.5861,52.7914,179.243,99.5938,99.518,0.00920709,0.0983477,20.8922,79.4887,0.00556553,0.0,0.0
6825,1706,51.9893,52.4212,178.495,99.7633,99.2753,0.00899396,0.0982467,20.8908,79.2585,0.0358597,0.0,0.0
6900,1724.75,51.1885,51.6117,175.98,100,101.016,0.00864497,0.0970697,20.8953,78.9582,-0.0739564,0.0,0.0
6975,1743.5,51.2159,51.7781,180.431,100.098,100.653,0.00879805,0.0991453,20.8945,78.688,-0.0404889,0.0,0.0
7050,1762.25,50.9569,51.7188,177.789,100.088,99.6003,0.00823326,0.097385,20.895,78.4077,0.0357097,0.0,0.0
7108,1776.75,50.5715,51.4212,179.108,100.094,99.2964,0.00829094,0.0977679,20.8969,78.2076,0.0584877,0.0,0.0