Folder: fsri_materials_database/01_Data/Particleboard/Cone (part 7)

File: Particleboard_HRRPUA_50.csv
Time after Ignition,Particleboard_R1,Particleboard_R2,Particleboard_R3,Mean,Std. Dev.
0.0,-1.4,-0.6,-0.5,-0.8,0.5
4.25,-1.2,-0.8,-0.2,-0.7,0.5
8.5,-0.5,-0.2,0.5,-0.1,0.5
12.75,17.8,17.5,14.4,16.6,1.9
17.0,106.4,61.5,64.3,77.4,25.1
21.25,172.6,139.3,130.6,147.5,22.2
25.5,219.5,188.2,194.4,200.7,16.6
29.75,257.0,246.2,233.6,245.6,11.7
34.0,291.2,274.2,260.4,275.3,15.4
38.25,307.1,300.9,276.8,294.9,16.0
42.5,307.0,317.8,294.4,306.4,11.7
46.75,307.8,300.6,305.9,304.8,3.7
51.0,303.7,299.2,310.4,304.4,5.7
55.25,300.0,297.2,304.8,300.7,3.9
59.5,293.5,297.0,293.5,294.6,2.0
63.75,279.4,291.7,288.2,286.4,6.4
68.0,266.4,282.9,278.8,276.1,8.6
72.25,260.3,272.2,266.7,266.4,6.0
76.5,246.6,249.2,256.1,250.6,4.9
80.75,233.6,243.0,243.6,240.1,5.6
85.0,224.3,229.0,236.3,229.9,6.1
89.25,212.7,219.2,226.2,219.3,6.7
93.5,208.9,207.4,215.0,210.5,4.0
97.75,202.7,197.7,203.1,201.2,3.0
102.0,191.0,190.1,195.1,192.1,2.7
106.25,183.0,179.5,188.7,183.8,4.6
110.5,176.5,173.4,179.6,176.5,3.1
114.75,172.9,167.8,170.4,170.4,2.5
119.0,169.5,163.1,161.7,164.8,4.1
123.25,166.7,160.4,158.7,161.9,4.2
127.5,161.2,158.2,158.3,159.2,1.7
131.75,154.4,153.7,148.5,152.2,3.2
136.0,154.3,148.6,145.8,149.5,4.3
140.25,152.6,150.1,141.8,148.2,5.7
144.5,149.8,148.1,140.6,146.2,4.9
148.75,147.4,146.3,136.8,143.5,5.8
153.0,145.5,141.9,134.4,140.6,5.7
157.25,139.6,137.6,134.7,137.3,2.5
161.5,137.3,139.6,134.1,137.0,2.8
165.75,137.7,136.7,130.2,134.9,4.1
170.0,135.1,133.6,131.1,133.3,2.0
174.25,132.0,131.3,129.4,130.9,1.4
178.5,130.9,127.1,126.4,128.1,2.4
182.75,130.8,129.0,128.0,129.3,1.4
187.0,129.0,127.6,124.3,127.0,2.4
191.25,128.1,124.9,123.4,125.5,2.4
195.5,126.5,122.8,124.1,124.5,1.9
199.75,123.9,123.5,123.9,123.8,0.2
204.0,124.4,120.5,120.9,121.9,2.1
208.25,124.3,120.0,119.1,121.1,2.8
212.5,124.8,122.3,118.4,121.8,3.2
216.75,122.7,118.5,115.2,118.8,3.7
221.0,120.5,115.8,114.2,116.8,3.3
225.25,118.3,117.3,115.1,116.9,1.6
229.5,118.2,118.4,114.0,116.8,2.5
233.75,118.4,115.0,114.8,116.1,2.0
238.0,119.3,116.4,113.6,116.4,2.9
242.25,120.9,113.9,112.4,115.7,4.5
246.5,119.2,114.2,114.2,115.9,2.9
250.75,116.6,111.5,113.5,113.9,2.6
255.0,116.5,112.5,112.7,113.9,2.3
259.25,114.5,110.9,112.2,112.5,1.8
263.5,113.2,110.7,110.4,111.4,1.5
267.75,113.0,108.0,109.1,110.0,2.6
272.0,114.3,109.0,109.3,110.8,2.9
276.25,110.3,109.7,106.5,108.8,2.0
280.5,110.2,105.1,107.4,107.6,2.6
284.75,109.4,105.1,107.1,107.2,2.1
289.0,108.0,103.6,107.6,106.4,2.4
293.25,104.7,104.5,105.3,104.9,0.4
297.5,103.1,101.4,105.5,103.3,2.1
301.75,104.8,101.5,106.8,104.4,2.7
306.0,103.6,100.1,104.4,102.7,2.3
310.25,103.6,99.2,104.7,102.5,2.9
314.5,103.2,97.2,106.8,102.4,4.9
318.75,99.8,94.9,103.1,99.3,4.2
323.0,99.5,95.5,102.2,99.1,3.4
327.25,98.6,94.6,100.4,97.9,2.9
331.5,98.2,92.2,99.4,96.6,3.8
335.75,98.3,91.0,98.7,96.0,4.3
340.0,94.8,92.9,97.8,95.2,2.5
344.25,95.3,91.8,97.2,94.8,2.8
348.5,94.8,89.4,95.5,93.2,3.3
352.75,92.4,90.8,93.0,92.1,1.1
357.0,90.7,87.0,92.5,90.1,2.8
361.25,90.1,87.3,91.9,89.8,2.3
365.5,89.5,86.8,91.6,89.3,2.4
369.75,89.5,85.9,90.2,88.5,2.3
374.0,89.1,84.7,89.8,87.9,2.8
378.25,87.8,86.2,88.4,87.5,1.1
382.5,87.7,85.8,86.7,86.7,0.9
386.75,86.8,83.9,86.7,85.8,1.7
391.0,86.7,82.5,85.9,85.0,2.2
395.25,86.5,82.6,83.2,84.1,2.1
399.5,84.1,81.0,85.5,83.5,2.3
403.75,84.0,80.2,84.7,83.0,2.5
408.0,83.7,78.5,83.1,81.7,2.9
412.25,82.4,79.4,80.7,80.8,1.5
416.5,83.8,80.5,80.1,81.5,2.0
420.75,83.4,79.6,79.1,80.7,2.4
425.0,85.0,78.6,79.8,81.2,3.4
429.25,83.9,79.2,79.9,81.0,2.5
433.5,83.5,78.6,78.3,80.1,2.9
437.75,85.1,77.7,76.8,79.9,4.5
442.0,84.1,75.6,78.5,79.4,4.3
446.25,85.2,74.6,76.1,78.7,5.7
450.5,85.6,75.4,76.3,79.1,5.6
454.75,83.8,74.9,75.5,78.1,5.0
459.0,83.8,75.8,76.8,78.8,4.4
463.25,82.2,74.0,76.8,77.7,4.1
467.5,83.4,73.8,76.7,78.0,4.9
471.75,84.9,74.2,76.0,78.4,5.8
476.0,85.5,74.8,75.3,78.5,6.1
480.25,85.1,74.6,76.2,78.6,5.7
484.5,84.2,74.7,75.5,78.1,5.3
488.75,83.5,74.2,75.8,77.8,5.0
493.0,84.7,76.3,75.6,78.9,5.1
497.25,86.9,75.8,75.5,79.4,6.5
501.5,85.7,75.1,74.9,78.6,6.2
505.75,85.5,75.8,75.6,79.0,5.7
510.0,86.0,75.9,76.3,79.4,5.7
514.25,86.2,75.2,76.6,79.3,6.0
518.5,87.2,73.7,75.4,78.8,7.3
522.75,87.8,75.3,77.2,80.1,6.8
527.0,87.9,75.0,78.9,80.6,6.6
531.25,90.1,75.4,77.5,81.0,8.0
535.5,89.4,75.0,77.7,80.7,7.7
539.75,88.8,74.3,77.0,80.0,7.7
544.0,90.2,74.8,78.0,81.0,8.1
548.25,91.0,74.4,78.7,81.4,8.6
552.5,90.1,74.8,78.9,81.3,7.9
556.75,90.2,74.9,78.0,81.0,8.1
561.0,91.5,76.6,79.9,82.7,7.8
565.25,93.2,74.9,79.6,82.6,9.5
569.5,91.6,75.1,80.5,82.4,8.4
573.75,92.9,76.0,79.3,82.7,9.0
578.0,91.7,75.4,81.5,82.9,8.2
582.25,92.7,76.8,83.6,84.4,8.0
586.5,94.7,76.7,83.2,84.9,9.1
590.75,95.0,75.8,83.8,84.8,9.6
595.0,96.1,76.9,81.6,84.8,10.0
599.25,95.5,77.4,83.8,85.6,9.1
603.5,97.3,77.9,85.4,86.9,9.8
607.75,97.2,80.7,83.7,87.2,8.8
612.0,96.4,80.6,84.6,87.2,8.2
616.25,98.7,80.1,85.0,88.0,9.6
620.5,99.0,80.4,86.3,88.6,9.5
624.75,98.5,81.2,85.2,88.3,9.0
629.0,98.8,80.8,86.7,88.7,9.2
633.25,99.3,81.8,87.3,89.5,9.0
637.5,100.7,81.6,88.0,90.1,9.7
641.75,100.6,80.7,89.8,90.4,9.9
646.0,101.9,84.3,89.5,91.9,9.1
650.25,101.2,84.0,90.0,91.7,8.7
654.5,101.4,85.3,89.6,92.1,8.4
658.75,102.3,85.2,91.5,93.0,8.6
663.0,101.5,84.8,94.0,93.4,8.4
667.25,102.9,86.0,95.4,94.8,8.5
671.5,103.6,84.8,94.4,94.3,9.4
675.75,104.6,87.0,97.9,96.5,8.9
680.0,104.2,86.3,98.9,96.4,9.2
684.25,106.5,85.4,100.3,97.4,10.8
688.5,105.6,85.5,99.0,96.7,10.3
692.75,108.3,87.0,102.5,99.2,11.0
697.0,107.5,89.2,103.3,100.0,9.6
701.25,107.6,90.5,106.4,101.5,9.5
705.5,108.9,90.5,108.5,102.6,10.5
709.75,109.0,91.2,107.4,102.6,9.8
714.0,108.6,92.2,108.1,102.9,9.3
718.25,110.1,91.7,109.8,103.9,10.5
722.5,111.0,91.8,111.6,104.8,11.3
726.75,111.1,93.4,113.8,106.1,11.1
731.0,112.3,95.1,114.5,107.3,10.6
735.25,111.5,94.7,117.0,107.7,11.6
739.5,110.6,96.3,118.3,108.4,11.2
743.75,109.7,97.4,117.3,108.1,10.0
748.0,112.9,99.8,118.2,110.3,9.5
752.25,112.6,101.3,120.8,111.6,9.8
756.5,113.2,100.9,120.9,111.7,10.1
760.75,113.2,101.2,121.6,112.0,10.3
765.0,112.0,102.7,124.2,113.0,10.7
769.25,111.9,103.6,123.3,112.9,9.9
773.5,113.2,105.0,122.8,113.7,8.9
777.75,112.1,105.5,123.0,113.6,8.8
782.0,113.2,108.2,123.0,114.8,7.5
786.25,115.6,107.3,122.6,115.2,7.7
790.5,112.2,107.7,120.9,113.6,6.7
794.75,110.7,108.1,118.9,112.6,5.7
799.0,113.7,109.2,121.8,114.9,6.4
803.25,114.6,109.4,123.3,115.8,7.0
807.5,114.4,109.6,122.4,115.5,6.5
811.75,112.2,110.6,120.8,114.5,5.5
816.0,113.1,112.8,118.9,114.9,3.4
820.25,113.6,112.0,122.6,116.1,5.7
824.5,114.1,111.8,121.9,115.9,5.3
828.75,113.5,113.2,119.7,115.5,3.6
833.0,115.1,113.2,121.6,116.6,4.4
837.25,113.1,114.4,119.5,115.7,3.4
841.5,116.1,114.9,117.2,116.1,1.1
845.75,116.3,115.1,120.7,117.4,3.0
850.0,116.9,114.5,119.2,116.8,2.3
854.25,115.9,115.3,117.4,116.2,1.1
858.5,116.4,116.6,115.7,116.2,0.5
862.75,116.7,116.7,117.6,117.0,0.5
867.0,114.7,122.1,118.8,118.6,3.7
871.25,117.6,124.2,116.1,119.3,4.3
875.5,117.4,123.1,117.0,119.2,3.4
879.75,116.4,120.1,120.2,118.9,2.2
884.0,119.4,122.9,117.9,120.1,2.6
888.25,117.0,122.6,118.0,119.2,3.0
892.5,118.6,125.7,118.7,121.0,4.0
896.75,119.9,123.5,120.0,121.1,2.1
901.0,121.0,124.5,119.6,121.7,2.6
905.25,117.8,123.4,117.5,119.6,3.3
909.5,116.3,121.3,118.7,118.8,2.5
913.75,120.0,123.3,122.7,122.0,1.8
918.0,118.1,126.3,121.6,122.0,4.1
922.25,116.8,124.6,124.1,121.8,4.4
926.5,117.5,123.4,121.8,120.9,3.1
930.75,119.6,123.2,125.7,122.8,3.1
935.0,121.5,124.1,124.1,123.2,1.5
939.25,120.0,124.3,126.8,123.7,3.4
943.5,119.0,121.8,126.3,122.4,3.7
947.75,117.4,125.5,127.9,123.6,5.5
952.0,117.8,125.5,130.8,124.7,6.6
956.25,120.6,125.4,129.5,125.2,4.4
960.5,118.5,125.5,130.1,124.7,5.9
964.75,119.7,127.5,131.3,126.1,5.9
969.0,119.5,127.8,133.2,126.9,6.9
973.25,120.4,130.2,133.0,127.9,6.6
977.5,118.5,131.1,130.2,126.6,7.0
981.75,117.9,129.2,132.3,126.5,7.6
986.0,121.1,129.8,130.1,127.0,5.1
990.25,118.3,130.1,130.6,126.3,7.0
994.5,118.0,131.6,132.5,127.4,8.1
998.75,116.7,132.2,131.4,126.8,8.8
1003.0,118.9,129.8,130.7,126.5,6.6
1007.25,117.4,126.9,129.5,124.6,6.4
1011.5,116.6,129.3,126.4,124.1,6.6
1015.75,116.2,127.3,126.4,123.3,6.2
1020.0,116.0,128.2,123.7,122.6,6.2
1024.25,115.1,125.5,121.8,120.8,5.3
1028.5,115.3,128.2,119.8,121.1,6.5
1032.75,113.9,127.3,118.5,119.9,6.8
1037.0,113.3,125.9,118.8,119.3,6.3
1041.25,113.3,125.1,119.2,119.2,5.9
1045.5,111.7,124.1,116.6,117.5,6.2
1049.75,113.1,124.1,116.6,118.0,5.6
1054.0,111.4,122.8,112.1,115.4,6.4
1058.25,109.9,123.7,110.8,114.8,7.7
1062.5,108.6,120.5,107.9,112.3,7.1
1066.75,106.7,120.1,107.5,111.4,7.5
1071.0,105.9,118.8,106.6,110.4,7.3
1075.25,102.5,117.1,104.8,108.1,7.8
1079.5,101.7,114.9,101.3,106.0,7.7
1083.75,97.6,113.3,99.0,103.3,8.7
1088.0,94.5,109.7,94.7,99.6,8.7
1092.25,90.4,110.3,90.0,96.9,11.6
1096.5,81.2,107.5,82.1,90.3,15.0
1100.75,75.7,107.0,75.2,86.0,18.2
1105.0,71.3,103.7,67.0,80.6,20.1
1109.25,67.3,98.2,63.1,76.2,19.2
1113.5,63.0,92.2,59.3,71.5,18.0
1117.75,58.6,85.6,56.4,66.9,16.3
1122.0,56.8,77.7,53.0,62.5,13.3
1126.25,53.3,69.0,49.6,57.3,10.3
1130.5,51.2,64.6,48.1,54.6,8.8
1134.75,50.3,60.5,47.2,52.7,6.9
1139.0,50.2,56.8,45.5,50.8,5.7
1143.25,49.3,53.1,43.6,48.6,4.8
1147.5,47.1,51.8,43.3,47.4,4.3
1151.75,46.2,50.1,43.6,46.6,3.3
1156.0,46.0,47.7,42.0,45.3,2.9
1160.25,44.1,46.7,41.6,44.1,2.5
1164.5,41.5,45.0,42.5,43.0,1.8
1168.75,40.8,44.5,41.5,42.3,2.0
1173.0,41.4,43.7,41.3,42.1,1.4
1177.25,42.3,43.9,40.0,42.1,2.0
1181.5,42.6,43.9,40.1,42.2,1.9
1185.75,42.7,43.4,40.1,42.1,1.8
1190.0,42.9,42.1,39.6,41.5,1.7
1194.25,45.7,41.6,39.0,42.1,3.4
1198.5,46.4,41.9,38.6,42.3,3.9
1202.75,44.9,41.5,37.7,41.3,3.6
1207.0,42.0,41.0,36.9,39.9,2.7
1211.25,40.1,40.4,36.0,38.8,2.5
1215.5,38.7,39.8,36.3,38.3,1.8
1219.75,38.6,39.4,37.0,38.3,1.2
1224.0,38.0,39.6,37.3,38.3,1.2
1228.25,37.9,39.2,37.6,38.2,0.8
1232.5,38.6,39.3,36.4,38.1,1.5
1236.75,37.5,37.8,36.1,37.1,0.9
1241.0,36.6,36.8,36.0,36.5,0.4
1245.25,36.8,35.7,34.4,35.6,1.2
1247.25,35.8,35.2,33.9,35.0,1.0

File: Particleboard_HRRPUA_75.csv
Time after Ignition,Particleboard_R1,Particleboard_R2,Particleboard_R3,Mean,Std. Dev.
0.0,-1.3,2.9,3.7,1.7,2.7
4.25,-1.4,1.4,1.6,0.5,1.7
8.5,-0.6,1.3,1.3,0.7,1.1
12.75,6.9,13.4,32.7,17.7,13.4
17.0,106.0,90.7,140.3,112.3,25.4
21.25,238.2,207.6,246.7,230.8,20.6
25.5,347.4,310.9,328.8,329.0,18.2
29.75,412.7,382.9,397.3,397.6,14.9
34.0,429.7,417.9,435.5,427.7,9.0
38.25,433.1,426.5,430.3,430.0,3.3
42.5,438.9,427.6,421.7,429.4,8.8
46.75,419.2,415.0,397.6,410.6,11.4
51.0,407.5,390.6,388.2,395.4,10.5
55.25,384.0,366.3,374.9,375.1,8.9
59.5,371.7,356.3,351.5,359.9,10.5
63.75,345.7,343.4,347.9,345.7,2.3
68.0,335.8,322.8,335.0,331.2,7.3
72.25,318.8,311.8,309.6,313.4,4.8
76.5,294.6,299.1,287.0,293.6,6.1
80.75,272.9,284.3,272.2,276.5,6.8
85.0,266.6,264.8,259.6,263.7,3.6
89.25,264.0,251.4,254.1,256.5,6.6
93.5,244.1,242.8,238.7,241.9,2.8
97.75,235.5,234.6,230.6,233.6,2.6
102.0,236.1,227.4,228.8,230.7,4.7
106.25,223.2,219.2,213.9,218.7,4.7
110.5,216.2,214.8,213.5,214.8,1.3
114.75,207.1,209.3,208.4,208.3,1.1
119.0,205.5,202.6,202.0,203.4,1.9
123.25,206.9,196.2,197.1,200.0,5.9
127.5,201.7,189.7,193.5,195.0,6.1
131.75,197.3,185.1,193.1,191.8,6.2
136.0,194.5,185.7,186.8,189.0,4.8
140.25,189.3,182.4,183.4,185.0,3.8
144.5,188.2,181.7,179.8,183.2,4.4
148.75,185.2,180.3,180.3,181.9,2.8
153.0,184.8,176.4,178.0,179.7,4.4
157.25,181.4,171.0,177.1,176.5,5.2
161.5,178.8,168.2,173.9,173.6,5.3
165.75,178.5,164.7,172.3,171.8,6.9
170.0,174.3,168.4,169.0,170.5,3.2
174.25,174.1,162.9,168.7,168.6,5.6
178.5,168.5,159.8,167.7,165.3,4.8
182.75,171.5,161.3,167.6,166.8,5.2
187.0,172.1,165.8,165.6,167.8,3.7
191.25,168.9,163.6,165.7,166.0,2.7
195.5,166.1,166.9,161.6,164.9,2.8
199.75,163.9,161.7,161.9,162.5,1.2
204.0,164.8,160.6,163.3,162.9,2.1
208.25,162.2,155.2,164.6,160.6,4.9
212.5,163.5,154.0,164.3,160.6,5.7
216.75,161.1,153.1,162.1,158.8,4.9
221.0,160.8,156.1,159.1,158.7,2.3
225.25,156.5,152.0,162.3,157.0,5.2
229.5,154.8,150.0,158.4,154.4,4.2
233.75,153.9,151.0,157.0,154.0,3.0
238.0,153.5,147.0,156.4,152.3,4.8
242.25,151.2,147.1,156.4,151.6,4.7
246.5,152.1,149.0,158.5,153.2,4.9
250.75,152.2,146.3,153.2,150.6,3.7
255.0,145.0,145.9,153.3,148.0,4.6
259.25,147.4,142.7,146.6,145.5,2.5
263.5,145.0,140.4,145.6,143.7,2.8
267.75,144.6,143.6,145.4,144.5,0.9
272.0,143.5,140.4,145.1,143.0,2.4
276.25,141.4,135.5,139.3,138.7,2.9
280.5,140.6,135.3,135.8,137.2,3.0
284.75,138.9,136.2,136.7,137.2,1.4
289.0,135.9,133.5,135.5,135.0,1.3
293.25,135.1,134.0,131.6,133.6,1.8
297.5,135.8,131.1,131.0,132.6,2.7
301.75,134.6,131.3,131.4,132.5,1.9
306.0,132.5,131.6,129.0,131.0,1.8
310.25,132.6,128.0,128.4,129.7,2.6
314.5,132.0,126.8,128.3,129.0,2.7
318.75,127.3,124.8,125.7,125.9,1.3
323.0,127.0,126.9,128.8,127.6,1.1
327.25,126.0,125.2,125.9,125.7,0.5
331.5,127.9,127.3,124.8,126.7,1.7
335.75,130.7,123.9,123.7,126.1,4.0
340.0,126.2,124.6,125.4,125.4,0.8
344.25,123.8,123.6,123.1,123.5,0.3
348.5,125.7,124.6,121.5,123.9,2.1
352.75,125.4,122.6,123.4,123.8,1.4
357.0,127.9,123.2,122.4,124.5,3.0
361.25,130.3,123.2,122.3,125.3,4.4
365.5,127.4,123.7,124.1,125.1,2.1
369.75,125.4,122.0,121.6,123.0,2.1
374.0,124.6,123.0,121.5,123.1,1.5
378.25,125.7,125.1,121.3,124.0,2.4
382.5,127.0,118.6,124.2,123.3,4.3
386.75,125.8,127.5,121.0,124.7,3.4
391.0,125.5,124.1,122.8,124.1,1.4
395.25,126.1,123.4,123.7,124.4,1.5
399.5,130.6,123.9,124.5,126.4,3.7
403.75,128.7,121.8,124.4,125.0,3.5
408.0,128.9,125.1,124.6,126.2,2.3
412.25,130.1,127.1,124.5,127.3,2.8
416.5,132.5,125.7,123.0,127.0,4.9
420.75,127.3,125.5,122.1,125.0,2.6
425.0,131.8,129.1,124.1,128.3,3.9
429.25,129.4,128.1,125.6,127.7,1.9
433.5,132.6,128.1,126.0,128.9,3.4
437.75,134.2,129.1,127.0,130.1,3.7
442.0,133.4,130.7,127.6,130.6,2.9
446.25,133.6,131.2,127.1,130.6,3.3
450.5,135.5,131.9,127.2,131.5,4.2
454.75,136.6,132.1,126.4,131.7,5.1
459.0,133.4,132.5,127.5,131.1,3.2
463.25,136.1,135.6,127.1,132.9,5.1
467.5,134.0,137.7,127.5,133.1,5.2
471.75,135.6,133.2,129.0,132.6,3.3
476.0,136.4,138.1,128.3,134.3,5.2
480.25,134.9,137.7,129.6,134.1,4.1
484.5,134.9,139.4,131.2,135.2,4.1
488.75,135.1,139.4,130.0,134.8,4.7
493.0,134.7,139.1,130.9,134.9,4.1
497.25,134.4,138.8,131.1,134.8,3.9
501.5,134.4,137.9,132.0,134.7,3.0
505.75,136.4,139.3,133.7,136.4,2.8
510.0,134.1,140.4,131.5,135.3,4.6
514.25,133.9,142.1,132.1,136.0,5.3
518.5,134.5,142.3,132.8,136.5,5.0
522.75,133.0,142.0,132.6,135.9,5.3
527.0,134.2,142.1,134.5,136.9,4.4
531.25,135.8,140.4,134.1,136.8,3.3
535.5,135.6,140.3,134.4,136.8,3.1
539.75,133.7,141.5,133.5,136.3,4.6
544.0,132.3,141.9,133.4,135.9,5.3
548.25,134.4,143.7,131.0,136.4,6.6
552.5,134.1,142.0,129.9,135.3,6.1
556.75,133.3,141.6,131.7,135.5,5.3
561.0,131.9,141.9,133.6,135.8,5.3
565.25,129.3,143.5,131.1,134.6,7.8
569.5,131.9,142.7,129.2,134.6,7.2
573.75,131.2,140.9,131.3,134.5,5.5
578.0,133.1,140.9,135.3,136.4,4.0
582.25,130.8,141.6,132.8,135.1,5.7
586.5,129.9,138.0,134.8,134.2,4.1
590.75,132.7,138.6,132.7,134.7,3.4
595.0,132.5,139.4,134.4,135.4,3.5
599.25,132.4,137.8,133.1,134.4,2.9
603.5,131.5,137.6,132.7,133.9,3.2
607.75,130.7,139.4,133.4,134.5,4.4
612.0,130.4,137.3,133.5,133.7,3.5
616.25,130.9,137.4,131.5,133.3,3.6
620.5,131.9,136.4,132.2,133.5,2.5
624.75,132.4,135.6,130.4,132.8,2.6
629.0,130.8,135.5,130.0,132.1,3.0
633.25,129.6,135.0,129.2,131.3,3.2
637.5,127.1,131.9,130.8,129.9,2.5
641.75,130.7,133.2,130.7,131.6,1.4
646.0,129.2,134.7,128.0,130.6,3.6
650.25,127.2,131.8,130.4,129.8,2.4
654.5,130.6,131.1,124.1,128.6,3.9
658.75,128.8,130.8,124.9,128.2,3.0
663.0,126.5,130.4,128.3,128.4,2.0
667.25,125.9,128.0,128.2,127.4,1.3
671.5,125.6,126.4,126.7,126.2,0.6
675.75,126.9,124.8,125.3,125.7,1.1
680.0,126.2,128.5,125.2,126.6,1.7
684.25,124.7,127.3,124.8,125.6,1.4
688.5,126.4,126.1,126.5,126.3,0.2
692.75,128.5,127.4,126.2,127.3,1.1
697.0,129.7,127.4,122.8,126.6,3.5
701.25,127.7,125.5,124.1,125.8,1.8
705.5,130.2,127.9,124.5,127.6,2.8
709.75,127.9,128.0,123.3,126.4,2.7
714.0,125.3,126.2,124.3,125.3,1.0
718.25,123.0,126.3,127.5,125.6,2.3
722.5,124.4,128.9,126.9,126.8,2.3
726.75,126.6,129.3,123.6,126.5,2.8
731.0,125.1,128.3,124.4,125.9,2.1
735.25,125.7,128.6,123.4,125.9,2.6
739.5,125.8,127.2,124.9,126.0,1.1
743.75,124.7,129.2,124.4,126.1,2.7
748.0,125.1,128.4,128.0,127.2,1.8
752.25,126.0,125.8,125.6,125.8,0.2
756.5,123.3,128.9,126.7,126.3,2.8
760.75,123.5,128.5,122.6,124.9,3.2
765.0,124.8,126.9,123.3,125.0,1.8
769.25,124.4,129.1,125.0,126.1,2.6
773.5,123.4,125.1,127.3,125.3,2.0
777.75,124.5,124.1,126.8,125.1,1.4
782.0,120.8,123.6,124.3,122.9,1.8
786.25,121.2,124.5,123.7,123.2,1.7
790.5,119.3,126.0,124.0,123.1,3.4
794.75,121.0,123.9,121.9,122.3,1.5
799.0,120.8,122.0,124.3,122.4,1.8
803.25,121.2,122.2,125.1,122.8,2.0
807.5,118.8,121.2,123.2,121.1,2.2
811.75,117.9,124.6,122.8,121.8,3.5
816.0,117.1,122.0,118.9,119.3,2.5
820.25,114.7,120.5,119.8,118.3,3.1
824.5,116.6,120.2,120.3,119.0,2.1
828.75,116.4,118.9,120.7,118.7,2.2
833.0,116.1,116.8,119.1,117.3,1.6
837.25,114.3,114.4,120.0,116.3,3.3
841.5,111.8,113.2,119.6,114.9,4.2
845.75,112.6,113.5,118.8,115.0,3.3
850.0,110.6,111.9,117.6,113.4,3.7
854.25,109.8,113.7,112.9,112.1,2.1
858.5,110.0,112.0,114.1,112.0,2.1
862.75,108.6,111.1,113.9,111.2,2.6
867.0,106.5,108.6,110.2,108.4,1.8
871.25,106.2,106.4,107.3,106.7,0.6
875.5,103.8,102.2,102.0,102.7,1.0
879.75,101.8,97.2,99.2,99.4,2.3
884.0,99.3,92.1,91.6,94.3,4.3
888.25,93.0,84.5,82.9,86.8,5.4
892.5,86.0,74.5,74.0,78.2,6.8
896.75,74.1,67.5,67.7,69.8,3.8
901.0,68.7,62.0,62.2,64.3,3.8
905.25,64.0,58.1,57.6,59.9,3.6
909.5,59.9,56.6,54.1,56.9,2.9
913.75,57.5,54.7,53.4,55.2,2.1
918.0,54.2,51.9,52.9,53.0,1.2
922.25,53.1,51.8,54.0,53.0,1.1
926.5,54.0,50.4,52.0,52.1,1.8
930.75,50.4,50.4,50.5,50.4,0.0
935.0,51.4,50.9,50.5,50.9,0.4
939.25,51.0,51.1,49.7,50.6,0.7
943.5,49.9,50.6,49.4,50.0,0.6
947.75,51.2,48.3,49.1,49.5,1.5
952.0,50.0,48.5,48.7,49.1,0.8
956.25,48.8,48.4,48.9,48.7,0.3
960.5,49.0,46.9,49.7,48.5,1.5
964.75,48.9,47.8,50.3,49.0,1.3
969.0,48.3,50.4,49.0,49.3,1.1
973.25,47.6,48.8,47.7,48.0,0.7
977.5,46.1,48.1,46.2,46.8,1.1
981.75,46.8,47.6,46.5,47.0,0.6
986.0,46.0,46.9,46.5,46.4,0.4
990.25,43.9,46.6,46.6,45.7,1.5
994.5,43.1,48.4,46.3,45.9,2.7
998.75,43.2,48.2,46.4,45.9,2.5
1003.0,44.0,46.4,45.2,45.2,1.2
1007.25,45.5,45.1,44.5,45.0,0.5
1011.5,46.8,43.3,43.8,44.6,1.9
1015.75,45.1,42.5,44.3,44.0,1.3
1020.0,43.7,42.7,43.8,43.4,0.7
1024.25,42.1,43.2,44.6,43.3,1.3
1028.5,43.3,44.6,44.7,44.2,0.8
1032.75,43.6,44.8,44.9,44.4,0.7
1037.0,43.7,45.2,45.5,44.8,1.0
1041.25,44.1,44.3,44.1,44.2,0.1
1045.5,43.7,43.5,43.4,43.5,0.2
1049.75,43.2,44.2,42.9,43.4,0.7
1054.0,43.8,44.7,44.1,44.2,0.4
1058.25,44.5,43.7,43.9,44.0,0.4
1062.5,44.2,42.9,43.2,43.4,0.7
1066.75,44.8,44.1,43.6,44.2,0.6
1071.0,43.8,42.7,44.0,43.5,0.7
1075.25,43.2,42.1,42.8,42.7,0.5
1079.5,43.5,42.4,42.8,42.9,0.6
1083.75,43.1,42.8,43.1,43.0,0.2
1088.0,42.2,42.7,43.3,42.8,0.6
1092.25,42.0,43.0,41.8,42.3,0.7
1096.5,41.3,41.3,41.5,41.4,0.1
1100.75,40.9,41.6,41.4,41.3,0.4
1105.0,40.6,41.1,40.8,40.8,0.3
1109.25,40.8,40.2,40.3,40.4,0.3
1113.5,40.8,40.6,39.9,40.4,0.5
1117.75,40.3,39.8,40.6,40.2,0.4
1122.0,40.0,39.7,40.6,40.1,0.5
1126.25,39.6,39.2,40.5,39.7,0.6
1130.5,39.3,39.4,40.2,39.7,0.5
1134.75,39.1,39.2,40.5,39.6,0.8
1139.0,39.6,39.3,39.8,39.5,0.3
1143.25,39.0,40.4,39.6,39.6,0.7
1147.5,39.5,41.8,38.6,40.0,1.7
1151.75,39.7,42.8,39.3,40.6,1.9
1156.0,37.9,42.5,40.6,40.4,2.3
1160.25,38.8,40.9,39.8,39.8,1.1
1164.5,38.1,39.3,39.1,38.8,0.7
1168.75,37.9,40.2,38.1,38.7,1.3
1173.0,36.7,40.8,39.1,38.8,2.0
1177.25,36.3,41.9,38.4,38.9,2.8
1181.5,36.6,40.7,38.2,38.5,2.1
1185.75,37.9,38.9,38.7,38.5,0.5
1190.0,37.1,38.5,38.1,37.9,0.7
1194.25,37.4,39.3,38.0,38.2,1.0
1198.5,38.3,38.7,37.5,38.1,0.6
1202.75,38.2,37.8,36.5,37.5,0.9
1207.0,37.0,38.0,37.1,37.3,0.6
1211.25,36.6,37.9,38.7,37.7,1.1
1215.5,36.1,38.5,37.7,37.4,1.2
1219.75,36.2,38.5,36.3,37.0,1.3
1224.0,36.8,38.0,37.0,37.3,0.7
1228.25,36.9,38.8,36.6,37.4,1.2
1232.5,36.9,38.8,37.1,37.6,1.0
1236.75,36.7,38.3,37.6,37.5,0.8
1241.0,36.5,38.0,37.5,37.3,0.8
1245.25,36.2,38.3,37.1,37.2,1.0
1249.5,36.0,37.0,37.3,36.7,0.7
1253.75,36.3,38.4,36.5,37.0,1.2
1258.0,37.3,37.9,36.6,37.3,0.7
1259.75,36.8,37.9,36.5,37.1,0.7