Folder: fsri_materials_database/01_Data/Particleboard/Cone (part 2)

File: Particleboard_Cone_HF25Scan_230705_R2.csv
Names,Time,Stack TC,Smoke TC,Exh Press,Smoke Comp,Smoke Meas,CO Meter,CO2 Meter,O2 Meter,Sample Mass,Ext Coeff,Start Test,Flame Verif
Chan Gain,,500,500,1,1,1,1,1,1,1,1,1.0,1.0
Offset,,0,0,0.236064,0,0,0,0,0,0,0,0.0,0.0
Gain,,1,1,25.011,12.9459,33.7291,1,1,1,1.00086,0.833623,1.0,1.0
Units,sec,C,C,Pa,%,%,%,%,%,g,/m,,
Baseline,,46.3357,47.4613,180.677,100.232,100.79,0.000982158,0.0437829,20.9641,-444.869,-0.0404673,,
76,18.75,45.2838,46.643,179.924,100.424,101.161,0.000831755,0.0450976,20.9633,212.363,-0.0534462,0.0,0.0
152,37.75,45.3603,46.7073,183.712,100.427,101.027,0.000962949,0.0431781,20.965,212.163,-0.0435373,0.0,0.0
228,56.75,45.7343,46.9897,181.942,100.45,101.128,0.000713443,0.0430737,20.967,211.863,-0.0491381,0.0,0.0
304,75.75,46.0883,47.3692,183.335,100.493,100.635,0.00115969,0.0436384,20.965,211.763,-0.010293,0.0,0.0
380,94.75,45.7821,47.4992,180.612,100.449,100.382,0.000854736,0.044601,20.9677,211.533,0.00486343,0.0,0.0
456,113.75,46.3083,48.0717,180.626,100.52,99.3088,0.00102958,0.0459929,20.9674,211.293,0.0886087,0.0,0.0
532,132.75,46.6796,47.9447,181.541,100.642,98.719,0.00105299,0.0484775,20.9644,210.902,0.141044,0.0,0.0
608,151.75,46.801,48.2754,178.237,100.576,102.895,0.002071,0.0527073,20.9612,210.332,-0.166691,0.0,1.0
684,170.75,54.3566,59.8207,164.12,100.352,100.973,0.00277587,0.278309,20.7527,208.01,-0.0451585,0.0,0.0
760,189.75,61.9068,69.4848,167.867,100.288,100.54,0.00445063,0.36667,20.598,205.197,-0.0183735,0.0,0.0
836,208.75,65.5989,72.7358,164.517,100.526,101.141,0.00561314,0.350723,20.6014,202.325,-0.0446142,0.0,0.0
912,227.75,67.9025,74.6809,163.386,100.835,100.311,0.00485426,0.338802,20.6207,199.682,0.0380558,0.0,0.0
988,246.75,68.8565,75.058,165.851,101.006,102.511,0.00426651,0.321127,20.6345,197.23,-0.108169,0.0,0.0
1064,265.75,68.2656,74.3693,162.991,101.142,104.272,0.00352089,0.288774,20.6637,194.998,-0.222872,0.0,0.0
1140,284.75,68.0809,72.5775,165.031,101.16,104.902,0.00324392,0.2589,20.7005,193.107,-0.265631,0.0,0.0
1216,303.75,66.9829,70.928,164.286,101.139,103.272,0.0029234,0.231042,20.7379,191.315,-0.152569,0.0,0.0
1292,322.75,65.6344,69.3176,168.929,101.005,104.029,0.00320079,0.209155,20.7661,189.694,-0.215763,0.0,0.0
1368,341.75,64.4544,67.3442,165.767,100.614,103.644,0.00373445,0.196638,20.7824,188.283,-0.217024,0.0,0.0
1444,360.75,63.5422,66.5254,170.257,100.147,104.97,0.0030282,0.18783,20.7939,186.861,-0.34393,0.0,0.0
1520,379.75,62.5237,65.0228,170.646,99.8704,101.958,0.00329954,0.179652,20.8034,185.47,-0.1513,0.0,0.0
1596,398.75,61.7921,64.1538,172.896,99.588,103.461,0.00360264,0.173026,20.8132,184.179,-0.279009,0.0,0.0
1672,417.75,61.4867,64.1526,171.784,99.4516,102.445,0.00354037,0.168545,20.8135,182.898,-0.216864,0.0,0.0
1748,436.75,60.7907,63.1995,167.319,99.4757,102.817,0.00323134,0.162667,20.8229,181.637,-0.241568,0.0,0.0
1824,455.75,60.794,63.0442,176.089,99.695,101.553,0.00427501,0.161564,20.8251,180.396,-0.135011,0.0,0.0
1900,474.75,60.0128,62.383,175.95,100.074,103.932,0.00380074,0.158185,20.8283,179.075,-0.276615,0.0,0.0
1976,493.75,60.0429,62.2437,167.904,100.409,104.461,0.00429379,0.155916,20.8326,178.024,-0.289277,0.0,0.0
2052,512.75,59.5629,62.0883,169.964,100.593,104.549,0.004291,0.154323,20.8328,176.893,-0.282076,0.0,0.0
2128,531.75,59.1125,61.1639,170.928,100.689,103.463,0.00441775,0.150191,20.8364,175.632,-0.198749,0.0,0.0
2204,550.75,58.7654,60.5025,174.133,100.663,105.107,0.00509509,0.145391,20.8433,174.691,-0.315912,0.0,0.0
2280,569.75,58.3533,60.4047,173.3,100.463,103.691,0.00580106,0.13883,20.8481,173.57,-0.231268,0.0,0.0
2356,588.75,57.7272,59.7948,173.551,100.158,103.975,0.00600698,0.134748,20.8573,172.619,-0.273452,0.0,0.0
2432,607.75,56.5398,58.0009,179.144,99.9273,103.067,0.00807406,0.120727,20.8721,171.588,-0.226215,0.0,0.0
2508,626.75,55.4196,56.9454,177.567,100.286,103.118,0.00846864,0.114777,20.8809,170.617,-0.203633,0.0,0.0
2584,645.75,55.0378,56.4438,172.257,100.587,103.823,0.00879897,0.111506,20.8861,169.727,-0.231545,0.0,0.0
2660,664.75,54.5387,55.971,173.072,100.691,103.285,0.00935346,0.109436,20.8875,168.786,-0.18598,0.0,0.0
2736,683.75,54.4681,55.6911,181.169,100.621,101.918,0.0086487,0.11048,20.8893,167.915,-0.0936643,0.0,0.0
2812,702.75,53.6799,55.5447,172.614,100.354,103.053,0.00855804,0.109816,20.8889,166.944,-0.194064,0.0,0.0
2888,721.75,53.5673,54.8004,182.113,100.503,102.743,0.00934368,0.106167,20.8937,166.013,-0.161172,0.0,0.0
2964,740.75,53.1021,54.2543,175.154,100.838,102.151,0.00997299,0.099632,20.9039,165.263,-0.0945614,0.0,0.0
3040,759.75,52.5288,53.6786,176.464,101.096,103.605,0.00948749,0.0985797,20.9012,164.452,-0.17926,0.0,0.0
3116,778.75,52.324,53.3864,178.176,101.168,102.675,0.0092731,0.101459,20.9009,163.641,-0.108116,0.0,0.0
3192,797.75,51.6633,53.284,182.69,101.201,102.342,0.009652,0.0998423,20.9021,162.761,-0.0819718,0.0,0.0
3268,816.75,52.4,53.8777,175.448,101.224,101.697,0.00953281,0.100893,20.9001,161.92,-0.0341138,0.0,0.0
3344,835.75,52.415,53.7718,180.423,101.218,102.12,0.00927822,0.100899,20.9021,161.099,-0.0648982,0.0,0.0
3420,854.75,52.0803,53.3681,174.803,101.22,103.782,0.00928712,0.101943,20.9016,160.268,-0.182834,0.0,0.0
3496,873.75,51.6128,53.877,177.907,101.201,102.187,0.00896168,0.101735,20.9012,159.428,-0.0708583,0.0,0.0
3572,892.75,52.0871,53.1407,179.758,101.187,102.332,0.00921855,0.102412,20.8992,158.507,-0.0822927,0.0,0.0
3648,911.75,52.358,53.2346,176.547,101.195,102.449,0.00919704,0.102576,20.8983,157.766,-0.0900742,0.0,0.0
3724,930.75,52.0173,53.5574,174.171,101.215,101.786,0.00982292,0.104748,20.8995,156.866,-0.0411494,0.0,0.0
3800,949.75,52.0607,53.7306,178.9,101.235,103.015,0.00924687,0.107609,20.8918,156.075,-0.127517,0.0,0.0
3876,968.75,52.1428,53.1646,174.352,101.219,103.661,0.00916948,0.106116,20.896,155.214,-0.174328,0.0,0.0
3952,987.75,52.1175,54.0697,179.352,101.152,102.745,0.00973394,0.105808,20.8947,154.343,-0.114213,0.0,0.0
4028,1006.75,52.246,54.1572,177.485,101.092,101.998,0.00961905,0.107569,20.8964,153.583,-0.0652778,0.0,0.0
4104,1025.75,51.5496,54.057,175.63,101.057,103.501,0.0101723,0.108666,20.8917,152.662,-0.174747,0.0,0.0
4180,1044.75,52.5578,53.9779,174.523,101.075,101.422,0.00967736,0.110936,20.894,151.871,-0.0250362,0.0,0.0
4256,1063.75,52.4683,54.3022,179.843,101.022,102.152,0.00993347,0.113064,20.8904,150.97,-0.0812966,0.0,0.0
4332,1082.75,52.8875,54.5487,173.269,100.798,101.364,0.00986277,0.113432,20.8889,150.13,-0.0410004,0.0,0.0
4408,1101.75,52.901,54.6225,173.676,100.497,101.112,0.0102306,0.114465,20.888,149.219,-0.0445993,0.0,0.0
4484,1120.75,52.8737,54.8819,179.773,100.414,101.019,0.0100215,0.115903,20.8879,148.298,-0.0438907,0.0,0.0
4560,1139.75,53.1319,54.9647,174.052,100.503,103.521,0.0103594,0.117684,20.8836,147.337,-0.216348,0.0,0.0
4636,1158.75,53.4419,55.4295,173.143,100.523,102.365,0.00919703,0.131776,20.867,146.356,-0.132798,0.0,0.0
4712,1177.75,54.6186,58.151,171.943,100.527,103.911,0.00787854,0.150688,20.852,145.306,-0.242129,0.0,0.0
4788,1196.75,56.3437,59.6932,169.049,100.514,103.15,0.00582561,0.170618,20.8198,144.235,-0.189293,0.0,0.0
4864,1215.75,57.8633,61.292,167.796,100.261,103.798,0.00407233,0.181147,20.805,143.024,-0.253523,0.0,0.0
4940,1234.75,59.0303,62.972,176.075,99.8748,103.479,0.00357425,0.192141,20.7888,141.752,-0.259215,0.0,0.0
5016,1253.75,59.8642,63.7759,170.015,99.6085,103.418,0.00293732,0.200643,20.7809,140.291,-0.274445,0.0,0.0
5092,1272.75,61.2051,64.9131,166.71,99.5338,101.646,0.0025465,0.210964,20.769,138.99,-0.153586,0.0,0.0
5168,1291.75,62.136,65.808,165.169,99.5259,102.237,0.00213571,0.21789,20.7628,137.389,-0.196548,0.0,0.0
5244,1310.75,62.9264,67.0986,169.879,99.552,104.01,0.00245924,0.224868,20.7495,135.937,-0.320324,0.0,0.0
5320,1329.75,63.3864,67.5926,166.826,99.5658,104.218,0.00237743,0.226315,20.7509,134.346,-0.333912,0.0,0.0
5396,1348.75,64.2124,68.2696,172.351,99.6271,102.491,0.00229853,0.230638,20.7461,132.855,-0.207209,0.0,0.0
5472,1367.75,64.4903,67.9697,171.362,99.6832,102.025,0.0020757,0.232055,20.7461,131.163,-0.169822,0.0,0.0
5548,1386.75,64.6311,68.3099,168.223,99.7744,102.71,0.00231338,0.235281,20.7404,129.622,-0.212027,0.0,0.0
5624,1405.75,65.4724,69.1947,171.444,99.9095,102.039,0.00219185,0.245896,20.7302,127.85,-0.154193,0.0,0.0
5700,1424.75,66.1852,70.6994,167.291,100.1,103.29,0.00252384,0.258916,20.718,126.129,-0.229451,0.0,0.0
5776,1443.75,67.1671,71.3373,166.931,100.192,103.334,0.00263691,0.274554,20.6987,124.037,-0.225761,0.0,0.0
5852,1462.75,68.0551,72.8666,164.895,100.281,102.228,0.00283458,0.289585,20.6764,122.236,-0.140652,0.0,0.0
5928,1481.75,69.2145,74.6337,167.178,100.364,103.044,0.00365241,0.29696,20.665,120.104,-0.192703,0.0,0.0
6004,1500.75,70.3176,75.3633,163.36,100.555,101.231,0.00398191,0.306999,20.6515,118.092,-0.0489881,0.0,0.0
6080,1519.75,70.8345,76.0884,162.359,100.671,100.05,0.00437424,0.309694,20.6441,116.03,0.0452395,0.0,0.0
6156,1538.75,70.9076,75.6355,164.96,100.763,100.325,0.00422594,0.300751,20.644,114.189,0.0318632,0.0,0.0
6232,1557.75,70.1033,74.1433,171.892,100.753,102.02,0.00334821,0.273301,20.6733,112.547,-0.0913879,0.0,0.0
6308,1576.75,67.455,70.2353,172.732,100.702,102.441,0.00336904,0.196191,20.7471,111.847,-0.125202,0.0,0.0
6384,1595.75,64.0952,65.5792,172.13,100.596,103.973,0.00462873,0.140812,20.8221,111.206,-0.241446,0.0,0.0
6460,1614.75,61.6873,62.739,174.986,100.513,103.288,0.00577975,0.119981,20.8564,110.916,-0.199179,0.0,0.0
6536,1633.75,59.7112,59.6421,172.727,100.345,101.979,0.00584364,0.107078,20.8781,110.515,-0.118117,0.0,0.0
6612,1652.75,57.6392,57.8603,174.123,100.215,103.719,0.00611466,0.101593,20.8861,110.185,-0.25131,0.0,0.0
6688,1671.75,55.9423,56.5284,177.181,100.095,102.792,0.00611123,0.100736,20.8934,109.865,-0.194443,0.0,0.0
6764,1690.75,54.668,54.8625,176.66,100.012,101.426,0.00663224,0.0902371,20.9022,109.585,-0.102656,0.0,0.0
6840,1709.75,54.0503,53.7801,176.319,99.9976,102.242,0.00657497,0.0865726,20.9103,109.324,-0.162339,0.0,0.0
6916,1728.75,52.5133,53.293,175.157,100.269,102.178,0.00680813,0.0876103,20.9113,109.124,-0.137908,0.0,0.0
6992,1747.75,52.6432,53.2853,177.728,100.462,104.677,0.00659867,0.0876893,20.9096,108.874,-0.30051,0.0,0.0
7068,1766.75,52.1316,53.052,177.29,100.611,102.557,0.00636551,0.0868602,20.9086,108.714,-0.140102,0.0,0.0
7144,1785.75,52.0776,52.7306,177.506,100.574,103.582,0.00645194,0.0871686,20.9103,108.444,-0.215493,0.0,0.0
7220,1804.75,51.9415,52.1971,174.593,100.51,102.083,0.00628673,0.0879504,20.909,108.203,-0.113572,0.0,0.0
7235,1808.5,51.7595,52.2177,173.808,100.48,102.764,0.00611471,0.0872616,20.9089,108.223,-0.164407,0.0,0.0

File: Particleboard_Cone_HF25Scan_230705_R3.csv
Names,Time,Stack TC,Smoke TC,Exh Press,Smoke Comp,Smoke Meas,CO Meter,CO2 Meter,O2 Meter,Sample Mass,Ext Coeff,Start Test,Flame Verif
Chan Gain,,500,500,1,1,1,1,1,1,1,1,1.0,1.0
Offset,,0,0,0.236064,0,0,0,0,0,0,0,0.0,0.0
Gain,,1,1,25.011,12.9459,33.7291,1,1,1,1.00086,0.833623,1.0,1.0
Units,sec,C,C,Pa,%,%,%,%,%,g,/m,,
Baseline,,46.9884,48.1589,180.643,100.633,106.029,0.000790313,0.04278,20.9689,-445.249,-0.381863,,
78,19.25,46.3331,47.1904,184.002,100.775,106.039,0.000937594,0.0489161,20.9576,208.24,-0.372289,0.0,0.0
156,38.75,46.4252,47.5575,181.621,100.815,105.903,0.000610405,0.043193,20.9691,207.94,-0.360018,0.0,0.0
234,58.25,46.3635,47.871,176.106,100.816,105.435,0.000868198,0.0427449,20.9695,207.769,-0.327622,0.0,0.0
312,77.75,46.76,48.4431,178.035,100.829,104.968,0.000848124,0.0431723,20.9691,207.569,-0.294165,0.0,0.0
390,97.25,47.0149,47.612,180.359,100.813,105.04,0.000392278,0.0444893,20.9669,207.309,-0.300386,0.0,0.0
468,116.75,47.1458,48.2546,179.332,100.755,103.29,0.00065189,0.0462108,20.9689,206.949,-0.181698,0.0,0.0
546,136.25,47.4143,48.6382,179.658,100.614,102.732,0.000726803,0.0490585,20.9675,206.598,-0.152396,0.0,0.0
624,155.75,48.9411,52.5154,168.148,100.392,105.723,0.00234011,0.0681815,20.9622,205.357,-0.378354,0.0,0.0
702,175.25,57.9398,65.3489,158.308,100.058,103.504,0.00334997,0.342084,20.6395,202.655,-0.247653,0.0,0.0
780,194.75,64.0211,71.2011,165.066,99.8286,103.42,0.00492445,0.359477,20.5922,199.773,-0.258453,0.0,0.0
858,214.25,66.792,73.7538,158.928,99.7211,100.839,0.0048131,0.337229,20.615,197.19,-0.0815527,0.0,0.0
936,233.75,68.0885,73.9964,166.558,99.6587,103.569,0.00438502,0.312839,20.6398,194.538,-0.281454,0.0,0.0
1014,253.25,67.9991,73.823,166.752,99.6516,106.411,0.00385653,0.290231,20.6648,192.256,-0.479929,0.0,0.0
1092,272.75,67.454,72.4005,167.557,99.6219,104.993,0.00400061,0.263848,20.6982,190.224,-0.383975,0.0,0.0
1170,292.25,67.05,70.912,167.85,99.6172,104.994,0.00319656,0.242191,20.7205,188.393,-0.384395,0.0,0.0
1248,311.75,65.7442,69.5063,168.229,99.65,105.302,0.00280454,0.222556,20.7469,186.581,-0.403392,0.0,0.0
1326,331.25,64.953,68.2009,171.859,99.7638,106.748,0.00291319,0.208187,20.7652,185,-0.494794,0.0,0.0
1404,350.75,64.0283,67.3519,175.639,99.9127,106.8,0.00315322,0.197937,20.7789,183.489,-0.48748,0.0,0.0
1482,370.25,63.3286,65.8828,174.188,100.228,105.802,0.00293417,0.185156,20.7907,182.017,-0.395758,0.0,0.0
1560,389.75,61.9571,65.0033,176.019,100.563,106.975,0.00348404,0.174023,20.8062,180.636,-0.45204,0.0,0.0
1638,409.25,61.7018,64.1329,172.257,100.807,105.962,0.00355608,0.167656,20.8116,179.335,-0.364742,0.0,0.0
1716,428.75,60.8891,63.2487,172.96,100.801,106.242,0.00342267,0.163693,20.8211,178.094,-0.384467,0.0,0.0
1794,448.25,60.4585,62.7126,170.768,100.495,107.149,0.00354215,0.161545,20.8237,176.833,-0.468806,0.0,0.0
1872,467.75,60.3743,62.47,167.491,100.089,107.355,0.00375041,0.157314,20.8261,175.662,-0.512484,0.0,0.0
1950,487.25,59.7543,61.4615,172.22,100.294,105.32,0.0040373,0.151684,20.8319,174.391,-0.357575,0.0,0.0
2028,506.75,59.1993,61.0559,174.11,100.675,107.811,0.00443984,0.147098,20.8376,173.33,-0.500797,0.0,0.0
2106,526.25,58.6314,60.267,173.562,100.734,106.2,0.00509092,0.141102,20.8455,172.249,-0.386407,0.0,0.0
2184,545.75,57.7946,59.5139,170.58,100.571,106.023,0.00636791,0.131123,20.8539,171.138,-0.386032,0.0,0.0
2262,565.25,57.0298,57.5821,174.515,100.453,103.343,0.00830241,0.111159,20.872,170.117,-0.20741,0.0,0.0
2340,584.75,54.841,55.4291,174.748,100.376,103.311,0.010708,0.0925764,20.9107,169.126,-0.210734,0.0,0.0
2418,604.25,53.4359,53.9885,177.807,100.512,101.581,0.010786,0.0854945,20.9187,168.215,-0.0773003,0.0,0.0
2496,623.75,52.6088,52.9896,178.28,100.8,104.304,0.0100323,0.083408,20.9201,167.315,-0.249859,0.0,0.0
2574,643.25,52.1026,52.7239,177.573,101.03,104.407,0.00990674,0.0834009,20.9238,166.474,-0.24041,0.0,0.0
2652,662.75,51.324,52.3102,176.945,101.149,104.752,0.00964389,0.0835932,20.9185,165.563,-0.255976,0.0,0.0
2730,682.25,50.8245,52.2271,176.196,101.16,104.177,0.0100159,0.0842213,20.9176,164.952,-0.214899,0.0,0.0
2808,701.75,50.59,51.7902,176.382,101.128,104.783,0.00953366,0.0845904,20.9197,164.182,-0.259646,0.0,0.0
2886,721.25,50.9541,51.915,175.058,101.018,105.066,0.00954658,0.0841574,20.9206,163.301,-0.287319,0.0,0.0
2964,740.75,50.9226,51.6127,176.113,100.856,103.884,0.0103595,0.08557,20.9183,162.54,-0.216345,0.0,0.0
3042,760.25,50.9761,51.2379,178.032,100.774,104.122,0.0101968,0.0854449,20.9195,161.74,-0.238966,0.0,0.0
3120,779.75,50.5094,51.1377,176.678,101.003,105.88,0.0101017,0.0851863,20.9218,160.899,-0.344827,0.0,0.0
3198,799.25,50.5251,51.8978,177.383,101.235,104.314,0.0102243,0.0855035,20.9196,160.118,-0.219121,0.0,0.0
3276,818.75,50.8329,51.1766,179.804,101.268,104.905,0.0103339,0.0863785,20.9203,159.318,-0.258054,0.0,0.0
3354,838.25,50.2826,51.1018,172.95,101.25,104.695,0.0100697,0.0868042,20.9184,158.487,-0.244658,0.0,0.0
3432,857.75,50.4543,51.5806,175.996,101.111,104.421,0.0102498,0.0870256,20.9168,157.686,-0.235544,0.0,0.0
3510,877.25,50.402,51.6387,176.07,100.742,103.373,0.0102573,0.0868382,20.9173,156.896,-0.1885,0.0,0.0
3588,896.75,50.1233,51.3362,180.772,100.306,102.842,0.010162,0.0867101,20.9162,156.095,-0.18256,0.0,0.0
3666,916.25,50.0949,51.5332,172.418,100.242,103.234,0.0103504,0.0915288,20.9129,155.264,-0.215031,0.0,0.0
3744,935.75,50.1409,51.5958,179.032,100.041,103.847,0.010295,0.0879182,20.9185,154.493,-0.273013,0.0,0.0
3822,955.25,50.198,51.8889,180.701,99.8965,103.583,0.0104779,0.0906339,20.9145,153.723,-0.264968,0.0,0.0
3900,974.75,50.2767,52.2639,173.5,99.7926,102.799,0.0107269,0.0883961,20.9171,152.902,-0.217068,0.0,0.0
3978,994.25,50.6571,51.8603,182.415,99.7748,104.008,0.0109687,0.0912051,20.9134,152.101,-0.30383,0.0,0.0
4056,1013.75,50.5203,52.4239,174.799,99.8045,103.84,0.0105643,0.096186,20.9069,151.331,-0.289853,0.0,0.0
4134,1033.25,50.4867,52.206,173.785,99.8629,104.494,0.00969928,0.0989281,20.907,150.52,-0.331455,0.0,0.0
4212,1052.75,51.0691,52.3943,178.512,99.7981,104.311,0.00959976,0.103364,20.9061,149.679,-0.32344,0.0,0.0
4290,1072.25,51.8677,53.3476,179.237,99.7021,104.74,0.00930245,0.108565,20.8946,148.829,-0.360434,0.0,0.0
4368,1091.75,51.8537,54.0223,177.309,99.6393,104.954,0.00908924,0.111245,20.8929,148.038,-0.379975,0.0,0.0
4446,1111.25,52.05,53.9389,173.656,99.8815,105.316,0.0091199,0.113704,20.8886,147.137,-0.387424,0.0,0.0
4524,1130.75,53.1516,55.0581,173.534,100.19,106.535,0.00727434,0.129155,20.8742,146.246,-0.448975,0.0,0.0
4602,1150.25,53.9428,56.2186,175.152,100.496,108.347,0.00692499,0.134018,20.861,145.326,-0.550063,0.0,0.0
4680,1169.75,54.8375,57.3822,170.222,100.623,107.32,0.00541238,0.148505,20.8454,144.405,-0.471208,0.0,0.0
4758,1189.25,55.5899,58.6486,172.991,100.641,107.035,0.00451906,0.153017,20.8373,143.474,-0.450405,0.0,0.0
4836,1208.75,56.2333,59.8773,174.616,100.776,107.475,0.00425432,0.15926,20.8289,142.433,-0.470589,0.0,0.0
4914,1228.25,57.6222,60.4005,167.784,100.864,107.668,0.00368556,0.164701,20.8205,141.352,-0.477325,0.0,0.0
4992,1247.75,57.8931,60.8312,171.25,100.892,107.405,0.00328166,0.169307,20.8163,140.231,-0.457373,0.0,0.0
5070,1267.25,58.6525,61.5931,171.133,100.812,106.584,0.00309124,0.174517,20.8116,139.08,-0.407148,0.0,0.0
5148,1286.75,59.106,61.9464,176.8,100.773,108.981,0.00301998,0.176912,20.8065,137.909,-0.572609,0.0,0.0
5226,1306.25,59.6512,62.5081,173.527,100.812,107.448,0.00260207,0.180504,20.803,136.618,-0.466188,0.0,0.0
5304,1325.75,60.0174,62.6875,169.21,100.82,107.788,0.00281347,0.185277,20.795,135.327,-0.488709,0.0,0.0
5382,1345.25,60.5779,63.5745,168.716,100.8,107.123,0.00248618,0.19066,20.793,134.036,-0.444821,0.0,0.0
5460,1364.75,60.6017,64.3401,175.18,100.778,108.273,0.00228622,0.197076,20.7865,132.635,-0.52462,0.0,0.0
5538,1384.25,61.1478,64.9814,170.854,100.72,107.692,0.00219753,0.206207,20.7784,131.263,-0.489394,0.0,0.0
5616,1403.75,62.4964,65.7355,164.614,100.629,109.187,0.0021534,0.219427,20.7654,129.662,-0.59688,0.0,0.0
5694,1423.25,63.4405,67.6045,171.003,100.378,106.847,0.00208518,0.232586,20.7488,127.991,-0.456696,0.0,0.0
5772,1442.75,64.6155,68.3834,165.786,100.315,105.833,0.00226472,0.24636,20.7297,126.219,-0.391553,0.0,0.0
5850,1462.25,65.582,70.2812,164.878,100.296,107.092,0.00218856,0.260619,20.7127,124.327,-0.479404,0.0,0.0
5928,1481.75,66.9148,71.5687,167.929,100.15,106.173,0.00194833,0.278,20.6938,122.336,-0.427104,0.0,0.0
6006,1501.25,68.8328,74.3144,162.976,100.237,107.18,0.00299886,0.3057,20.665,120.104,-0.489739,0.0,0.0
6084,1520.75,71.4059,77.1041,157.483,100.489,103.323,0.00417742,0.342648,20.6171,117.612,-0.20341,0.0,0.0
6162,1540.25,73.648,79.9442,162.648,100.667,103.984,0.00512993,0.378914,20.567,114.839,-0.237047,0.0,0.0
6240,1559.75,75.5985,81.4526,162.346,100.764,101.197,0.00637145,0.394622,20.5305,112.367,-0.0313512,0.0,0.0
6318,1579.25,73.7754,78.5387,168.384,100.754,104.602,0.00582576,0.318779,20.5876,110.586,-0.274067,0.0,0.0
6396,1598.75,70.1894,72.7482,165.389,100.638,103.66,0.00323774,0.195145,20.7333,109.645,-0.216333,0.0,0.0
6474,1618.25,65.7751,67.643,174.12,100.539,107.191,0.00414127,0.147386,20.807,109.034,-0.468496,0.0,0.0
6552,1637.75,63.3616,64.4102,180.058,100.485,106.951,0.00475948,0.125365,20.8412,108.544,-0.455984,0.0,0.0
6630,1657.25,60.9542,61.9706,171.988,100.388,107.102,0.00536337,0.113025,20.8601,108.073,-0.473398,0.0,0.0
6708,1676.75,59.0123,59.8835,174.355,100.362,107.62,0.00570701,0.106263,20.8719,107.833,-0.510533,0.0,0.0
6786,1696.25,57.7135,57.9181,178.309,100.428,107.517,0.00689696,0.0961953,20.8895,107.553,-0.498731,0.0,0.0
6864,1715.75,55.7574,56.1492,174.641,100.446,108.414,0.00678487,0.0903285,20.9008,107.213,-0.558229,0.0,0.0
6942,1735.25,54.0304,55.1795,176.804,100.501,106.76,0.00669148,0.0906602,20.8973,106.892,-0.441802,0.0,0.0
7020,1754.75,53.6471,54.3399,176.538,100.733,107.236,0.00681738,0.0908235,20.9027,106.752,-0.457419,0.0,0.0
7098,1774.25,53.5464,53.7865,174.771,100.771,107.481,0.0069858,0.0873242,20.9041,106.452,-0.471353,0.0,0.0
7176,1793.75,52.6722,53.8202,174.033,100.758,108.915,0.00629664,0.0875429,20.9061,106.252,-0.569235,0.0,0.0
7254,1813.25,52.8848,53.0888,174.42,100.755,107.197,0.00633535,0.0865729,20.9064,106.002,-0.453146,0.0,0.0
7332,1832.75,52.2838,52.9851,180.919,100.751,107.074,0.00621739,0.0873036,20.9043,105.761,-0.445072,0.0,0.0
7396,1848.75,51.9953,53.0761,179.898,100.748,107.362,0.00623631,0.0871448,20.9051,105.601,-0.464958,0.0,0.0