Folder: fsri_materials_database/01_Data/Particleboard/Cone (part 3)

File: Particleboard_Cone_HF25Scan_230705_R4.csv
Names,Time,Stack TC,Smoke TC,Exh Press,Smoke Comp,Smoke Meas,CO Meter,CO2 Meter,O2 Meter,Sample Mass,Ext Coeff,Start Test,Flame Verif
Chan Gain,,500,500,1,1,1,1,1,1,1,1,1.0,1.0
Offset,,0,0,0.138104,0,0,0,0,0,0,0,0.0,0.0
Gain,,1,1,25.011,12.9573,16.6386,1,1,1,1.00088,0.812795,1.0,1.0
Units,sec,C,C,Pa,%,%,%,%,%,g,/m,,
Baseline,,41.7558,43.4373,173.372,99.4901,57.5533,0.000650799,0.0446361,20.9342,-444.32,3.90254,,
74,18.25,41.2282,43.0866,175.693,100.108,58.0437,0.000684107,0.0453439,20.9367,208.373,3.88609,0.0,0.0
148,36.75,41.5055,42.9179,173.332,99.7562,57.642,0.000312418,0.0444476,20.9363,208.093,3.91052,0.0,0.0
222,55.25,41.7766,43.2433,173.51,99.7925,57.022,0.000551359,0.0451576,20.9356,207.932,3.99022,0.0,0.0
296,73.75,41.8745,43.7943,174.284,100.032,57.542,0.000461575,0.0469703,20.9346,207.792,3.9426,0.0,0.0
370,92.25,42.285,43.885,173.235,100.193,57.4572,0.000504438,0.0475087,20.9359,207.542,3.96455,0.0,0.0
444,110.75,42.3589,44.4041,171.005,100.286,57.2663,0.00100528,0.0490207,20.9345,207.312,3.99495,0.0,0.0
518,129.25,42.8695,44.4931,171.329,100.381,56.4681,0.000808018,0.0510618,20.9356,206.851,4.10177,0.0,0.0
592,147.75,44.528,49.6993,159.995,100.454,60.6744,0.00197039,0.0598275,20.9309,205.971,3.59471,0.0,1.0
666,166.25,53.4405,65.1193,154.44,100.54,58.8195,0.00288184,0.342602,20.6264,203.418,3.82214,0.0,0.0
740,184.75,59.6439,71.8807,156.432,100.513,57.1464,0.00398033,0.395027,20.5346,200.676,4.02595,0.0,0.0
814,203.25,63.077,73.6008,155.29,100.359,57.1693,0.00485085,0.37128,20.5453,197.924,4.01218,0.0,0.0
888,221.75,64.448,72.193,163.647,100.117,60.0458,0.00434199,0.322723,20.6077,195.542,3.64498,0.0,0.0
962,240.25,64.3587,72.0513,163.657,99.876,58.8718,0.00319578,0.308215,20.6247,193.23,3.76856,0.0,0.0
1036,258.75,64.641,70.842,161.708,99.5778,59.603,0.002944,0.286424,20.6423,191.218,3.65924,0.0,0.0
1110,277.25,63.801,68.7572,160.484,99.2318,59.3304,0.00254023,0.253932,20.678,189.386,3.66711,0.0,0.0
1184,295.75,62.7483,66.9847,162.742,98.8925,59.1994,0.00234746,0.227438,20.7121,187.755,3.65846,0.0,0.0
1258,314.25,61.5934,65.6328,161.759,98.6316,59.0567,0.00251919,0.214662,20.7293,186.223,3.65682,0.0,0.0
1332,332.75,60.6045,64.2794,164.063,98.598,59.9102,0.00235682,0.202878,20.7422,184.762,3.55208,0.0,0.0
1406,351.25,60.2082,63.3548,161.839,99.0104,58.3945,0.00222869,0.192792,20.7577,183.441,3.76454,0.0,0.0
1480,369.75,59.3604,62.3377,160.981,99.441,58.9246,0.00249697,0.185589,20.7664,182.11,3.73105,0.0,0.0
1554,388.25,58.7402,62.048,162.858,99.717,59.4583,0.00268641,0.179375,20.7746,180.809,3.68653,0.0,0.0
1628,406.75,57.9411,61.1288,161.401,99.8514,59.4842,0.00316111,0.173731,20.782,179.588,3.69303,0.0,0.0
1702,425.25,57.7732,60.5888,164.142,99.7656,59.0155,0.00347309,0.167406,20.7892,178.366,3.7433,0.0,0.0
1776,443.75,57.4127,60.3114,168.664,99.5264,58.8063,0.0035245,0.165249,20.7918,177.205,3.7515,0.0,0.0
1850,462.25,57.0547,59.3825,166.291,99.2927,58.2503,0.0039361,0.159135,20.798,176.054,3.80247,0.0,0.0
1924,480.75,57.0009,58.5464,167.278,99.9266,58.8617,0.00396315,0.157093,20.8034,174.913,3.7734,0.0,0.0
1998,499.25,56.3192,58.8509,162.873,100.158,59.4324,0.00441056,0.156302,20.804,173.732,3.72112,0.0,0.0
2072,517.75,55.5349,58.6414,167.942,99.9594,58.9917,0.00463911,0.152941,20.808,172.641,3.76002,0.0,0.0
2146,536.25,55.9739,58.607,165.327,99.7332,58.9186,0.00447348,0.150402,20.8063,171.621,3.75271,0.0,0.0
2220,554.75,54.9916,57.2475,165.537,99.8906,57.9289,0.00544813,0.143775,20.8149,170.52,3.88473,0.0,0.0
2294,573.25,54.7338,57.2288,163.216,100.142,58.324,0.00593166,0.147842,20.8115,169.419,3.85417,0.0,0.0
2368,591.75,53.9829,56.4903,169.543,100.46,58.8114,0.00657274,0.136392,20.8282,168.428,3.81745,0.0,0.0
2442,610.25,53.3929,55.0099,169.868,100.551,58.1731,0.00750857,0.127091,20.8391,167.427,3.90171,0.0,0.0
2516,628.75,52.6231,53.7292,165.172,100.354,57.9985,0.00880389,0.115439,20.8549,166.466,3.90914,0.0,0.0
2590,647.25,51.9079,53.4474,168.297,100.042,58.7038,0.00917207,0.110927,20.8585,165.515,3.80079,0.0,0.0
2664,665.75,51.5456,52.5443,167.753,99.6881,58.1808,0.00858778,0.111181,20.8605,164.584,3.83933,0.0,0.0
2738,684.25,50.7268,52.8244,175.724,99.388,57.5486,0.00872139,0.111272,20.8626,163.674,3.89573,0.0,0.0
2812,702.75,51.1196,52.5186,169.295,99.0895,57.1673,0.00862569,0.111435,20.8606,162.773,3.92168,0.0,0.0
2886,721.25,50.2385,52.3522,168.208,98.7427,57.1962,0.00848934,0.111436,20.8575,161.872,3.89307,0.0,0.0
2960,739.75,50.7585,52.0839,167.968,98.6019,56.5457,0.00868658,0.112737,20.8608,160.941,3.96445,0.0,0.0
3034,758.25,50.5917,52.017,168.919,98.7838,57.9848,0.00889192,0.111821,20.8606,160.09,3.79841,0.0,0.0
3108,776.75,50.3505,52.4098,163.283,99.0456,56.9636,0.00897183,0.112279,20.8581,159.2,3.94396,0.0,0.0
3182,795.25,50.2189,52.3326,164.99,99.2737,59.0282,0.00847996,0.111664,20.8595,158.329,3.70653,0.0,0.0
3256,813.75,49.9106,51.9466,163.244,99.4782,57.4922,0.00890751,0.11251,20.8578,157.458,3.90918,0.0,0.0
3330,832.25,50.2642,52.028,167.578,99.6336,57.8588,0.0087717,0.11269,20.8585,156.587,3.87499,0.0,0.0
3404,850.75,50.6208,51.9842,170.243,99.7273,58.0944,0.0087084,0.115117,20.856,155.737,3.85272,0.0,0.0
3478,869.25,50.4434,52.3501,171.365,99.8254,57.4562,0.00892686,0.114515,20.8575,154.876,3.93849,0.0,0.0
3552,887.75,50.1449,52.5438,167.675,99.8894,57.903,0.00868729,0.113227,20.8574,154.005,3.88783,0.0,0.0
3626,906.25,50.2902,52.5442,167.87,99.7036,58.9186,0.00881058,0.115725,20.8568,153.184,3.75059,0.0,0.0
3700,924.75,50.4705,52.3289,164.188,99.3864,57.7446,0.00885861,0.116454,20.8552,152.304,3.87137,0.0,0.0
3774,943.25,50.4223,52.4181,170.608,99.7902,58.2478,0.00854379,0.117942,20.8535,151.413,3.83841,0.0,0.0
3848,961.75,50.9177,53.1612,169.099,100.16,58.3691,0.00893381,0.116987,20.8557,150.542,3.84994,0.0,0.0
3922,980.25,50.612,53.2182,169.583,99.9922,58.5646,0.00847659,0.120106,20.8492,149.691,3.81416,0.0,0.0
3996,998.75,50.8602,53.3074,170.755,99.7308,58.133,0.00847379,0.121328,20.8503,148.801,3.84823,0.0,0.0
4070,1017.25,50.9175,53.2563,168.636,99.9867,58.2818,0.00838454,0.123241,20.8484,147.96,3.84828,0.0,0.0
4144,1035.75,51.6282,53.7229,169.915,100.228,57.9137,0.00883494,0.124491,20.8484,147.039,3.91063,0.0,0.0
4218,1054.25,51.2834,53.5219,171.373,100.364,58.1726,0.00879186,0.125079,20.8465,146.138,3.88847,0.0,0.0
4292,1072.75,51.6987,54.3656,163.822,100.403,58.2549,0.00843118,0.12951,20.8414,145.197,3.8812,0.0,0.0
4366,1091.25,51.6677,54.2776,163.248,100.5,58.522,0.00882069,0.132247,20.8397,144.247,3.85546,0.0,0.0
4440,1109.75,52.0373,54.4384,164.535,100.563,59.1303,0.00827163,0.134851,20.8347,143.316,3.78619,0.0,0.0
4514,1128.25,52.1941,55.3112,168.045,100.558,58.8536,0.00835203,0.139218,20.8297,142.325,3.81928,0.0,0.0
4588,1146.75,52.6991,55.2673,165.614,100.56,59.6888,0.00826753,0.142575,20.8267,141.314,3.71899,0.0,0.0
4662,1165.25,53.7753,58.5164,164.549,100.567,60.2758,0.00592637,0.169358,20.8025,140.263,3.64967,0.0,0.0
4736,1183.75,55.1409,59.3662,164.043,100.572,59.2618,0.00369013,0.180636,20.7785,139.142,3.77103,0.0,0.0
4810,1202.25,56.5177,61.1434,166.449,100.577,60.1621,0.00389858,0.190713,20.7715,137.961,3.66389,0.0,0.0
4884,1220.75,57.0806,62.0567,160.404,100.54,60.124,0.0030814,0.20013,20.7564,136.7,3.66574,0.0,0.0
4958,1239.25,58.4634,63.2556,162.002,100.47,59.3862,0.00288839,0.210656,20.7464,135.349,3.74881,0.0,0.0
5032,1257.75,58.8768,63.9239,163.477,100.37,60.1413,0.00205278,0.219343,20.7365,133.958,3.65163,0.0,0.0
5106,1276.25,60.3483,65.493,158.554,100.23,60.4226,0.00212297,0.229199,20.7227,132.436,3.60841,0.0,0.0
5180,1294.75,61.2363,66.7432,159.033,100.012,59.5863,0.00194007,0.240947,20.7105,130.895,3.69224,0.0,0.0
5254,1313.25,62.177,67.7787,162.804,99.8518,59.6406,0.00214768,0.252787,20.6968,129.253,3.67434,0.0,0.0
5328,1331.75,62.9268,68.2117,159.997,99.6419,59.9737,0.002005,0.255096,20.6924,127.622,3.61962,0.0,0.0
5402,1350.25,63.1275,68.4662,163.133,99.2915,59.6833,0.00210766,0.250781,20.6916,126.011,3.62912,0.0,0.0
5476,1368.75,64.0081,68.4454,161.275,98.8688,59.0998,0.00213209,0.254038,20.6934,124.379,3.66874,0.0,0.0
5550,1387.25,64.2363,69.2153,159.881,98.7039,59.0018,0.00217401,0.259991,20.687,122.708,3.66867,0.0,0.0
5624,1405.75,64.8643,70.292,164.582,98.7265,58.0122,0.00218643,0.270354,20.6744,120.966,3.7909,0.0,0.0
5698,1424.25,65.4625,71.1204,162.739,98.9958,58.6352,0.0023745,0.2783,20.6639,119.155,3.73416,0.0,0.0
5772,1442.75,66.3699,71.5537,163.176,99.3556,58.4595,0.00227875,0.277972,20.6602,117.473,3.78142,0.0,0.0
5846,1461.25,66.4478,71.6519,162.723,99.6846,58.6631,0.0025388,0.275246,20.6649,115.772,3.7802,0.0,0.0
5920,1479.75,66.6883,72.0825,161.67,99.8894,58.3102,0.00222306,0.281521,20.6591,114.02,3.83786,0.0,0.0
5994,1498.25,66.9561,72.7034,161.449,99.963,58.5184,0.00225864,0.288491,20.6439,112.279,3.8177,0.0,0.0
6068,1516.75,67.0813,72.701,161.274,99.8768,58.3534,0.00268433,0.282568,20.6423,110.667,3.83168,0.0,0.0
6142,1535.25,66.4971,70.6212,161.454,99.6245,58.492,0.00257826,0.252129,20.6676,109.356,3.79673,0.0,0.0
6216,1553.75,64.1004,66.3814,163.298,99.4291,58.2874,0.00231412,0.190553,20.7288,108.605,3.80773,0.0,0.0
6290,1572.25,61.3335,61.9662,162.66,99.4102,59.111,0.00370767,0.139082,20.7959,108.095,3.70633,0.0,0.0
6364,1590.75,58.7962,58.8592,164.307,99.9234,58.2006,0.00559145,0.113557,20.8361,107.725,3.85371,0.0,0.0
6438,1609.25,56.6596,56.1711,166.299,100.158,58.4159,0.00594261,0.104138,20.8529,107.364,3.84413,0.0,0.0
6512,1627.75,54.5843,54.5226,170.372,100.096,59.1034,0.00592513,0.0985798,20.8656,107.104,3.75628,0.0,0.0
6586,1646.25,53.3974,53.3281,170.66,99.751,57.9964,0.00625626,0.0957709,20.8659,106.824,3.86645,0.0,0.0
6660,1664.75,52.7073,52.6968,168.747,99.9135,58.5768,0.0057905,0.0930387,20.8735,106.503,3.80706,0.0,0.0
6734,1683.25,51.8718,52.0876,167.116,100.168,58.6535,0.00590101,0.0921454,20.8753,106.283,3.81588,0.0,0.0
6808,1701.75,50.3229,51.3482,172.074,100.483,59.0998,0.00590161,0.0899127,20.8807,106.053,3.7842,0.0,0.0
6882,1720.25,49.706,50.8875,167.444,100.635,58.8856,0.00579149,0.0896579,20.8783,105.813,3.82089,0.0,0.0
6956,1738.75,49.4974,50.6791,169.88,100.532,58.9592,0.00568117,0.0899924,20.8811,105.603,3.8047,0.0,0.0
7030,1757.25,49.5784,50.5063,168.314,100.454,58.7175,0.00544753,0.0892534,20.8803,105.392,3.82843,0.0,0.0
7104,1775.75,49.4379,50.1771,170.535,100.447,58.5702,0.00591567,0.0902406,20.8807,105.122,3.8458,0.0,0.0
7178,1794.25,48.9962,49.9337,173.774,100.448,58.5824,0.00549079,0.0901055,20.8816,104.912,3.84443,0.0,0.0
7217,1804,49.033,49.9478,171.2,100.421,58.1478,0.0053371,0.0908486,20.8831,104.812,3.89562,0.0,0.0

File: Particleboard_Cone_HF50Scalar_230705_R1.csv
LABORATORY,FSRI
TEST IDENT,Part_Board_HF50_R1
OPERATOR,Marino
MATERIAL,Particle Board
ORIENTATION,Horizontal
HEAT FLUX,50
SURF AREA,0.01
C FACTOR,0.0387138
SPEC HOLDER DIFF,-566
SPECIMEN MASS,137.85
SCAN TIME,0.25
O2 DELAY TIME,11
CO DELAY TIME,11
CO2 DELAY TIME,8
FLOW FACTOR,1
SCAN COUNT,5612
TIME TO IGN,35.75
END OF TEST SCAN,5132
END OF TEST TIME,1283
TEST STATUS,1
PRE TEST CMT,Dimensions: 101.84 x 101.73 x 19.40 mm; with tie wires
POST TEST CMT,Sample charred and reduced in surface area. Surface of sample fractured.

File: Particleboard_Cone_HF50Scalar_230705_R2.csv
LABORATORY,FSRI
TEST IDENT,Part_Board_HF50_R2
OPERATOR,Marino
MATERIAL,Particle Board
ORIENTATION,Horizontal
HEAT FLUX,50
SURF AREA,0.01
C FACTOR,0.0387138
SPEC HOLDER DIFF,-566
SPECIMEN MASS,136.43
SCAN TIME,0.25
O2 DELAY TIME,11
CO DELAY TIME,11
CO2 DELAY TIME,8
FLOW FACTOR,1
SCAN COUNT,5948
TIME TO IGN,31.75
END OF TEST SCAN,5468
END OF TEST TIME,1367
TEST STATUS,1
PRE TEST CMT,Dimensions: 101.88 x 101.47 x 19.36 mm; with tie wires
POST TEST CMT,Mass loss spiked at begining of test due to closing of hood. Sample charred and reduced in surface area. Surface of sample fractured. Smoke measurement laser was out of alignment during test.

File: Particleboard_Cone_HF50Scalar_230705_R3.csv
LABORATORY,FSRI
TEST IDENT,Part_Board_HF50_R3
OPERATOR,Marino
MATERIAL,Particle Board
ORIENTATION,Horizontal
HEAT FLUX,50
SURF AREA,0.01
C FACTOR,0.0387138
SPEC HOLDER DIFF,-566
SPECIMEN MASS,137.6
SCAN TIME,0.25
O2 DELAY TIME,11
CO DELAY TIME,11
CO2 DELAY TIME,8
FLOW FACTOR,1
SCAN COUNT,5890
TIME TO IGN,33.25
END OF TEST SCAN,5410
END OF TEST TIME,1352.5
TEST STATUS,1
PRE TEST CMT,Dimensions: 101.95 x 101.53 x 19.43 mm; with tie wires
POST TEST CMT,"Sample charred and reduced in surface area. Surface of sample fractured.
"

File: Particleboard_Cone_HF50Scan_230705_R1.csv
Names,Time,Stack TC,Smoke TC,Exh Press,Smoke Comp,Smoke Meas,CO Meter,CO2 Meter,O2 Meter,Sample Mass,Ext Coeff,Start Test,Flame Verif
Chan Gain,,500,500,1,1,1,1,1,1,1,1,1.0,1.0
Offset,,0,0,0.138104,0,0,0,0,0,0,0,0.0,0.0
Gain,,1,1,25.011,13.0138,27.5369,1,1,1,1.00088,0.812795,1.0,1.0
Units,sec,C,C,Pa,%,%,%,%,%,g,/m,,
Baseline,,56.6824,59.6129,165.209,101.066,101.86,0.000538974,0.0439837,20.9298,-446.096,-0.0556387,,
59,14.5,55.2928,57.8096,165.077,100.293,100.465,0.000549219,0.0488325,20.9273,207.752,-0.0121972,0.0,0.0
118,29.25,55.9301,58.6753,162.266,99.7943,96.6404,0.000659875,0.0452304,20.9307,207.342,0.22897,0.0,0.0
177,44,59.4902,68.8875,150.605,99.5798,100.7,0.000829419,0.0578551,20.931,206.031,-0.0797648,0.0,0.0
236,58.75,72.1569,90.9479,136.234,99.4444,99.5841,0.00357085,0.456894,20.4849,203.288,-0.0100116,0.0,0.0
295,73.5,82.1386,103.18,138.585,99.4281,94.8285,0.00599542,0.622119,20.2386,200.156,0.337698,0.0,0.0
354,88.25,88.0316,107.827,137.356,99.548,95.4134,0.00671366,0.604838,20.232,197.183,0.302453,0.0,0.0
413,103,90.0941,105.971,146.746,99.8376,97.2353,0.0067303,0.532853,20.3144,194.421,0.1883,0.0,0.0
472,117.75,89.7382,102.562,147.958,100.22,98.332,0.00616919,0.460409,20.4094,192.008,0.135598,0.0,0.0
531,132.5,89.4493,100.321,141.374,100.504,98.911,0.00562892,0.406916,20.4758,189.766,0.113912,0.0,0.0
590,147.25,88.462,97.416,149.037,100.682,101.609,0.00477335,0.363034,20.5367,187.725,-0.0654072,0.0,0.0
649,162,87.4642,94.9153,148.247,100.572,101.788,0.00405573,0.335549,20.5704,185.793,-0.0856944,0.0,0.0
708,176.75,85.9741,93.1674,150.679,100.175,99.9043,0.00330652,0.317408,20.5975,183.961,0.0193031,0.0,0.0
767,191.5,85.2396,92.235,150.18,100.008,102.473,0.00293146,0.300969,20.6171,182.29,-0.173656,0.0,0.0
826,206.25,83.9736,91.1383,151.133,100.603,102.144,0.00269565,0.28713,20.6318,180.598,-0.108354,0.0,0.0
885,221,83.5317,89.8663,150.309,100.783,102.824,0.00227507,0.275989,20.6441,179.027,-0.142913,0.0,0.0
944,235.75,82.7476,88.661,152.158,100.397,102.294,0.00236597,0.269576,20.6555,177.496,-0.133469,0.0,0.0
1003,250.5,82.2899,88.6352,152.633,100.554,101.513,0.00244213,0.265208,20.6614,175.984,-0.0676562,0.0,0.0
1062,265.25,82.07,87.6766,148.668,100.889,102.174,0.00233747,0.25863,20.6695,174.463,-0.0902571,0.0,0.0
1121,280,81.5321,87.5389,151.404,101.195,105.573,0.00234468,0.255753,20.6701,173.002,-0.302021,0.0,0.0
1180,294.75,81.0893,86.7147,153.165,101.282,102.353,0.0020304,0.247365,20.6812,171.48,-0.0749769,0.0,0.0
1239,309.5,80.9159,86.3829,153.858,101.095,104.167,0.00206004,0.242831,20.686,170.129,-0.213376,0.0,0.0
1298,324.25,79.9464,85.865,153.01,100.688,103.418,0.00192593,0.235082,20.6976,168.738,-0.190737,0.0,0.0
1357,339,79.7862,85.6406,156.498,100.152,103.63,0.00151248,0.229572,20.7044,167.467,-0.243447,0.0,0.0
1416,353.75,79.2096,84.9069,154.002,99.718,103.256,0.00131189,0.223671,20.7127,166.246,-0.248555,0.0,0.0
1475,368.5,78.8207,84.1629,156.06,99.5262,102.844,0.00151126,0.218817,20.7183,164.925,-0.233794,0.0,0.0
1534,383.25,78.7176,83.44,153.293,99.7268,103.32,0.00133142,0.212324,20.7254,163.754,-0.252339,0.0,0.0
1593,398,78.1369,82.7591,157.707,100.168,103.75,0.00168231,0.206035,20.7352,162.573,-0.250493,0.0,0.0
1652,412.75,77.5866,82.3828,150.902,100.597,103.782,0.00159618,0.201193,20.7404,161.442,-0.222251,0.0,0.0
1711,427.5,77.6728,82.034,155.288,100.76,103.519,0.00159895,0.198113,20.7438,160.221,-0.19257,0.0,0.0
1770,442.25,77.4203,81.8839,154.321,100.685,104.029,0.00144154,0.197201,20.7509,159.13,-0.23293,0.0,0.0
1829,457,77.3003,81.5592,153.117,100.404,105.099,0.00160843,0.19656,20.7506,158.029,-0.325842,0.0,0.0
1888,471.75,76.5934,81.3219,151.204,100.088,103.17,0.0014804,0.197655,20.7472,156.918,-0.216246,0.0,0.0
1947,486.5,76.5431,81.1066,155.11,100.321,103.796,0.00177069,0.19562,20.7481,155.827,-0.242794,0.0,0.0
2006,501.25,76.3268,81.3586,154.526,100.754,103.885,0.0018039,0.196682,20.7502,154.766,-0.218182,0.0,0.0
2065,516,76.3838,80.8872,154.759,100.793,103.866,0.00171927,0.196506,20.7478,153.735,-0.214102,0.0,0.0
2124,530.75,76.4311,81.082,155.248,100.402,103.542,0.00172214,0.199687,20.7462,152.644,-0.219612,0.0,0.0
2183,545.5,76.5034,80.9992,157.312,100.751,103.357,0.00170708,0.199845,20.7452,151.553,-0.182066,0.0,0.0
2242,560.25,77.0926,81.5498,152.052,101.15,104.893,0.00191612,0.203834,20.7401,150.432,-0.259064,0.0,0.0
2301,575,76.2878,81.7022,153.204,101.343,104.652,0.0018445,0.202965,20.7394,149.271,-0.229089,0.0,0.0
2360,589.75,76.7392,81.5662,160.041,101.205,104.196,0.00172211,0.207574,20.7355,148.2,-0.207691,0.0,0.0
2419,604.5,76.6515,82.1734,156.381,100.862,104.858,0.00154053,0.213455,20.7319,146.999,-0.277019,0.0,0.0
2478,619.25,76.7281,82.6686,160.114,100.316,104.099,0.00155289,0.215277,20.7276,145.898,-0.263941,0.0,0.0
2537,634,76.9446,82.9122,153.521,99.8284,101.593,0.00143682,0.218708,20.724,144.717,-0.124955,0.0,0.0
2596,648.75,77.4808,83.0045,151.224,99.6473,103.348,0.00181576,0.222467,20.719,143.656,-0.259991,0.0,0.0
2655,663.5,77.7619,83.0327,154.948,99.6763,104.08,0.0016537,0.224365,20.7166,142.455,-0.308236,0.0,0.0
2714,678.25,78.1083,83.3634,148.566,99.7637,103.508,0.00172476,0.228521,20.7116,141.254,-0.262677,0.0,0.0
2773,693,77.7893,83.4226,152.736,99.9531,102.855,0.00170705,0.231649,20.7103,140.043,-0.204032,0.0,0.0
2832,707.75,78.5272,84.0329,154.893,100.231,104.05,0.00167182,0.23401,20.7065,138.812,-0.266587,0.0,0.0
2891,722.5,78.6202,84.5115,151.259,100.485,103.796,0.00144266,0.239402,20.7006,137.501,-0.231118,0.0,0.0
2950,737.25,79.1715,85.0801,151.588,100.652,103.762,0.00182194,0.242195,20.6954,136.26,-0.216983,0.0,0.0
3009,752,79.2417,85.1545,150.753,100.829,103.988,0.00247077,0.245475,20.6929,135.008,-0.219905,0.0,0.0
3068,766.75,79.1064,85.738,153.509,100.874,103.401,0.00186647,0.250301,20.6876,133.737,-0.176401,0.0,0.0
3127,781.5,79.6199,85.726,151.559,100.789,103.938,0.00148267,0.248753,20.6883,132.536,-0.219342,0.0,0.0
3186,796.25,79.6784,86.0197,150.466,100.585,104.74,0.00184644,0.248403,20.6849,131.295,-0.288551,0.0,0.0
3245,811,80.1269,85.5102,154.945,100.331,102.872,0.00186875,0.251343,20.6843,130.004,-0.178337,0.0,0.0
3304,825.75,79.9046,85.4401,150.44,100.123,103.82,0.0019885,0.248971,20.6841,128.763,-0.258537,0.0,0.0
3363,840.5,79.7679,85.5644,153.413,100.474,103.291,0.00166233,0.251499,20.681,127.462,-0.197158,0.0,0.0
3422,855.25,80.2645,85.6709,150.745,100.829,103.505,0.00173187,0.254016,20.6833,126.231,-0.186784,0.0,0.0
3481,870,80.2723,86.4426,153.118,100.856,103.762,0.00203434,0.256943,20.6816,124.91,-0.202538,0.0,0.0
3540,884.75,80.5314,86.2035,149.757,100.728,104.128,0.00179615,0.255709,20.6768,123.608,-0.236658,0.0,0.0
3599,899.5,80.3325,86.3923,152.12,100.506,102.616,0.00197577,0.256467,20.6773,122.387,-0.148143,0.0,0.0
3658,914.25,80.6212,86.4035,155.463,100.784,102.996,0.00218925,0.258371,20.6746,121.166,-0.15482,0.0,0.0
3717,929,80.7449,86.7534,149.932,101.076,103.458,0.00179009,0.259456,20.6721,119.915,-0.166095,0.0,0.0
3776,943.75,80.5923,87.2662,148.402,101.289,103.917,0.00167917,0.255743,20.676,118.674,-0.182618,0.0,0.0
3835,958.5,80.4074,86.7819,147.71,101.427,103.606,0.00187224,0.257242,20.674,117.413,-0.15153,0.0,0.0
3894,973.25,81.0264,86.7002,152.807,101.378,104.73,0.00181655,0.26002,20.6678,116.182,-0.231953,0.0,0.0
3953,988,81.0204,87.1003,147.967,101.162,103.464,0.0019117,0.260721,20.6708,115.011,-0.160451,0.0,0.0
4012,1002.75,81.3233,87.4493,158.182,101.031,103.781,0.00200316,0.259299,20.6688,113.73,-0.191465,0.0,0.0
4071,1017.5,81.1763,87.1512,149.288,100.899,103.081,0.00210891,0.258093,20.671,112.499,-0.15255,0.0,0.0
4130,1032.25,80.793,86.9765,150.415,100.82,102.992,0.00197245,0.254858,20.6732,111.358,-0.151973,0.0,0.0
4189,1047,80.9345,86.7145,150.856,100.628,102.969,0.00206685,0.24991,20.678,110.217,-0.163981,0.0,0.0
4248,1061.75,80.693,86.2074,150.386,100.458,103.696,0.00206653,0.247095,20.6793,109.146,-0.226162,0.0,0.0
4307,1076.5,80.5007,85.5109,152.058,100.16,102.955,0.00190425,0.24147,20.6836,108.105,-0.196245,0.0,0.0
4366,1091.25,80.314,85.7574,152.903,99.9635,102.658,0.00232665,0.235434,20.6882,107.184,-0.189651,0.0,0.0
4425,1106,79.7502,84.406,153.565,99.8503,100.625,0.00186672,0.222923,20.7028,106.263,-0.0551291,0.0,0.0
4484,1120.75,78.4429,82.7264,160.531,99.7502,103.206,0.00196338,0.201866,20.7219,105.623,-0.242831,0.0,0.0
4543,1135.5,77.0714,79.5147,155.151,99.8133,104.52,0.00266323,0.161125,20.7663,105.212,-0.328543,0.0,0.0
4602,1150.25,75.0142,77.727,156.505,99.9742,104.143,0.00345542,0.136369,20.7974,104.872,-0.291277,0.0,0.0
4661,1165,73.9613,75.4268,161.518,100.158,104.51,0.0046291,0.123423,20.8201,104.532,-0.303301,0.0,0.0
4720,1179.75,72.578,74.3401,159.282,100.382,104.012,0.00557056,0.117927,20.8271,104.271,-0.25324,0.0,0.0
4779,1194.5,70.8808,73.2981,161.436,100.61,104.913,0.00606139,0.11183,20.8362,103.971,-0.298553,0.0,0.0
4838,1209.25,69.6977,71.7931,154.502,100.781,105.406,0.00660727,0.110502,20.8436,103.771,-0.319934,0.0,0.0
4897,1224,68.8413,70.9174,157.611,100.926,105.043,0.00664366,0.113713,20.8431,103.601,-0.28506,0.0,0.0
4956,1238.75,68.2278,70.1891,162.415,101.003,104.136,0.00741464,0.113014,20.8364,103.441,-0.217807,0.0,0.0
5015,1253.5,67.965,69.906,160.289,100.979,103.385,0.00760341,0.105499,20.8496,103.241,-0.167866,0.0,0.0
5074,1268.25,67.1937,69.4367,163.065,100.894,104.349,0.00810493,0.10376,20.8506,103.05,-0.240034,0.0,0.0
5133,1283,66.6354,68.8451,155.728,100.79,104.604,0.00802988,0.101561,20.8547,102.85,-0.264767,0.0,0.0
5192,1297.75,65.8052,67.6637,160.12,100.598,104.138,0.00858162,0.101308,20.8571,102.66,-0.246575,0.0,0.0
5251,1312.5,65.6009,67.7697,162.802,100.395,104.603,0.00884863,0.100442,20.8586,102.4,-0.292747,0.0,0.0
5310,1327.25,64.9949,67.1469,159.958,100.244,102.878,0.00862934,0.0988246,20.8634,102.18,-0.184956,0.0,0.0
5369,1342,63.9871,66.7836,164.392,100.303,104.469,0.00849093,0.0983502,20.8627,101.989,-0.290152,0.0,0.0
5428,1356.75,64.6134,66.8139,163.545,100.464,103.499,0.00842161,0.0988401,20.8623,101.879,-0.212234,0.0,0.0
5487,1371.5,64.151,67.0127,160.216,100.592,105.105,0.00856325,0.0986478,20.8646,101.659,-0.312942,0.0,0.0
5546,1386.25,64.1724,66.6764,161.488,100.658,105.119,0.00853687,0.0981678,20.8643,101.629,-0.309155,0.0,0.0
5605,1401,63.874,66.6099,161.733,100.647,105.043,0.00853697,0.0977043,20.8644,101.469,-0.304811,0.0,0.0
5612,1402.75,64.0416,66.847,161.972,100.649,105.635,0.00847831,0.0978913,20.8646,101.359,-0.344713,0.0,0.0