Folder: fsri_materials_database/01_Data/High_Temperature_SCBA_Facepiece/Cone

Note: README.md
# Materials and Products Database
### Repository of materials and products properties and fire test data to improve fire modeling and fire investigation.

This project was supported in part by Award No. 2019-DU-BX-0018, awarded by the National Institute of Justice, Office of Justice Programs, U.S. Department of Justice. The opinions, findings, and conclusions or recommendations expressed in this publication / program / exhibition are those of the author(s) and do not necessarily reflect those of the Department of Justice.

***
***

__Cite this database:__ "McKinnon, M., Weinschenk, C., Dow, N., DiDomizio, M., and Madrzykowski, D. Materials and Products Database (Version 1.0.0), Fire Safety Research Institute, UL Research Institutes. Columbia, MD 21045, 2023."

__Cite the Technical Reference Guide:__ "McKinnon, M., Weinschenk, C., and Madrzykowski, D. Materials and Products Database - Technical Reference Guide, Fire Safety Research Institute, UL Research Institutes. Columbia, MD 21045, 2023."

__Cite the User Guide:__ "McKinnon, M., and Weinschenk, C. Materials and Products Database - User Guide, Fire Safety Research Institute, UL Research Institutes. Columbia, MD 21045, 2023."

***
***

## Database Structure

## 01_Data/
Raw data generated from each apparatus are included here in plain-text format. The data is organized first by material, next by the short name of test apparatus used, and where applicable additional filtering by test settings.

### Test Apparatus and Data File Structure
- __Cone Calorimeter__ (Cone)
    + Data file structure includes the material, the short name for the apparatus, heat flux setting and scan/scalar, date of test, and replicate number. Scan is for the raw output data and scalar is for the initial conditions and high-level test parameters. 
        * Example: __MDF_Cone_HF25scalar_210323_R1__ stands for the first replicate of scalar data generated from a medium density fiber board test in cone calorimeter exposed to 25 kW/m<sup>2</sup> on March 23, 2021.
    + A _Cone_Notes.csv_ is generated for each material from the __plot_Cone_data.py__ script. For materials whose experiments deviated from typical behavior relevant pictures are included in the respective material directory.
- __Fourier Transform Infrared Spectrometer__ (FTIR)
    + The FTIR directory contains subdirectories for the Attenuated Total Reflectance method (ATR) and the Integrating Sphere (IS)
    + Data file structure for the ATR experiment files includes the material, the abbreviated name for the apparatus, date of test, and replicate number. 
        * Example: __MDF_ATR_210323_R5__ stands for the fifth replicate of data collected with the ATR accessory conducted on June 8, 2021.
    + Data file structure for the IS experiment files includes the material, the abbreviated name for the apparatus, the measurand, whether the test is a sample measurement or standard reference, date of test, and replicate number.
        * Example: __OSB_IS_REFLECT_MEAS_2

File: High_Temperature_SCBA_Facepiece_HRRPUA_50.csv
Time after Ignition,High_Temperature_SCBA_Facepiece_R1,Mean,Std. Dev.
0.0,16.2,16.2,
0.25,17.0,17.0,
0.5,18.1,18.1,
0.75,19.3,19.3,
1.0,19.9,19.9,
1.25,21.8,21.8,
1.5,24.1,24.1,
1.75,25.8,25.8,
2.0,27.2,27.2,
2.25,28.9,28.9,
2.5,31.4,31.4,
2.75,34.8,34.8,
3.0,36.5,36.5,
3.25,39.0,39.0,
3.5,43.1,43.1,
3.75,48.6,48.6,
4.0,52.4,52.4,
4.25,56.1,56.1,
4.5,63.6,63.6,
4.75,68.1,68.1,
5.0,72.7,72.7,
5.25,78.3,78.3,
5.5,85.0,85.0,
5.75,92.8,92.8,
6.0,98.3,98.3,
6.25,101.8,101.8,
6.5,107.7,107.7,
6.75,114.3,114.3,
7.0,121.9,121.9,
7.25,129.7,129.7,
7.5,132.0,132.0,
7.75,134.6,134.6,
8.0,141.3,141.3,
8.25,144.6,144.6,
8.5,146.9,146.9,
8.75,150.9,150.9,
9.0,153.5,153.5,
9.25,158.8,158.8,
9.5,159.3,159.3,
9.75,164.2,164.2,
10.0,163.3,163.3,
10.25,165.0,165.0,
10.5,164.5,164.5,
10.75,164.7,164.7,
11.0,166.4,166.4,
11.25,167.6,167.6,
11.5,167.0,167.0,
11.75,164.6,164.6,
12.0,161.6,161.6,
12.25,153.8,153.8,
12.5,147.9,147.9,
12.75,144.9,144.9,
13.0,139.5,139.5,
13.25,135.9,135.9,
13.5,131.5,131.5,
13.75,126.1,126.1,
14.0,120.8,120.8,
14.25,115.9,115.9,
14.5,114.6,114.6,
14.75,109.3,109.3,
15.0,103.4,103.4,
15.25,100.7,100.7,
15.5,95.6,95.6,
15.75,90.9,90.9,
16.0,86.7,86.7,
16.25,81.1,81.1,
16.5,76.5,76.5,
16.75,71.7,71.7,
17.0,67.8,67.8,
17.25,63.2,63.2,
17.5,59.9,59.9,
17.75,55.1,55.1,
18.0,51.1,51.1,
18.25,48.1,48.1,
18.5,44.2,44.2,
18.75,41.8,41.8,
19.0,38.5,38.5,
19.25,35.8,35.8,
19.5,33.4,33.4,

File: High_Temperature_SCBA_Facepiece_HRRPUA_75.csv
Time after Ignition,High_Temperature_SCBA_Facepiece_R1,Mean,Std. Dev.
0.0,11.6,11.6,
0.25,12.9,12.9,
0.5,14.5,14.5,
0.75,17.1,17.1,
1.0,19.3,19.3,
1.25,22.0,22.0,
1.5,23.4,23.4,
1.75,25.2,25.2,
2.0,29.5,29.5,
2.25,32.1,32.1,
2.5,35.3,35.3,
2.75,38.3,38.3,
3.0,43.2,43.2,
3.25,48.3,48.3,
3.5,51.6,51.6,
3.75,55.4,55.4,
4.0,60.8,60.8,
4.25,64.9,64.9,
4.5,70.5,70.5,
4.75,75.1,75.1,
5.0,77.9,77.9,
5.25,83.7,83.7,
5.5,89.0,89.0,
5.75,93.5,93.5,
6.0,97.5,97.5,
6.25,101.5,101.5,
6.5,102.7,102.7,
6.75,108.7,108.7,
7.0,111.4,111.4,
7.25,113.7,113.7,
7.5,117.5,117.5,
7.75,127.2,127.2,
8.0,131.7,131.7,
8.25,135.1,135.1,
8.5,136.7,136.7,
8.75,144.3,144.3,
9.0,148.4,148.4,
9.25,153.9,153.9,
9.5,162.2,162.2,
9.75,161.8,161.8,
10.0,167.9,167.9,
10.25,170.2,170.2,
10.5,172.5,172.5,
10.75,175.0,175.0,
11.0,183.1,183.1,
11.25,186.2,186.2,
11.5,178.7,178.7,
11.75,182.5,182.5,
12.0,186.4,186.4,
12.25,183.9,183.9,
12.5,187.1,187.1,
12.75,188.3,188.3,
13.0,187.2,187.2,
13.25,195.8,195.8,
13.5,199.2,199.2,
13.75,203.2,203.2,
14.0,203.3,203.3,
14.25,201.3,201.3,
14.5,196.6,196.6,
14.75,187.1,187.1,
15.0,183.6,183.6,
15.25,176.8,176.8,
15.5,168.9,168.9,
15.75,161.3,161.3,
16.0,153.9,153.9,
16.25,144.3,144.3,
16.5,137.7,137.7,
16.75,128.5,128.5,
17.0,122.1,122.1,
17.25,116.0,116.0,
17.5,114.9,114.9,
17.75,107.4,107.4,
18.0,99.9,99.9,
18.25,92.1,92.1,
18.5,86.6,86.6,
18.75,79.8,79.8,
19.0,74.6,74.6,
19.25,70.6,70.6,
19.5,65.6,65.6,
19.75,60.5,60.5,
20.0,56.4,56.4,
20.25,53.1,53.1,
20.5,50.0,50.0,

File: High_Temperature_SCBA_Facepiece_HRRPUA_100.csv
Time after Ignition,High_Temperature_SCBA_Facepiece_R1,Mean,Std. Dev.
0.0,10.9,10.9,
0.25,13.8,13.8,
0.5,16.1,16.1,
0.75,19.1,19.1,
1.0,21.1,21.1,
1.25,26.2,26.2,
1.5,31.2,31.2,
1.75,34.8,34.8,
2.0,38.9,38.9,
2.25,41.9,41.9,
2.5,49.3,49.3,
2.75,55.3,55.3,
3.0,60.6,60.6,
3.25,66.7,66.7,
3.5,76.5,76.5,
3.75,85.5,85.5,
4.0,92.5,92.5,
4.25,101.3,101.3,
4.5,106.9,106.9,
4.75,117.8,117.8,
5.0,128.0,128.0,
5.25,139.0,139.0,
5.5,145.4,145.4,
5.75,155.0,155.0,
6.0,168.6,168.6,
6.25,182.9,182.9,
6.5,191.2,191.2,
6.75,201.1,201.1,
7.0,208.7,208.7,
7.25,218.0,218.0,
7.5,233.1,233.1,
7.75,241.1,241.1,
8.0,254.7,254.7,
8.25,261.1,261.1,
8.5,279.8,279.8,
8.75,287.6,287.6,
9.0,291.3,291.3,
9.25,304.1,304.1,
9.5,314.2,314.2,
9.75,318.7,318.7,
10.0,311.5,311.5,
10.25,327.1,327.1,
10.5,330.2,330.2,
10.75,342.8,342.8,
11.0,337.7,337.7,
11.25,324.8,324.8,
11.5,355.8,355.8,
11.75,372.2,372.2,
12.0,380.5,380.5,
12.25,370.0,370.0,
12.5,367.7,367.7,
12.75,356.1,356.1,
13.0,351.2,351.2,
13.25,345.4,345.4,
13.5,329.4,329.4,
13.75,315.7,315.7,
14.0,310.3,310.3,
14.25,299.4,299.4,
14.5,290.0,290.0,
14.75,282.0,282.0,
15.0,266.0,266.0,
15.25,254.4,254.4,
15.5,244.6,244.6,
15.75,231.7,231.7,
16.0,219.2,219.2,
16.25,203.9,203.9,
16.5,191.1,191.1,
16.75,183.8,183.8,
17.0,173.8,173.8,
17.25,157.7,157.7,