Folder: fsri_materials_database/01_Data/Plastic_Laminate_Countertop/Cone (part 2)

File: Plastic_Laminate_Countertop_HRRPUA_75.csv
Time after Ignition,Plastic_Laminate_Countertop_R1,Plastic_Laminate_Countertop_R2,Plastic_Laminate_Countertop_R3,Mean,Std. Dev.
0.0,55.2,21.3,10.3,28.9,23.4
10.75,63.9,134.6,183.9,127.5,60.3
21.5,195.1,234.0,189.7,206.3,24.2
32.25,179.1,175.8,193.2,182.7,9.2
43.0,113.1,119.7,138.0,123.6,12.9
53.75,85.4,99.8,98.0,94.4,7.8
64.5,91.9,99.5,84.7,92.0,7.4
75.25,108.5,115.5,93.5,105.8,11.3
86.0,127.9,138.0,114.4,126.8,11.9
96.75,141.9,162.0,130.5,144.8,15.9
107.5,157.3,181.3,156.4,165.0,14.1
118.25,170.4,191.2,171.9,177.8,11.6
129.0,173.8,197.0,189.2,186.7,11.8
139.75,181.5,192.6,191.1,188.4,6.0
150.5,178.9,194.0,192.3,188.4,8.3
161.25,176.5,184.5,186.6,182.5,5.3
172.0,172.1,174.4,185.8,177.4,7.3
182.75,167.2,161.9,177.2,168.8,7.8
193.5,163.1,156.5,170.7,163.4,7.1
204.25,157.0,153.5,162.5,157.7,4.5
215.0,152.2,151.5,157.3,153.7,3.1
225.75,151.2,149.1,152.8,151.0,1.8
236.5,149.6,147.8,148.6,148.7,0.9
247.25,144.7,145.4,150.6,146.9,3.2
258.0,146.8,142.0,150.0,146.3,4.1
268.75,143.2,143.5,145.8,144.2,1.4
279.5,142.3,140.8,146.8,143.3,3.1
290.25,138.4,136.1,141.4,138.6,2.7
301.0,136.1,137.0,143.3,138.8,3.9
311.75,135.2,139.5,141.9,138.9,3.4
322.5,132.4,137.2,139.1,136.2,3.5
333.25,132.7,136.4,137.8,135.6,2.6
344.0,132.6,131.5,135.9,133.3,2.3
354.75,129.5,128.2,136.5,131.4,4.4
365.5,126.2,128.1,132.7,129.0,3.4
376.25,124.8,126.6,129.1,126.8,2.1
387.0,122.4,122.5,128.3,124.4,3.4
397.75,119.0,118.1,125.5,120.9,4.0
408.5,117.0,117.5,123.0,119.2,3.3
419.25,114.2,116.0,116.3,115.5,1.1
430.0,110.2,113.8,118.4,114.1,4.1
440.75,111.2,111.8,116.0,113.0,2.6
451.5,107.7,108.3,115.5,110.5,4.3
462.25,105.4,106.4,116.1,109.3,5.9
473.0,103.5,105.3,113.0,107.3,5.1
483.75,101.3,103.4,110.9,105.2,5.0
494.5,99.1,101.0,109.4,103.2,5.5
505.25,98.0,101.0,105.1,101.4,3.6
516.0,95.9,99.5,103.8,99.7,4.0
526.75,92.2,100.2,100.6,97.7,4.7
537.5,93.8,98.5,99.3,97.2,3.0
548.25,90.8,97.0,98.7,95.5,4.2
559.0,90.1,98.5,96.5,95.0,4.4
569.75,90.2,96.2,95.8,94.1,3.4
580.5,90.9,97.1,96.8,94.9,3.5
591.25,90.1,94.6,93.8,92.9,2.4
602.0,90.1,94.2,92.8,92.4,2.1
612.75,90.2,93.6,91.8,91.8,1.7
623.5,89.9,93.6,89.7,91.1,2.2
634.25,89.5,91.9,91.9,91.1,1.4
645.0,90.5,90.7,91.2,90.8,0.4
655.75,89.3,91.1,88.0,89.5,1.6
666.5,89.3,93.1,87.0,89.8,3.0
677.25,87.8,92.9,89.3,90.0,2.6
688.0,87.4,91.0,87.1,88.5,2.2
698.75,86.8,90.1,87.2,88.0,1.8
709.5,86.8,92.0,86.0,88.3,3.3
720.25,87.4,88.0,87.6,87.7,0.3
731.0,86.6,92.4,87.7,88.9,3.1
741.75,84.8,91.5,86.8,87.7,3.4
752.5,84.4,89.7,87.7,87.3,2.7
763.25,85.1,92.3,86.8,88.1,3.8
774.0,85.6,90.1,86.1,87.3,2.4
784.75,84.6,92.6,86.5,87.9,4.2
795.5,83.7,91.8,86.4,87.3,4.1
806.25,83.7,92.8,86.2,87.6,4.7
817.0,84.6,94.3,86.3,88.4,5.2
827.75,83.4,93.9,84.8,87.4,5.7
838.5,84.1,93.7,86.2,88.0,5.1
849.25,83.0,92.4,86.2,87.2,4.8
860.0,82.9,93.3,87.4,87.9,5.2
870.75,84.0,95.1,88.5,89.2,5.6
881.5,80.3,94.4,87.0,87.2,7.1
892.25,84.5,94.2,88.3,89.0,4.9
903.0,81.2,96.3,86.9,88.1,7.6
913.75,83.1,97.9,86.3,89.1,7.8
924.5,84.6,95.4,85.6,88.5,5.9
935.25,82.9,97.0,86.0,88.7,7.4
946.0,84.5,98.0,84.6,89.0,7.7
956.75,83.0,96.4,85.8,88.4,7.1
967.5,83.0,96.6,89.8,89.8,6.8
978.25,82.4,96.6,86.0,88.3,7.4
989.0,81.7,97.7,86.1,88.5,8.3
999.75,82.9,97.7,85.7,88.8,7.9
1010.5,81.2,96.1,85.8,87.7,7.6
1021.25,82.3,97.4,88.4,89.4,7.6
1032.0,80.7,96.0,86.5,87.7,7.7
1042.75,81.3,96.4,85.5,87.7,7.8
1053.5,81.9,96.7,86.3,88.3,7.6
1064.25,80.0,99.6,86.6,88.8,10.0
1075.0,80.1,97.7,86.9,88.2,8.9
1085.75,81.1,96.0,85.7,87.6,7.6
1096.5,79.9,98.0,85.7,87.8,9.2
1107.25,79.7,97.5,86.6,87.9,9.0
1118.0,81.2,98.7,87.2,89.0,8.9
1128.75,80.5,98.4,85.7,88.2,9.2
1139.5,82.0,99.2,86.5,89.2,8.9
1150.25,80.0,100.8,87.2,89.3,10.5
1161.0,81.0,101.9,85.4,89.4,11.0
1171.75,80.7,101.2,85.5,89.2,10.7
1182.5,81.6,99.0,86.9,89.2,8.9
1193.25,83.6,103.9,87.0,91.5,10.9
1204.0,83.8,103.8,85.4,91.0,11.1
1214.75,84.5,103.2,86.1,91.3,10.4
1225.5,84.6,104.7,87.0,92.1,10.9
1236.25,84.5,104.1,86.0,91.6,10.9
1247.0,83.9,104.4,86.7,91.7,11.1
1257.75,85.8,103.8,87.3,92.3,10.0
1268.5,87.4,103.4,86.9,92.6,9.4
1279.25,88.3,100.6,85.9,91.6,7.9
1290.0,88.5,99.9,86.6,91.7,7.2
1300.75,90.7,101.0,90.5,94.1,6.0
1311.5,91.8,100.8,88.6,93.7,6.3
1322.25,91.0,103.1,89.2,94.4,7.5
1333.0,92.6,102.7,87.1,94.2,7.9
1343.75,94.8,103.3,90.0,96.0,6.7
1354.5,96.4,102.5,92.9,97.3,4.9
1365.25,97.3,101.7,91.5,96.8,5.1
1376.0,96.3,105.1,92.3,97.9,6.5
1386.75,96.2,106.3,93.0,98.5,7.0
1397.5,98.4,106.1,97.0,100.5,4.9
1408.25,101.0,106.0,97.9,101.6,4.1
1419.0,100.1,109.8,97.1,102.4,6.6
1429.75,102.0,111.1,97.5,103.5,6.9
1440.5,101.8,112.1,99.0,104.3,6.9
1451.25,103.8,111.7,98.8,104.7,6.5
1462.0,107.1,112.0,99.3,106.1,6.4
1472.75,107.7,113.9,99.0,106.9,7.5
1483.5,108.8,113.4,101.8,108.0,5.9
1494.25,112.9,112.9,100.0,108.6,7.5
1505.0,113.0,113.4,102.1,109.5,6.4
1515.75,113.7,113.9,103.9,110.5,5.7
1526.5,114.9,114.1,103.9,111.0,6.2
1537.25,115.0,117.4,103.7,112.0,7.3
1548.0,118.9,114.8,103.0,112.2,8.3
1558.75,115.4,116.9,108.2,113.5,4.6
1569.5,115.4,117.1,106.4,113.0,5.8
1580.25,116.0,114.2,109.2,113.1,3.5
1591.0,113.3,117.1,109.2,113.2,4.0
1601.75,113.0,113.4,112.2,112.9,0.7
1612.5,111.1,118.0,112.5,113.9,3.6
1623.25,109.3,115.8,114.1,113.0,3.4
1634.0,109.1,117.3,114.8,113.7,4.2
1644.75,107.6,114.4,117.0,113.0,4.9
1655.5,110.4,116.7,117.8,115.0,4.0
1666.25,111.2,118.9,116.2,115.4,3.9
1677.0,110.6,117.1,119.3,115.7,4.6
1687.75,113.0,117.7,118.0,116.2,2.8
1698.5,115.5,115.0,118.9,116.4,2.1
1709.25,117.7,115.5,122.4,118.5,3.6
1720.0,117.1,115.1,122.2,118.1,3.7
1730.75,120.1,116.1,121.7,119.3,2.9
1741.5,124.8,115.3,122.4,120.9,4.9
1752.25,123.1,115.9,120.2,119.7,3.6
1763.0,121.2,118.1,124.5,121.3,3.2
1773.75,124.9,120.5,125.4,123.6,2.7
1784.5,122.0,119.7,124.8,122.2,2.6
1795.25,124.0,124.0,125.7,124.6,1.0
1806.0,121.0,124.3,125.9,123.7,2.5
1816.75,120.9,125.0,125.0,123.6,2.4
1827.5,123.4,128.3,123.5,125.1,2.8
1838.25,122.8,126.6,124.3,124.6,1.9
1849.0,120.8,126.0,126.3,124.3,3.1
1859.75,121.0,126.9,125.7,124.5,3.1
1870.5,122.6,127.8,127.4,126.0,2.9
1881.25,119.6,127.6,127.2,124.8,4.5
1892.0,115.9,129.0,127.2,124.0,7.1
1902.75,119.4,127.0,130.4,125.6,5.6
1913.5,117.4,130.0,128.7,125.4,6.9
1924.25,119.0,126.4,129.7,125.0,5.4
1935.0,117.7,127.1,127.5,124.1,5.6
1945.75,118.8,126.0,128.6,124.4,5.1
1956.5,121.0,130.8,129.4,127.1,5.3
1967.25,118.4,129.5,127.2,125.0,5.8
1978.0,120.4,130.8,129.0,126.7,5.5
1988.75,118.9,130.2,127.6,125.6,5.9
1999.5,120.4,132.8,129.1,127.4,6.4
2010.25,120.1,134.7,129.6,128.2,7.4
2021.0,120.2,133.9,128.2,127.4,6.8
2031.75,119.5,137.2,131.1,129.3,9.0
2042.5,119.8,129.1,127.8,125.6,5.0
2053.25,120.5,136.8,130.7,129.3,8.2
2064.0,125.3,137.2,129.4,130.6,6.0
2074.75,124.8,138.3,130.8,131.3,6.8
2085.5,122.8,137.8,131.3,130.6,7.5
2096.25,125.4,138.8,128.7,131.0,7.0
2107.0,123.0,140.0,129.8,131.0,8.6
2117.75,124.0,139.8,130.2,131.3,7.9
2128.5,125.9,138.6,129.8,131.5,6.5
2139.25,124.3,138.3,130.3,131.0,7.1
2150.0,127.7,143.2,129.0,133.3,8.6
2160.75,128.8,140.8,129.2,132.9,6.8
2171.5,127.3,140.9,132.2,133.5,6.9
2182.25,127.4,138.9,130.2,132.2,6.0
2193.0,128.0,140.8,130.2,133.0,6.8
2203.75,124.9,139.2,129.5,131.2,7.3
2214.5,122.6,138.9,129.4,130.3,8.2
2225.25,128.8,134.0,129.7,130.8,2.8
2236.0,128.8,134.1,128.0,130.3,3.3
2246.75,126.3,132.8,127.4,128.8,3.5
2257.5,124.6,133.4,130.1,129.4,4.5
2268.25,124.7,129.7,126.7,127.0,2.5
2279.0,125.2,129.6,128.3,127.7,2.3
2289.75,122.6,126.8,126.6,125.3,2.3
2300.5,123.7,125.7,126.9,125.4,1.6
2311.25,122.3,122.2,124.9,123.1,1.5
2322.0,122.3,118.0,125.5,121.9,3.8
2332.75,123.9,117.9,122.9,121.5,3.2
2343.5,121.8,115.8,123.5,120.4,4.0
2354.25,122.0,115.9,123.9,120.6,4.2
2365.0,121.4,109.5,120.3,117.1,6.6
2375.75,123.7,108.9,118.3,117.0,7.5
2386.5,120.7,106.9,118.1,115.3,7.3
2397.25,118.9,100.9,117.1,112.3,9.9
2408.0,111.0,98.9,116.9,108.9,9.2
2418.75,105.7,94.1,114.7,104.8,10.3
2429.5,93.5,85.7,113.2,97.5,14.1
2440.25,85.3,76.4,112.3,91.3,18.7
2451.0,71.3,63.2,111.4,81.9,25.8
2461.75,62.2,56.9,108.4,75.8,28.3
2472.5,57.7,53.0,109.8,73.5,31.5
2483.25,52.1,48.3,105.7,68.7,32.1
2494.0,49.3,45.2,101.0,65.2,31.1
2504.75,47.7,43.5,96.9,62.7,29.7
2515.5,46.7,42.5,91.4,60.2,27.1
2526.25,44.9,40.6,78.9,54.8,21.0
2537.0,43.1,40.4,66.1,49.9,14.1
2547.75,43.2,39.4,58.9,47.2,10.3
2558.5,42.7,40.0,54.5,45.7,7.7
2569.25,41.5,37.4,50.0,43.0,6.4
2580.0,41.4,38.4,46.2,42.0,3.9
2590.75,41.7,37.6,45.7,41.7,4.1
2601.5,40.6,36.6,42.8,40.0,3.1
2612.25,40.9,36.4,42.3,39.9,3.1
2623.0,40.0,36.9,41.4,39.4,2.3
2633.75,39.1,36.8,41.5,39.1,2.3
2644.5,40.1,37.5,41.4,39.7,2.0
2655.25,40.0,37.2,41.6,39.6,2.2
2666.0,39.6,36.4,39.4,38.5,1.8
2676.75,39.0,35.3,40.0,38.1,2.5
2687.5,38.8,34.4,40.0,37.7,3.0
2698.25,38.2,34.6,39.3,37.4,2.4
2709.0,37.8,34.8,39.8,37.4,2.5
2719.75,39.7,35.0,39.1,38.0,2.6
2730.5,38.7,33.8,38.5,37.0,2.8
2741.25,38.8,34.0,37.9,36.9,2.5
2752.0,37.8,34.2,37.5,36.5,2.0
2762.75,37.6,33.9,37.1,36.2,2.0
2773.5,37.5,33.9,36.7,36.0,1.9
2784.25,38.1,33.1,37.0,36.1,2.6
2795.0,38.5,33.0,36.1,35.9,2.8
2805.75,37.6,33.0,35.2,35.3,2.3
2816.5,37.9,33.6,35.1,35.5,2.2
2827.25,37.5,32.4,36.1,35.3,2.7
2838.0,36.1,33.3,37.7,35.7,2.2
2848.75,36.7,31.5,36.0,34.7,2.8
2859.5,35.2,34.0,35.3,34.8,0.7
2870.25,34.3,32.3,35.5,34.0,1.6
2881.0,34.7,33.0,36.2,34.7,1.6
2891.75,36.0,32.8,36.1,35.0,1.9
2902.5,36.3,31.4,36.5,34.8,2.9
2913.25,36.9,32.5,36.5,35.3,2.4
2924.0,35.9,31.6,37.6,35.0,3.1
2934.75,36.1,31.9,36.3,34.8,2.5
2945.5,35.3,32.4,35.9,34.5,1.8
2956.25,35.5,32.9,36.1,34.8,1.7
2967.0,36.2,31.5,34.5,34.1,2.4
2977.75,35.1,29.9,33.6,32.9,2.6
2988.5,37.0,30.4,35.5,34.3,3.5
2999.25,34.9,30.4,35.2,33.5,2.7
3010.0,35.2,30.6,34.3,33.4,2.4
3020.75,35.1,31.3,34.9,33.8,2.1
3031.5,36.7,30.6,34.7,34.0,3.1
3042.25,36.4,31.1,34.6,34.0,2.7
3053.0,36.0,31.1,34.8,34.0,2.5
3063.75,36.4,30.1,33.6,33.4,3.1
3074.5,36.6,31.2,33.9,33.9,2.7
3085.25,35.0,30.9,33.7,33.2,2.1
3096.0,34.7,31.2,33.5,33.1,1.8
3106.75,34.6,30.5,33.7,32.9,2.2
3117.5,34.6,31.3,34.4,33.4,1.8
3128.25,34.6,30.7,32.8,32.7,1.9
3139.0,34.7,30.2,32.7,32.5,2.2
3149.75,35.9,30.2,33.3,33.1,2.9
3154.5,35.5,30.3,32.8,32.9,2.6