Folder: fsri_materials_database/01_Data/Plastic_Laminate_Countertop/Cone

Note: README.md
# Materials and Products Database
### Repository of materials and products properties and fire test data to improve fire modeling and fire investigation.

This project was supported in part by Award No. 2019-DU-BX-0018, awarded by the National Institute of Justice, Office of Justice Programs, U.S. Department of Justice. The opinions, findings, and conclusions or recommendations expressed in this publication / program / exhibition are those of the author(s) and do not necessarily reflect those of the Department of Justice.

***
***

__Cite this database:__ "McKinnon, M., Weinschenk, C., Dow, N., DiDomizio, M., and Madrzykowski, D. Materials and Products Database (Version 1.0.0), Fire Safety Research Institute, UL Research Institutes. Columbia, MD 21045, 2023."

__Cite the Technical Reference Guide:__ "McKinnon, M., Weinschenk, C., and Madrzykowski, D. Materials and Products Database - Technical Reference Guide, Fire Safety Research Institute, UL Research Institutes. Columbia, MD 21045, 2023."

__Cite the User Guide:__ "McKinnon, M., and Weinschenk, C. Materials and Products Database - User Guide, Fire Safety Research Institute, UL Research Institutes. Columbia, MD 21045, 2023."

***
***

## Database Structure

## 01_Data/
Raw data generated from each apparatus are included here in plain-text format. The data is organized first by material, next by the short name of test apparatus used, and where applicable additional filtering by test settings.

### Test Apparatus and Data File Structure
- __Cone Calorimeter__ (Cone)
    + Data file structure includes the material, the short name for the apparatus, heat flux setting and scan/scalar, date of test, and replicate number. Scan is for the raw output data and scalar is for the initial conditions and high-level test parameters. 
        * Example: __MDF_Cone_HF25scalar_210323_R1__ stands for the first replicate of scalar data generated from a medium density fiber board test in cone calorimeter exposed to 25 kW/m<sup>2</sup> on March 23, 2021.
    + A _Cone_Notes.csv_ is generated for each material from the __plot_Cone_data.py__ script. For materials whose experiments deviated from typical behavior relevant pictures are included in the respective material directory.
- __Fourier Transform Infrared Spectrometer__ (FTIR)
    + The FTIR directory contains subdirectories for the Attenuated Total Reflectance method (ATR) and the Integrating Sphere (IS)
    + Data file structure for the ATR experiment files includes the material, the abbreviated name for the apparatus, date of test, and replicate number. 
        * Example: __MDF_ATR_210323_R5__ stands for the fifth replicate of data collected with the ATR accessory conducted on June 8, 2021.
    + Data file structure for the IS experiment files includes the material, the abbreviated name for the apparatus, the measurand, whether the test is a sample measurement or standard reference, date of test, and replicate number.
        * Example: __OSB_IS_REFLECT_MEAS_2

File: Plastic_Laminate_Countertop_HRRPUA_25.csv
Time after Ignition,Plastic_Laminate_Countertop_R1,Plastic_Laminate_Countertop_R2,Plastic_Laminate_Countertop_R3,Mean,Std. Dev.
0.0,7.5,12.0,16.8,12.1,4.6
19.25,5.9,23.6,38.2,22.6,16.2
38.5,2.6,10.9,59.4,24.3,30.6
57.75,2.3,4.4,78.3,28.3,43.3
77.0,2.3,0.1,84.8,29.1,48.3
96.25,2.0,5.2,83.4,30.2,46.1
115.5,1.1,0.5,84.0,28.5,48.1
134.75,0.6,0.3,78.8,26.6,45.3
154.0,5.4,-1.1,71.5,25.3,40.2
173.25,0.5,3.2,65.8,23.1,36.9
192.5,0.8,-0.4,61.8,20.7,35.5
211.75,0.7,-0.6,59.4,19.8,34.3
231.0,0.7,-0.1,53.7,18.1,30.8
250.25,1.5,-0.7,50.5,17.1,28.9
269.5,4.5,-0.2,49.7,18.0,27.5
288.75,18.6,1.0,47.3,22.3,23.3
308.0,35.4,0.3,46.5,27.4,24.1
327.25,52.0,-0.6,45.6,32.3,28.7
346.5,58.9,1.2,46.1,35.4,30.3
365.75,67.4,-0.5,44.6,37.2,34.6
385.0,72.4,2.8,46.0,40.4,35.2
404.25,74.6,6.5,46.6,42.6,34.2
423.5,74.7,9.5,45.9,43.4,32.7
442.75,70.3,11.2,47.8,43.1,29.8
462.0,66.1,12.3,47.4,41.9,27.3
481.25,58.1,22.3,48.6,43.0,18.5
500.5,51.4,34.4,47.3,44.4,8.9
519.75,48.7,38.7,48.6,45.3,5.7
539.0,44.4,44.0,50.2,46.2,3.5
558.25,39.9,46.9,51.0,45.9,5.6
577.5,39.3,46.5,50.1,45.3,5.5
596.75,39.1,44.2,51.2,44.8,6.0
616.0,40.7,41.1,50.7,44.1,5.6
635.25,40.7,40.1,50.0,43.6,5.6
654.5,41.4,41.0,49.5,44.0,4.8
673.75,42.6,39.2,50.3,44.0,5.7
693.0,41.0,36.5,50.0,42.5,6.9
712.25,41.9,37.6,50.7,43.4,6.7
731.5,43.0,36.0,48.7,42.6,6.4
750.75,42.5,36.3,48.4,42.4,6.1
770.0,43.4,33.4,47.9,41.6,7.4
789.25,42.1,32.6,47.6,40.8,7.6
808.5,42.9,32.3,47.8,41.0,7.9
827.75,43.5,30.3,47.7,40.5,9.1
847.0,45.3,29.4,46.6,40.4,9.5
866.25,46.0,29.8,45.8,40.5,9.3
885.5,43.9,29.2,46.5,39.9,9.3
904.75,45.6,28.9,46.2,40.2,9.8
924.0,45.6,28.3,45.1,39.7,9.8
943.25,45.8,28.2,42.0,38.7,9.2
962.5,46.4,28.4,42.8,39.2,9.6
981.75,45.1,27.6,42.9,38.5,9.5
1001.0,45.2,28.1,39.8,37.7,8.7
1020.25,44.1,28.8,38.9,37.3,7.8
1039.5,43.4,28.1,37.1,36.2,7.7
1058.75,44.0,29.9,38.9,37.6,7.2
1078.0,42.5,27.0,39.9,36.5,8.3
1097.25,42.5,28.4,39.2,36.7,7.4
1116.5,42.6,28.3,37.9,36.3,7.3
1135.75,41.7,27.8,36.4,35.3,7.0
1155.0,39.8,26.7,35.5,34.0,6.7
1174.25,41.0,28.4,34.3,34.6,6.3
1193.5,41.0,29.1,33.5,34.5,6.0
1212.75,39.5,27.2,33.8,33.5,6.2
1232.0,38.9,27.2,33.7,33.3,5.9
1251.25,39.2,27.4,33.2,33.3,5.9
1270.5,38.7,27.2,31.1,32.3,5.9
1289.75,39.2,27.8,29.5,32.1,6.1
1309.0,39.6,26.5,28.0,31.4,7.1
1328.25,40.3,27.3,28.2,31.9,7.2
1347.5,38.2,27.0,28.4,31.2,6.1
1366.75,39.1,25.6,26.3,30.3,7.6
1386.0,38.8,26.0,26.5,30.4,7.3
1405.25,39.1,24.0,27.0,30.0,8.0
1424.5,35.9,24.7,26.8,29.2,5.9
1443.75,35.5,24.3,26.7,28.8,5.9
1463.0,35.0,24.5,23.9,27.8,6.3
1482.25,34.5,26.5,24.4,28.4,5.3
1501.5,33.8,28.1,22.7,28.2,5.5
1520.75,34.6,27.5,24.5,28.9,5.2
1540.0,34.3,28.0,25.7,29.4,4.4
1559.25,33.8,27.8,26.0,29.2,4.1
1578.5,33.2,28.6,25.7,29.2,3.8
1597.75,32.8,29.4,27.5,29.9,2.7
1617.0,30.2,31.0,25.9,29.0,2.7
1636.25,29.4,29.8,24.0,27.8,3.2
1655.5,28.6,30.9,28.5,29.3,1.3
1674.75,28.1,33.2,29.8,30.4,2.6
1694.0,28.5,31.9,29.0,29.8,1.9
1713.25,26.2,31.5,29.2,29.0,2.7
1732.5,24.9,33.8,28.0,28.9,4.5
1751.75,24.4,31.0,29.7,28.4,3.5
1771.0,25.2,31.8,30.8,29.3,3.6
1790.25,24.1,29.6,29.9,27.9,3.2
1809.5,26.2,30.4,30.5,29.0,2.4
1828.75,22.9,30.1,32.7,28.6,5.1
1848.0,24.0,30.4,32.2,28.9,4.3
1867.25,25.0,31.1,33.5,29.9,4.4
1886.5,21.1,30.4,33.0,28.2,6.3
1905.75,22.3,30.7,32.6,28.5,5.5
1925.0,19.1,29.8,32.5,27.1,7.1
1944.25,19.8,29.4,32.3,27.2,6.6
1963.5,21.1,28.2,32.1,27.1,5.6
1982.75,19.8,27.9,32.7,26.8,6.5
2002.0,19.8,26.3,33.1,26.4,6.6
2021.25,22.1,25.3,35.4,27.6,7.0
2040.5,23.1,23.9,35.1,27.4,6.7
2059.75,24.8,23.1,34.3,27.4,6.1
2079.0,24.4,23.5,35.5,27.8,6.7
2098.25,23.0,23.0,36.8,27.6,8.0
2117.5,23.1,23.7,36.2,27.7,7.4
2136.75,24.2,21.0,36.9,27.4,8.4
2156.0,23.9,21.7,36.4,27.3,8.0
2175.25,23.0,22.1,37.5,27.5,8.6
2194.5,24.0,22.2,38.4,28.2,8.9
2213.75,22.6,21.9,41.2,28.6,10.9
2233.0,24.7,21.3,40.3,28.8,10.1
2252.25,25.1,22.0,40.9,29.3,10.1
2271.5,22.3,21.9,40.4,28.2,10.6
2290.75,23.3,22.3,45.1,30.2,12.9
2310.0,22.6,22.6,44.9,30.0,12.9
2329.25,22.4,21.4,45.3,29.7,13.5
2348.5,25.7,22.8,45.8,31.4,12.5
2367.75,23.9,23.0,47.2,31.4,13.7
2387.0,25.8,20.2,49.3,31.8,15.5
2406.25,27.5,23.6,54.5,35.2,16.8
2425.5,23.0,23.0,57.3,34.4,19.8
2444.75,23.2,21.4,58.9,34.5,21.2
2464.0,25.9,21.1,58.7,35.2,20.5
2483.25,25.6,23.6,61.5,36.9,21.3
2502.5,30.3,23.8,62.7,39.0,20.8
2521.75,28.5,23.0,66.1,39.2,23.5
2541.0,30.3,23.9,64.5,39.6,21.9
2560.25,31.5,24.1,66.4,40.7,22.6
2579.5,33.8,23.9,67.8,41.8,23.0
2598.75,36.4,24.8,67.6,42.9,22.1
2618.0,40.0,24.5,69.8,44.8,23.1
2637.25,43.7,23.4,71.8,46.3,24.3
2656.5,43.8,25.1,69.1,46.0,22.1
2675.75,46.3,24.9,71.3,47.5,23.3
2695.0,48.0,24.5,73.5,48.7,24.5
2714.25,49.6,26.3,74.6,50.2,24.2
2733.5,49.8,27.0,74.7,50.5,23.9
2752.75,51.2,26.2,75.7,51.0,24.7
2772.0,51.7,30.0,75.0,52.2,22.5
2791.25,53.3,29.7,74.1,52.4,22.2
2810.5,54.2,30.4,72.9,52.5,21.3
2829.75,54.7,31.2,71.7,52.6,20.3
2849.0,54.4,31.1,70.8,52.1,20.0
2868.25,56.0,32.9,72.0,53.6,19.7
2887.5,57.1,36.3,70.3,54.6,17.1
2906.75,58.7,33.7,71.3,54.6,19.2
2926.0,59.8,35.4,69.1,54.8,17.4
2945.25,64.9,35.0,68.7,56.2,18.5
2964.5,67.0,36.2,,51.6,21.8
2983.75,68.6,38.2,,53.4,21.5
3003.0,70.4,38.4,,54.4,22.6
3022.25,71.8,38.9,,55.3,23.3
3041.5,71.5,40.0,,55.7,22.3
3060.75,72.4,40.2,,56.3,22.7
3080.0,71.7,41.9,,56.8,21.1
3099.25,73.7,42.9,,58.3,21.8
3118.5,72.0,43.4,,57.7,20.2
3137.75,72.6,46.6,,59.6,18.4
3157.0,70.6,47.4,,59.0,16.4
3176.25,72.1,48.9,,60.5,16.4
3195.5,69.3,49.7,,59.5,13.9
3214.75,69.9,52.7,,61.3,12.1
3234.0,70.1,52.7,,61.4,12.3
3253.25,69.4,53.3,,61.3,11.4
3272.5,70.4,54.2,,62.3,11.4
3291.75,70.4,54.0,,62.2,11.6
3311.0,69.0,55.0,,62.0,9.9
3330.25,66.4,57.1,,61.8,6.6
3349.5,66.6,56.3,,61.4,7.3
3368.75,65.8,58.9,,62.4,4.9
3388.0,64.5,56.6,,60.5,5.6
3407.25,63.0,58.1,,60.6,3.5
3426.5,59.8,59.9,,59.8,0.1
3445.75,58.5,60.8,,59.6,1.6
3465.0,58.0,61.4,,59.7,2.4
3484.25,57.1,62.5,,59.8,3.8
3503.5,55.9,,,55.9,
3522.75,54.9,,,54.9,
3542.0,54.1,,,54.1,
3561.25,52.4,,,52.4,
3580.5,51.3,,,51.3,
3599.75,51.6,,,51.6,
3619.0,49.8,,,49.8,
3638.25,50.5,,,50.5,
3657.5,49.0,,,49.0,
3676.75,48.0,,,48.0,
3696.0,47.9,,,47.9,
3715.25,47.1,,,47.1,
3734.5,47.9,,,47.9,
3753.75,48.9,,,48.9,
3773.0,46.8,,,46.8,
3792.25,46.6,,,46.6,
3811.5,46.8,,,46.8,
3830.75,46.2,,,46.2,
3850.0,45.5,,,45.5,
3869.25,44.2,,,44.2,
3888.5,43.6,,,43.6,
3907.75,44.3,,,44.3,
3927.0,43.9,,,43.9,
3946.25,43.9,,,43.9,
3965.5,44.6,,,44.6,
3984.75,45.3,,,45.3,
4004.0,44.9,,,44.9,
4023.25,44.5,,,44.5,
4042.5,43.9,,,43.9,
4061.75,45.4,,,45.4,
4081.0,44.7,,,44.7,
4100.25,45.8,,,45.8,
4119.5,45.5,,,45.5,
4138.75,45.2,,,45.2,
4158.0,44.7,,,44.7,
4177.25,44.9,,,44.9,
4196.5,45.2,,,45.2,
4215.75,44.4,,,44.4,
4235.0,45.4,,,45.4,
4254.25,45.6,,,45.6,
4273.5,45.7,,,45.7,
4292.75,46.0,,,46.0,
4312.0,45.1,,,45.1,
4331.25,45.4,,,45.4,
4350.5,44.5,,,44.5,
4369.75,45.6,,,45.6,
4389.0,46.3,,,46.3,
4408.25,46.4,,,46.4,
4427.5,45.5,,,45.5,
4446.75,47.3,,,47.3,
4466.0,46.3,,,46.3,
4485.25,45.5,,,45.5,
4504.5,44.7,,,44.7,
4523.75,47.0,,,47.0,
4543.0,47.4,,,47.4,
4562.25,47.0,,,47.0,
4581.5,46.8,,,46.8,
4600.75,46.0,,,46.0,
4620.0,45.2,,,45.2,
4639.25,45.1,,,45.1,
4658.5,47.1,,,47.1,
4677.75,45.3,,,45.3,
4697.0,45.0,,,45.0,
4716.25,45.8,,,45.8,
4735.5,45.8,,,45.8,
4754.75,45.0,,,45.0,
4774.0,43.6,,,43.6,
4793.25,43.9,,,43.9,
4812.5,44.8,,,44.8,
4831.75,43.4,,,43.4,
4851.0,44.5,,,44.5,
4870.25,42.6,,,42.6,
4889.5,41.5,,,41.5,
4908.75,41.9,,,41.9,
4928.0,42.3,,,42.3,
4947.25,39.1,,,39.1,
4966.5,40.2,,,40.2,
4985.75,38.9,,,38.9,
5005.0,39.9,,,39.9,
5024.25,39.6,,,39.6,
5043.5,38.3,,,38.3,
5062.75,36.9,,,36.9,
5082.0,36.7,,,36.7,
5101.25,35.9,,,35.9,
5120.5,35.6,,,35.6,
5139.75,32.6,,,32.6,
5159.0,34.0,,,34.0,
5178.25,32.9,,,32.9,
5197.5,31.4,,,31.4,
5216.75,31.7,,,31.7,
5236.0,32.4,,,32.4,
5255.25,31.2,,,31.2,
5274.5,29.5,,,29.5,
5293.75,28.1,,,28.1,
5313.0,26.6,,,26.6,
5332.25,27.6,,,27.6,
5351.5,29.0,,,29.0,
5370.75,28.6,,,28.6,
5390.0,26.0,,,26.0,
5409.25,27.7,,,27.7,
5428.5,26.0,,,26.0,
5447.75,27.0,,,27.0,
5467.0,25.9,,,25.9,
5486.25,25.0,,,25.0,
5505.5,26.2,,,26.2,
5524.75,25.0,,,25.0,
5544.0,25.1,,,25.1,
5563.25,25.0,,,25.0,
5582.5,23.8,,,23.8,
5601.75,24.7,,,24.7,
5621.0,23.7,,,23.7,
5640.25,24.3,,,24.3,
5659.5,23.6,,,23.6,
5678.75,25.3,,,25.3,
5698.0,23.0,,,23.0,
5717.25,22.7,,,22.7,
5736.5,19.9,,,19.9,
5740.75,20.0,,,20.0,

File: Plastic_Laminate_Countertop_HRRPUA_50.csv
Time after Ignition,Plastic_Laminate_Countertop_R2,Plastic_Laminate_Countertop_R3,Plastic_Laminate_Countertop_R1,Mean,Std. Dev.
0.0,33.6,19.0,89.7,47.4,37.4
12.0,20.3,90.4,145.4,85.3,62.7
24.0,150.5,135.6,131.2,139.1,10.1
36.0,135.5,100.1,93.1,109.6,22.7
48.0,80.6,121.2,55.8,85.9,33.0
60.0,55.8,76.1,44.5,58.8,16.0
72.0,40.9,57.6,47.7,48.7,8.4
84.0,38.0,52.8,58.3,49.7,10.5
96.0,39.0,56.1,72.4,55.8,16.7
108.0,49.9,65.6,91.4,69.0,20.9
120.0,70.8,75.4,112.1,86.1,22.7
132.0,88.2,86.5,128.4,101.0,23.7
144.0,102.1,94.3,140.8,112.4,24.9
156.0,116.8,103.2,144.1,121.3,20.8
168.0,118.2,112.1,143.1,124.5,16.4
180.0,122.5,116.8,145.8,128.4,15.4
192.0,123.7,121.7,139.8,128.4,9.9
204.0,124.9,120.7,135.5,127.0,7.6
216.0,123.5,126.7,131.0,127.0,3.8
228.0,122.7,124.2,127.4,124.8,2.4
240.0,116.4,122.7,124.5,121.2,4.2
252.0,116.9,122.3,121.1,120.1,2.8
264.0,115.9,123.2,118.4,119.2,3.7
276.0,112.2,120.7,115.5,116.1,4.2
288.0,113.9,119.4,114.6,116.0,3.0
300.0,109.0,117.5,110.2,112.2,4.6
312.0,106.3,116.1,109.9,110.8,5.0
324.0,103.9,115.1,109.7,109.6,5.6
336.0,102.3,115.3,106.0,107.9,6.7
348.0,98.7,110.9,103.6,104.4,6.1
360.0,98.8,111.0,103.5,104.5,6.1
372.0,96.1,109.8,105.5,103.8,7.0
384.0,98.7,106.1,101.9,102.2,3.7
396.0,96.5,105.3,102.6,101.4,4.5
408.0,94.6,104.2,100.4,99.8,4.8
420.0,93.9,103.7,101.7,99.8,5.2
432.0,92.6,104.3,98.0,98.3,5.9
444.0,91.0,103.3,99.7,98.0,6.3
456.0,89.6,103.6,95.0,96.1,7.0
468.0,90.0,101.8,93.9,95.3,6.0
480.0,89.2,100.1,94.4,94.6,5.4
492.0,85.9,99.3,92.3,92.5,6.7
504.0,84.4,99.0,89.8,91.1,7.4
516.0,81.1,98.8,86.8,88.9,9.1
528.0,80.7,100.0,86.6,89.1,9.9
540.0,77.3,95.5,82.3,85.0,9.4
552.0,76.9,94.4,81.1,84.1,9.2
564.0,75.5,92.8,81.6,83.3,8.8
576.0,74.6,91.3,79.6,81.8,8.6
588.0,72.6,88.6,80.4,80.6,8.0
600.0,71.2,87.0,77.2,78.5,8.0
612.0,68.7,85.8,76.1,76.9,8.5
624.0,68.9,83.6,75.0,75.9,7.4
636.0,68.5,82.0,72.9,74.5,6.9
648.0,67.8,81.4,73.8,74.4,6.8
660.0,65.3,81.4,70.4,72.4,8.3
672.0,63.0,80.0,68.6,70.5,8.7
684.0,64.2,78.0,68.8,70.4,7.0
696.0,62.8,78.0,67.6,69.4,7.8
708.0,61.0,76.2,67.0,68.1,7.7
720.0,60.8,74.8,65.7,67.1,7.1
732.0,59.5,74.5,66.3,66.8,7.5
744.0,60.4,72.1,65.1,65.8,5.9
756.0,57.6,70.5,65.9,64.7,6.5
768.0,59.0,69.8,65.3,64.7,5.4
780.0,59.5,67.2,63.7,63.5,3.9
792.0,56.9,70.5,63.8,63.7,6.8
804.0,57.5,68.6,64.6,63.6,5.6
816.0,57.4,68.0,64.1,63.2,5.4
828.0,54.8,67.7,63.3,61.9,6.5
840.0,54.1,66.6,66.1,62.3,7.0
852.0,54.9,66.5,64.6,62.0,6.2
864.0,54.8,66.3,63.1,61.4,5.9
876.0,53.7,66.5,63.3,61.2,6.6
888.0,52.2,64.1,62.9,59.7,6.6
900.0,52.6,66.2,61.9,60.2,6.9
912.0,54.5,65.7,62.8,61.0,5.8
924.0,51.9,64.5,62.9,59.8,6.8
936.0,51.7,65.3,62.6,59.9,7.2
948.0,48.5,66.2,62.5,59.1,9.3
960.0,49.2,66.8,60.3,58.8,8.9
972.0,49.9,65.2,60.4,58.5,7.9
984.0,50.9,64.1,59.9,58.3,6.7
996.0,50.2,63.1,61.6,58.3,7.0
1008.0,49.4,63.2,61.8,58.1,7.6
1020.0,48.9,64.4,60.4,57.9,8.0
1032.0,49.1,65.0,61.0,58.4,8.3
1044.0,49.3,65.6,62.2,59.0,8.6
1056.0,49.5,65.4,61.3,58.7,8.3
1068.0,49.7,63.8,59.5,57.7,7.2
1080.0,49.1,63.3,60.7,57.7,7.6
1092.0,50.2,63.3,59.6,57.7,6.7
1104.0,52.2,64.2,58.5,58.3,6.0
1116.0,51.1,62.3,59.3,57.6,5.8
1128.0,49.9,63.7,59.6,57.8,7.1
1140.0,49.9,63.0,58.8,57.2,6.7
1152.0,49.8,62.5,58.0,56.8,6.4
1164.0,49.1,63.5,59.6,57.4,7.5
1176.0,48.2,62.6,61.4,57.4,8.0
1188.0,47.8,62.3,59.2,56.4,7.7
1200.0,50.5,61.5,59.5,57.2,5.9
1212.0,51.0,62.4,60.8,58.1,6.2
1224.0,51.1,62.6,60.0,57.9,6.0
1236.0,50.8,63.6,60.8,58.4,6.7
1248.0,50.3,64.5,61.2,58.7,7.4
1260.0,48.7,65.2,60.2,58.0,8.5
1272.0,48.4,65.7,61.8,58.6,9.0
1284.0,49.4,65.6,62.2,59.1,8.6
1296.0,49.0,67.9,64.4,60.4,10.1
1308.0,48.9,64.9,63.9,59.2,8.9
1320.0,51.2,65.6,64.2,60.3,7.9
1332.0,49.2,66.9,65.5,60.5,9.8
1344.0,48.0,67.0,66.7,60.5,10.9
1356.0,51.1,67.0,65.5,61.2,8.8
1368.0,51.3,69.2,65.7,62.0,9.5
1380.0,49.9,68.9,65.0,61.3,10.0
1392.0,49.4,71.1,64.0,61.5,11.1
1404.0,51.5,69.3,64.7,61.8,9.3
1416.0,50.9,71.2,65.5,62.5,10.5
1428.0,48.7,70.8,67.4,62.3,11.9
1440.0,50.1,72.4,64.5,62.3,11.3
1452.0,50.4,70.7,66.4,62.5,10.7
1464.0,49.3,70.7,66.9,62.3,11.4
1476.0,51.4,72.5,65.8,63.2,10.7
1488.0,51.6,72.4,67.1,63.7,10.8
1500.0,52.3,72.8,67.6,64.2,10.6
1512.0,53.2,73.8,67.2,64.7,10.5
1524.0,52.7,74.8,68.9,65.5,11.4
1536.0,53.0,76.8,69.5,66.4,12.2
1548.0,53.0,76.7,67.8,65.8,12.0
1560.0,53.2,78.5,68.5,66.7,12.7
1572.0,53.9,80.9,70.8,68.5,13.6
1584.0,53.7,83.2,71.5,69.5,14.9
1596.0,55.7,81.5,71.8,69.6,13.0
1608.0,55.9,81.6,73.8,70.5,13.2
1620.0,56.3,82.7,71.5,70.2,13.2
1632.0,57.3,85.0,72.9,71.7,13.9
1644.0,57.6,83.5,73.5,71.5,13.1
1656.0,58.7,84.9,76.7,73.4,13.4
1668.0,59.4,85.7,75.2,73.5,13.3
1680.0,59.6,85.4,76.4,73.8,13.1
1692.0,60.2,86.9,78.2,75.1,13.6
1704.0,60.7,86.1,78.3,75.0,13.0
1716.0,61.4,87.0,78.6,75.6,13.1
1728.0,60.4,87.2,82.6,76.7,14.4
1740.0,62.0,88.3,81.4,77.2,13.6
1752.0,63.2,87.9,83.5,78.2,13.1
1764.0,61.8,90.5,83.7,78.7,15.0
1776.0,63.9,90.4,86.2,80.2,14.2
1788.0,65.0,90.7,86.5,80.8,13.8
1800.0,66.9,93.6,87.0,82.5,13.9
1812.0,65.7,95.7,90.9,84.1,16.1
1824.0,67.7,97.6,92.4,85.9,16.0
1836.0,69.9,95.1,92.0,85.7,13.8
1848.0,69.6,96.6,93.2,86.5,14.7
1860.0,71.2,98.9,93.3,87.8,14.6
1872.0,72.3,98.5,93.7,88.2,13.9
1884.0,73.6,98.3,94.9,88.9,13.3
1896.0,74.7,100.6,95.9,90.4,13.8
1908.0,74.3,101.6,95.4,90.5,14.3
1920.0,77.1,100.4,97.5,91.7,12.7
1932.0,75.2,103.4,98.1,92.2,14.9
1944.0,78.3,102.7,96.3,92.4,12.6
1956.0,79.3,104.4,95.4,93.0,12.7
1968.0,81.1,105.0,97.4,94.5,12.2
1980.0,82.7,105.6,96.6,95.0,11.5
1992.0,84.1,110.1,97.7,97.3,13.0
2004.0,84.3,108.6,96.7,96.5,12.1
2016.0,87.0,111.1,94.9,97.7,12.3
2028.0,90.4,110.7,98.4,99.8,10.2
2040.0,91.6,112.0,97.3,100.3,10.5
2052.0,92.1,113.4,97.3,100.9,11.1
2064.0,94.7,115.7,99.1,103.2,11.1
2076.0,96.6,111.8,101.7,103.4,7.7
2088.0,100.1,113.7,100.9,104.9,7.7
2100.0,101.9,112.8,100.5,105.1,6.7
2112.0,104.2,111.4,100.9,105.5,5.4
2124.0,106.6,112.7,99.5,106.3,6.6
2136.0,107.3,112.9,98.0,106.1,7.5
2148.0,110.4,111.2,98.2,106.6,7.3
2160.0,110.5,112.8,96.7,106.7,8.7
2172.0,112.7,115.6,98.3,108.9,9.2
2184.0,116.6,118.7,96.3,110.5,12.4
2196.0,120.4,114.1,95.3,109.9,13.0
2208.0,118.4,116.5,92.2,109.0,14.6
2220.0,115.8,116.7,90.4,107.6,14.9
2232.0,120.0,118.4,89.2,109.2,17.3
2244.0,120.9,117.5,89.6,109.4,17.2
2256.0,121.4,122.1,90.0,111.2,18.3
2268.0,121.7,120.0,87.1,109.6,19.5
2280.0,121.6,121.6,86.4,109.9,20.3
2292.0,124.7,122.6,84.1,110.5,22.9
2304.0,124.9,122.6,83.5,110.3,23.3
2316.0,125.5,124.0,86.1,111.9,22.3
2328.0,122.1,123.7,85.1,110.3,21.8
2340.0,120.3,125.2,83.3,109.6,22.9
2352.0,117.2,120.2,83.0,106.8,20.7
2364.0,115.0,125.3,84.6,108.3,21.2
2376.0,112.8,126.4,82.5,107.3,22.5
2388.0,111.9,126.8,82.1,106.9,22.8
2400.0,112.1,125.9,82.1,106.7,22.4
2412.0,110.7,126.0,82.3,106.3,22.2
2424.0,105.8,123.9,81.7,103.8,21.2
2436.0,102.1,124.1,83.6,103.3,20.2
2448.0,104.5,123.9,83.6,104.0,20.2
2460.0,102.2,124.1,84.4,103.6,19.8
2472.0,96.8,124.1,84.7,101.9,20.1
2484.0,95.7,123.0,83.9,100.9,20.0
2496.0,95.8,124.6,83.6,101.3,21.0
2508.0,94.1,125.9,82.3,100.8,22.6
2520.0,92.1,123.3,84.9,100.1,20.4
2532.0,94.0,121.9,83.5,99.8,19.8
2544.0,94.3,122.4,85.8,100.8,19.1
2556.0,91.5,120.9,85.7,99.4,18.8
2568.0,91.6,119.7,86.9,99.4,17.7
2580.0,87.8,121.1,87.5,98.8,19.3
2592.0,88.7,119.6,88.6,99.0,17.9
2604.0,87.7,118.6,90.2,98.9,17.2
2616.0,87.5,118.6,89.7,98.6,17.3
2628.0,89.7,119.0,91.7,100.1,16.3
2640.0,89.0,118.7,93.6,100.4,15.9
2652.0,86.8,117.9,94.2,99.7,16.3
2664.0,87.3,114.6,92.9,98.2,14.4
2676.0,86.3,114.4,95.3,98.7,14.3
2688.0,87.6,114.0,96.9,99.5,13.4
2700.0,88.6,114.1,97.9,100.2,12.9
2712.0,89.1,115.3,101.0,101.8,13.1
2724.0,87.3,111.1,103.7,100.7,12.2
2736.0,87.7,112.4,104.3,101.5,12.6
2748.0,89.2,110.9,106.3,102.2,11.4
2760.0,92.3,108.9,111.5,104.2,10.5
2772.0,91.4,107.0,112.4,103.6,10.9
2784.0,91.0,107.6,115.9,104.8,12.7
2796.0,91.0,107.1,119.8,106.0,14.4
2808.0,92.0,107.5,124.6,108.0,16.3
2820.0,92.9,108.5,130.0,110.5,18.6
2832.0,96.0,106.5,136.1,112.9,20.8
2844.0,97.5,105.0,141.0,114.5,23.3
2856.0,96.1,104.2,142.0,114.1,24.5
2868.0,97.1,100.1,150.9,116.0,30.2
2880.0,98.2,96.9,158.4,117.8,35.1
2892.0,100.2,91.7,165.7,119.2,40.5
2904.0,100.7,84.6,170.2,118.5,45.5
2916.0,101.7,72.4,176.9,117.0,53.9
2928.0,103.7,63.5,167.7,111.6,52.5
2940.0,107.9,57.8,140.3,102.0,41.5
2952.0,110.0,54.3,109.7,91.3,32.0
2964.0,110.7,51.5,91.6,84.6,30.2
2976.0,114.0,48.6,78.4,80.3,32.7
2988.0,114.4,47.5,68.4,76.7,34.2
3000.0,120.1,47.1,58.8,75.4,39.2
3012.0,119.8,48.5,52.3,73.5,40.1
3024.0,123.7,50.5,47.7,74.0,43.1
3036.0,123.0,46.0,43.3,70.8,45.3
3048.0,127.0,42.6,39.8,69.8,49.6
3060.0,127.2,43.5,36.0,68.9,50.6
3072.0,128.7,43.0,35.0,68.9,51.9
3084.0,130.5,42.4,35.0,69.3,53.1
3096.0,133.5,39.9,33.8,69.1,55.9
3108.0,136.7,39.9,33.2,69.9,57.9
3120.0,139.2,40.6,32.6,70.8,59.4
3132.0,138.6,38.9,32.8,70.1,59.4
3144.0,142.3,37.7,34.1,71.4,61.5
3156.0,141.5,38.4,32.1,70.7,61.4
3168.0,147.0,37.7,31.3,72.0,65.0
3180.0,149.9,35.4,30.8,72.0,67.5
3192.0,154.7,35.9,31.3,74.0,70.0
3204.0,160.3,36.5,30.2,75.7,73.4
3216.0,162.7,35.5,30.7,76.3,74.8
3228.0,160.8,35.3,30.4,75.5,73.9
3240.0,155.7,34.9,29.7,73.4,71.3
3252.0,141.6,33.5,30.7,68.6,63.2
3264.0,114.0,33.3,28.5,58.6,48.0
3276.0,93.6,33.5,28.8,52.0,36.1
3288.0,85.1,34.4,30.4,50.0,30.5
3300.0,76.7,34.4,30.3,47.1,25.7
3312.0,68.8,33.0,29.6,43.8,21.7
3324.0,64.6,32.5,29.2,42.1,19.5
3336.0,60.4,33.4,28.9,40.9,17.1
3348.0,57.5,32.8,28.3,39.5,15.7
3360.0,55.4,31.9,28.9,38.7,14.5
3372.0,53.1,31.1,29.5,37.9,13.2
3384.0,50.4,31.3,29.1,37.0,11.7
3396.0,49.5,32.4,29.1,37.0,11.0
3408.0,50.2,32.3,28.5,37.0,11.6
3420.0,50.7,31.8,28.5,37.0,12.0
3432.0,48.5,33.4,27.9,36.6,10.6
3444.0,47.8,34.2,26.9,36.3,10.6
3456.0,47.7,32.6,25.9,35.4,11.2
3468.0,46.7,30.4,26.4,34.5,10.7
3480.0,46.4,30.7,25.6,34.2,10.9
3492.0,46.1,33.6,25.8,35.2,10.2
3504.0,45.7,32.6,26.1,34.8,10.0
3516.0,46.3,33.9,27.8,36.0,9.4
3528.0,47.7,32.1,27.2,35.6,10.7
3540.0,45.8,30.3,24.8,33.7,10.9
3552.0,44.8,29.8,26.0,33.5,10.0
3564.0,45.7,29.6,26.2,33.8,10.4
3576.0,42.4,29.4,25.9,32.6,8.7
3579.75,41.7,29.3,27.0,32.7,7.9