Folder: fsri_materials_database/01_Data/Vinyl_Siding/Cone

Note: README.md
# Materials and Products Database
### Repository of materials and products properties and fire test data to improve fire modeling and fire investigation.

This project was supported in part by Award No. 2019-DU-BX-0018, awarded by the National Institute of Justice, Office of Justice Programs, U.S. Department of Justice. The opinions, findings, and conclusions or recommendations expressed in this publication / program / exhibition are those of the author(s) and do not necessarily reflect those of the Department of Justice.

***
***

__Cite this database:__ "McKinnon, M., Weinschenk, C., Dow, N., DiDomizio, M., and Madrzykowski, D. Materials and Products Database (Version 1.0.0), Fire Safety Research Institute, UL Research Institutes. Columbia, MD 21045, 2023."

__Cite the Technical Reference Guide:__ "McKinnon, M., Weinschenk, C., and Madrzykowski, D. Materials and Products Database - Technical Reference Guide, Fire Safety Research Institute, UL Research Institutes. Columbia, MD 21045, 2023."

__Cite the User Guide:__ "McKinnon, M., and Weinschenk, C. Materials and Products Database - User Guide, Fire Safety Research Institute, UL Research Institutes. Columbia, MD 21045, 2023."

***
***

## Database Structure

## 01_Data/
Raw data generated from each apparatus are included here in plain-text format. The data is organized first by material, next by the short name of test apparatus used, and where applicable additional filtering by test settings.

### Test Apparatus and Data File Structure
- __Cone Calorimeter__ (Cone)
    + Data file structure includes the material, the short name for the apparatus, heat flux setting and scan/scalar, date of test, and replicate number. Scan is for the raw output data and scalar is for the initial conditions and high-level test parameters. 
        * Example: __MDF_Cone_HF25scalar_210323_R1__ stands for the first replicate of scalar data generated from a medium density fiber board test in cone calorimeter exposed to 25 kW/m<sup>2</sup> on March 23, 2021.
    + A _Cone_Notes.csv_ is generated for each material from the __plot_Cone_data.py__ script. For materials whose experiments deviated from typical behavior relevant pictures are included in the respective material directory.
- __Fourier Transform Infrared Spectrometer__ (FTIR)
    + The FTIR directory contains subdirectories for the Attenuated Total Reflectance method (ATR) and the Integrating Sphere (IS)
    + Data file structure for the ATR experiment files includes the material, the abbreviated name for the apparatus, date of test, and replicate number. 
        * Example: __MDF_ATR_210323_R5__ stands for the fifth replicate of data collected with the ATR accessory conducted on June 8, 2021.
    + Data file structure for the IS experiment files includes the material, the abbreviated name for the apparatus, the measurand, whether the test is a sample measurement or standard reference, date of test, and replicate number.
        * Example: __OSB_IS_REFLECT_MEAS_2

File: Vinyl_Siding_HRRPUA_25.csv
Time after Ignition,Vinyl_Siding_R1,Vinyl_Siding_R2,Vinyl_Siding_R3,Mean,Std. Dev.
0.0,13.9,10.0,21.8,15.2,6.0
0.5,15.4,13.9,34.5,21.3,11.5
1.0,16.9,18.9,44.5,26.8,15.4
1.5,17.7,25.2,56.3,33.1,20.5
2.0,20.3,30.1,70.0,40.2,26.3
2.5,22.5,38.5,80.7,47.2,30.1
3.0,26.7,45.6,98.0,56.8,36.9
3.5,30.3,50.6,111.4,64.1,42.2
4.0,32.5,61.4,128.5,74.1,49.2
4.5,40.5,67.9,141.1,83.2,52.0
5.0,42.5,82.8,155.4,93.6,57.2
5.5,49.0,92.6,169.9,103.8,61.2
6.0,54.8,107.0,183.1,115.0,64.5
6.5,60.9,122.0,195.9,126.3,67.6
7.0,67.6,131.5,202.5,133.9,67.5
7.5,74.2,142.4,209.4,142.0,67.6
8.0,84.0,150.2,215.6,150.0,65.8
8.5,90.2,158.7,223.9,157.6,66.8
9.0,93.2,169.5,227.2,163.3,67.2
9.5,98.5,171.8,225.3,165.2,63.7
10.0,106.4,176.5,234.4,172.4,64.1
10.5,112.4,182.0,231.8,175.4,60.0
11.0,119.4,184.8,233.5,179.2,57.3
11.5,121.4,187.3,231.5,180.1,55.4
12.0,129.5,187.6,231.4,182.8,51.1
12.5,134.6,186.9,226.9,182.8,46.3
13.0,136.0,190.0,228.3,184.8,46.4
13.5,140.8,194.6,223.8,186.4,42.1
14.0,142.8,192.7,217.8,184.5,38.2
14.5,147.2,189.8,211.9,183.0,32.9
15.0,148.6,194.2,210.2,184.4,31.9
15.5,148.5,189.1,203.5,180.3,28.5
16.0,150.0,186.6,201.2,179.3,26.4
16.5,150.9,182.7,195.5,176.4,23.0
17.0,150.9,181.7,194.3,175.6,22.3
17.5,150.2,179.4,188.9,172.8,20.2
18.0,148.3,179.2,185.1,170.9,19.8
18.5,148.7,174.9,181.5,168.4,17.3
19.0,149.1,173.7,176.4,166.4,15.1
19.5,148.7,169.6,170.6,163.0,12.4
20.0,148.4,165.8,166.0,160.0,10.1
20.5,147.2,162.4,160.4,156.7,8.3
21.0,143.8,160.4,155.6,153.3,8.6
21.5,144.6,159.3,150.0,151.3,7.4
22.0,143.4,155.4,146.3,148.4,6.3
22.5,142.5,155.1,142.5,146.7,7.3
23.0,142.9,156.0,138.5,145.8,9.1
23.5,142.9,150.5,134.9,142.8,7.8
24.0,139.1,149.6,133.3,140.7,8.3
24.5,140.3,148.1,129.3,139.2,9.4
25.0,137.5,146.5,126.3,136.8,10.1
25.5,140.3,143.1,125.1,136.2,9.7
26.0,136.2,145.2,119.2,133.5,13.2
26.5,133.1,143.6,118.9,131.9,12.4
27.0,131.1,139.4,115.9,128.8,11.9
27.5,131.6,140.3,112.2,128.0,14.4
28.0,131.5,135.4,111.3,126.1,12.9
28.5,132.2,135.0,109.4,125.5,14.1
29.0,131.8,132.5,105.7,123.3,15.3
29.5,129.0,128.8,104.3,120.7,14.2
30.0,129.8,128.1,102.9,120.3,15.1
30.5,128.3,125.4,101.5,118.4,14.7
31.0,127.0,121.6,99.2,115.9,14.7
31.5,126.0,116.9,97.3,113.4,14.7
32.0,126.5,115.8,95.7,112.6,15.6
32.5,122.6,114.5,90.8,109.3,16.5
33.0,124.3,112.1,88.7,108.4,18.1
33.5,121.2,111.2,84.5,105.6,19.0
34.0,121.7,108.9,83.7,104.8,19.4
34.5,122.4,105.5,79.8,102.6,21.5
35.0,119.7,102.2,76.8,99.5,21.6
35.5,118.7,98.4,73.4,96.8,22.7
36.0,118.2,97.5,70.7,95.5,23.8
36.5,118.8,92.3,67.9,93.0,25.4
37.0,118.3,89.7,65.9,91.3,26.3
37.5,118.3,85.6,62.9,88.9,27.8
38.0,118.0,83.8,60.6,87.5,28.9
38.5,116.5,79.5,58.9,85.0,29.2
39.0,118.9,77.4,57.4,84.5,31.4
39.5,117.8,73.2,54.6,81.9,32.5
40.0,117.2,70.7,51.9,79.9,33.6
40.5,118.2,67.2,50.1,78.5,35.4
41.0,118.8,66.2,47.7,77.6,36.9
41.5,119.4,61.9,46.0,75.8,38.6
42.0,118.9,59.2,43.8,74.0,39.7
42.5,119.8,56.1,41.4,72.4,41.6
43.0,120.4,54.0,40.4,71.6,42.8
43.5,119.3,50.9,38.6,69.6,43.5
44.0,120.1,48.7,37.8,68.8,44.7
44.5,122.6,46.2,35.6,68.1,47.4
45.0,121.8,45.5,34.6,67.3,47.5
45.5,122.6,42.4,32.7,65.9,49.3
46.0,121.6,41.2,31.0,64.6,49.6
46.5,122.0,38.8,29.9,63.6,50.8
47.0,123.3,37.4,28.5,63.1,52.4
47.5,123.3,34.6,26.6,61.5,53.6
48.0,124.7,33.5,25.0,61.1,55.3
48.5,123.1,31.1,24.0,59.4,55.3
49.0,123.7,29.8,22.6,58.7,56.4
49.5,121.6,27.9,21.3,56.9,56.1
50.0,118.9,25.9,19.9,54.9,55.5
50.5,118.6,24.3,19.2,54.0,56.0
51.0,118.2,23.0,18.1,53.1,56.4
51.5,117.3,21.5,17.2,52.0,56.6
52.0,117.1,19.4,16.2,50.9,57.4
52.5,115.4,18.5,15.7,49.9,56.8
53.0,112.7,16.9,14.7,48.1,55.9
53.5,111.0,16.0,14.4,47.1,55.3
54.0,111.5,15.0,,63.2,68.2
54.5,106.8,13.9,,60.3,65.6
55.0,105.1,13.3,,59.2,64.9
55.5,100.2,12.4,,56.3,62.1
56.0,95.2,11.7,,53.5,59.1
56.5,93.6,11.0,,52.3,58.4
57.0,89.7,10.1,,49.9,56.2
57.5,88.1,9.6,,48.9,55.5
58.0,86.2,9.4,,47.8,54.3
58.5,83.1,9.5,,46.3,52.1
59.0,80.4,9.3,,44.9,50.3
59.5,78.6,9.3,,44.0,49.0
60.0,76.4,,,76.4,
60.5,74.3,,,74.3,
61.0,72.4,,,72.4,
61.5,69.2,,,69.2,
62.0,67.8,,,67.8,
62.5,64.9,,,64.9,
63.0,62.6,,,62.6,
63.5,59.9,,,59.9,
64.0,59.2,,,59.2,
64.5,56.1,,,56.1,
65.0,54.7,,,54.7,
65.5,52.3,,,52.3,
66.0,50.4,,,50.4,
66.5,49.0,,,49.0,
67.0,47.5,,,47.5,
67.5,45.2,,,45.2,
68.0,43.1,,,43.1,
68.5,41.1,,,41.1,
69.0,39.2,,,39.2,
69.5,37.3,,,37.3,
70.0,36.3,,,36.3,
70.5,34.3,,,34.3,
71.0,32.7,,,32.7,
71.5,31.8,,,31.8,
72.0,31.0,,,31.0,
72.5,29.7,,,29.7,
73.0,29.1,,,29.1,
73.5,28.2,,,28.2,
74.0,27.3,,,27.3,
74.5,26.5,,,26.5,
75.0,26.0,,,26.0,
75.5,25.4,,,25.4,
76.0,24.8,,,24.8,
76.5,24.2,,,24.2,
77.0,23.6,,,23.6,
77.5,23.2,,,23.2,
78.0,22.5,,,22.5,
78.5,21.6,,,21.6,
79.0,20.5,,,20.5,
79.5,20.2,,,20.2,
80.0,19.9,,,19.9,
80.5,19.0,,,19.0,
81.0,18.6,,,18.6,
81.5,18.2,,,18.2,
82.0,17.4,,,17.4,
82.5,16.7,,,16.7,
83.0,16.0,,,16.0,
83.5,15.5,,,15.5,
83.75,15.2,,,15.2,

File: Vinyl_Siding_HRRPUA_50.csv
Time after Ignition,Vinyl_Siding_R1,Vinyl_Siding_R2,Vinyl_Siding_R3,Mean,Std. Dev.
0.0,88.1,67.5,41.2,65.6,23.5
0.5,97.4,81.7,52.7,77.3,22.7
1.0,106.1,88.8,66.5,87.2,19.9
1.5,114.3,98.8,83.9,99.0,15.2
2.0,125.9,114.3,98.6,113.0,13.7
2.5,137.8,126.8,114.8,126.4,11.5
3.0,150.8,137.9,126.1,138.2,12.4
3.5,160.0,150.6,142.5,151.0,8.8
4.0,170.7,161.1,152.7,161.5,9.0
4.5,181.1,169.8,162.8,171.2,9.3
5.0,190.2,178.5,169.6,179.4,10.4
5.5,197.9,183.4,182.8,188.0,8.5
6.0,206.0,194.8,187.3,196.0,9.4
6.5,215.8,192.3,196.8,201.6,12.5
7.0,215.2,200.3,198.0,204.5,9.3
7.5,223.5,206.7,202.7,210.9,11.1
8.0,224.2,207.1,204.7,212.0,10.7
8.5,224.7,215.7,209.7,216.7,7.5
9.0,232.6,222.9,216.3,223.9,8.2
9.5,235.3,225.5,216.3,225.7,9.5
10.0,235.9,234.6,212.2,227.6,13.3
10.5,237.2,240.5,212.1,229.9,15.5
11.0,238.1,243.8,210.0,230.6,18.1
11.5,241.2,249.5,213.3,234.7,19.0
12.0,239.7,258.8,213.0,237.2,23.0
12.5,238.3,254.9,214.5,235.9,20.3
13.0,239.2,263.0,214.6,238.9,24.2
13.5,234.3,262.0,208.9,235.1,26.6
14.0,231.5,269.4,207.1,236.0,31.4
14.5,227.6,270.9,205.9,234.8,33.1
15.0,232.2,269.0,203.7,235.0,32.7
15.5,232.1,270.8,203.3,235.4,33.9
16.0,229.4,272.2,203.2,235.0,34.8
16.5,225.2,269.3,195.3,229.9,37.2
17.0,218.0,270.9,194.8,227.9,39.0
17.5,221.1,264.6,190.5,225.4,37.3
18.0,214.5,263.8,188.3,222.2,38.4
18.5,210.8,262.0,187.5,220.1,38.1
19.0,204.3,257.2,178.3,213.3,40.2
19.5,201.4,252.9,181.2,211.8,37.0
20.0,194.1,248.7,178.6,207.1,36.8
20.5,198.3,247.4,172.9,206.2,37.9
21.0,192.2,240.8,171.2,201.4,35.7
21.5,189.7,235.5,164.2,196.5,36.1
22.0,186.2,230.1,163.5,193.3,33.9
22.5,180.1,230.1,161.9,190.7,35.3
23.0,179.7,220.9,157.3,185.9,32.3
23.5,177.2,219.0,154.4,183.6,32.8
24.0,175.0,213.0,149.3,179.1,32.1
24.5,169.7,211.7,146.5,176.0,33.0
25.0,164.4,202.3,143.3,170.0,29.9
25.5,165.9,196.3,140.0,167.4,28.2
26.0,163.2,195.3,137.9,165.5,28.8
26.5,161.2,186.6,134.6,160.8,26.0
27.0,155.6,186.9,132.4,158.3,27.4
27.5,156.2,179.7,127.4,154.4,26.2
28.0,152.0,174.2,124.9,150.4,24.7
28.5,151.5,171.5,122.2,148.4,24.8
29.0,146.8,166.8,121.4,145.0,22.8
29.5,145.8,164.4,119.2,143.1,22.7
30.0,145.2,162.1,114.5,140.6,24.1
30.5,141.3,156.0,112.0,136.4,22.4
31.0,140.0,154.3,112.6,135.6,21.2
31.5,138.5,149.0,108.7,132.1,20.9
32.0,135.9,148.3,107.9,130.7,20.7
32.5,135.6,146.0,105.9,129.1,20.8
33.0,134.4,142.9,107.1,128.1,18.7
33.5,134.4,138.6,103.6,125.6,19.1
34.0,130.2,136.2,102.4,122.9,18.1
34.5,127.6,134.9,102.4,121.6,17.0
35.0,124.3,133.2,100.3,119.3,17.0
35.5,126.1,129.9,99.9,118.6,16.3
36.0,123.3,128.7,97.4,116.5,16.7
36.5,120.9,126.9,97.0,114.9,15.8
37.0,121.0,122.4,95.6,113.0,15.1
37.5,117.9,122.1,95.2,111.7,14.5
38.0,117.4,121.8,94.0,111.1,15.0
38.5,116.1,119.7,92.2,109.3,14.9
39.0,113.5,118.5,92.9,108.3,13.6
39.5,112.1,116.0,91.3,106.5,13.3
40.0,110.5,111.7,92.3,104.8,10.9
40.5,108.5,112.2,90.2,103.6,11.8
41.0,106.8,109.2,89.7,101.9,10.6
41.5,107.5,108.8,89.0,101.8,11.1
42.0,105.9,107.8,88.6,100.8,10.5
42.5,104.6,109.6,87.4,100.5,11.6
43.0,101.9,104.5,89.0,98.5,8.3
43.5,101.5,105.2,86.7,97.8,9.8
44.0,99.3,104.2,88.0,97.1,8.3
44.5,100.5,102.2,85.9,96.2,9.0
45.0,97.5,103.8,86.1,95.8,8.9
45.5,97.1,103.5,85.5,95.3,9.1
46.0,96.6,100.9,86.3,94.6,7.5
46.5,95.7,101.4,83.5,93.5,9.1
47.0,96.0,99.6,84.5,93.3,7.9
47.5,92.9,99.4,86.1,92.8,6.6
48.0,92.3,99.2,85.1,92.2,7.0
48.5,92.0,98.3,85.4,91.9,6.5
49.0,93.3,98.0,86.3,92.5,5.9
49.5,92.1,95.9,85.3,91.1,5.4
50.0,89.9,96.2,84.3,90.1,5.9
50.5,89.1,95.7,84.9,89.9,5.5
51.0,89.8,95.1,85.0,90.0,5.1
51.5,89.8,96.3,84.0,90.0,6.1
52.0,87.8,93.3,84.0,88.4,4.6
52.5,88.0,92.9,85.0,88.6,4.0
53.0,87.6,92.2,84.1,88.0,4.0
53.5,86.5,90.0,85.2,87.2,2.5
54.0,86.1,89.3,83.8,86.4,2.8
54.5,84.6,87.7,82.6,85.0,2.6
55.0,85.6,85.8,82.9,84.8,1.6
55.5,85.5,85.4,82.4,84.4,1.8
56.0,84.0,84.4,82.2,83.6,1.2
56.5,82.8,82.9,81.6,82.4,0.7
57.0,83.4,82.3,81.5,82.4,0.9
57.5,82.0,81.7,81.4,81.7,0.3
58.0,81.3,81.6,81.4,81.4,0.2
58.5,81.1,81.6,80.9,81.2,0.4
59.0,79.8,78.9,78.9,79.2,0.5
59.5,79.6,78.9,79.8,79.5,0.5
60.0,77.8,77.3,78.9,78.0,0.8
60.5,77.7,77.0,79.4,78.0,1.2
61.0,75.8,75.7,78.3,76.6,1.5
61.5,76.4,74.0,76.2,75.6,1.4
62.0,75.1,74.0,76.6,75.2,1.3
62.5,73.6,72.3,74.6,73.5,1.2
63.0,74.3,72.2,74.1,73.5,1.2
63.5,73.4,72.2,74.4,73.3,1.1
64.0,73.3,71.6,73.3,72.7,1.0
64.5,74.9,71.2,72.5,72.9,1.9
65.0,72.9,69.9,70.8,71.2,1.5
65.5,72.7,70.3,71.0,71.3,1.2
66.0,72.9,69.8,69.1,70.6,2.0
66.5,72.7,68.5,67.4,69.6,2.8
67.0,71.7,69.3,66.4,69.2,2.7
67.5,72.1,68.6,66.0,68.9,3.0
68.0,72.6,68.3,65.0,68.6,3.8
68.5,71.4,68.4,64.5,68.1,3.5
69.0,70.3,67.1,62.0,66.5,4.2
69.5,70.7,66.9,62.7,66.8,4.0
70.0,71.6,66.0,60.6,66.1,5.5
70.5,69.9,64.5,58.1,64.2,5.9
71.0,70.1,65.5,57.9,64.5,6.2
71.5,69.1,64.1,56.3,63.2,6.5
72.0,69.3,63.7,55.4,62.8,7.0
72.5,68.7,63.6,54.2,62.1,7.4
73.0,68.7,62.4,53.7,61.6,7.5
73.5,67.5,61.0,52.6,60.4,7.5
74.0,68.5,61.0,51.4,60.3,8.6
74.5,69.0,60.0,50.0,59.7,9.5
75.0,68.3,58.9,48.4,58.6,9.9
75.5,68.2,58.1,48.6,58.3,9.8
76.0,68.5,56.6,48.2,57.8,10.2
76.5,67.9,55.8,48.4,57.4,9.8
77.0,69.1,55.2,47.7,57.3,10.8
77.5,68.6,54.0,47.7,56.8,10.7
78.0,68.8,52.9,47.6,56.4,11.0
78.5,69.0,51.7,47.0,55.9,11.6
79.0,69.4,50.1,47.2,55.6,12.1
79.5,68.2,49.4,46.7,54.8,11.7
80.0,69.0,48.2,45.8,54.3,12.7
80.5,69.2,47.6,44.6,53.8,13.4
81.0,68.3,45.9,44.0,52.7,13.5
81.5,68.2,45.6,43.3,52.4,13.8
82.0,67.3,44.1,42.7,51.3,13.8
82.5,66.6,42.9,40.9,50.1,14.3
83.0,66.1,42.7,40.3,49.7,14.3
83.5,66.8,41.0,39.8,49.2,15.3
84.0,65.9,40.3,38.1,48.1,15.4
84.5,64.7,39.7,37.3,47.2,15.2
85.0,64.0,38.5,35.7,46.0,15.6
85.5,62.5,37.7,34.7,45.0,15.3
86.0,61.9,38.0,33.6,44.5,15.2
86.5,60.3,37.2,32.6,43.4,14.8
87.0,59.6,36.0,31.6,42.4,15.1
87.5,59.3,34.7,30.7,41.6,15.5
88.0,58.0,34.9,29.8,40.9,15.0
88.5,56.8,34.1,29.1,40.0,14.8
89.0,55.8,32.8,28.6,39.1,14.6
89.5,55.1,32.2,27.7,38.3,14.7
90.0,54.8,31.5,27.1,37.8,14.9
90.5,52.8,30.7,26.6,36.7,14.1
91.0,52.6,30.5,25.7,36.2,14.3
91.5,51.7,30.3,24.9,35.7,14.2
92.0,50.9,29.8,24.8,35.2,13.9
92.5,50.4,29.9,24.0,34.8,13.9
93.0,50.0,29.2,23.0,34.1,14.1
93.5,49.3,29.3,22.5,33.7,13.9
94.0,49.0,28.6,22.0,33.2,14.1
94.5,47.5,28.7,21.4,32.5,13.5
95.0,47.2,28.3,21.1,32.2,13.5
95.5,47.0,27.9,21.1,32.0,13.4
96.0,45.5,27.5,20.8,31.2,12.8
96.5,44.6,26.8,20.7,30.7,12.4
97.0,44.6,27.6,20.5,30.9,12.4
97.5,43.7,26.9,20.2,30.3,12.1
98.0,42.4,26.9,19.8,29.7,11.6
98.5,42.1,26.7,,34.4,10.9
99.0,41.4,26.6,,34.0,10.4
99.5,40.9,26.3,,33.6,10.3
100.0,40.2,26.6,,33.4,9.6
100.5,40.2,26.5,,33.4,9.7
101.0,38.4,26.2,,32.3,8.6
101.5,37.9,26.1,,32.0,8.3
102.0,37.1,26.0,,31.6,7.9
102.5,36.0,25.8,,30.9,7.2
103.0,35.6,25.9,,30.7,6.8
103.5,34.5,,,34.5,
104.0,34.0,,,34.0,
104.5,33.3,,,33.3,
105.0,33.1,,,33.1,
105.5,33.1,,,33.1,
106.0,32.1,,,32.1,
106.5,31.8,,,31.8,
107.0,31.7,,,31.7,
107.5,31.1,,,31.1,
108.0,30.8,,,30.8,
108.5,30.9,,,30.9,
109.0,30.1,,,30.1,
109.5,29.8,,,29.8,
110.0,29.4,,,29.4,
110.5,29.3,,,29.3,
111.0,29.2,,,29.2,
111.5,28.9,,,28.9,
112.0,29.1,,,29.1,
112.5,28.3,,,28.3,
113.0,28.5,,,28.5,
113.5,27.6,,,27.6,
114.0,28.0,,,28.0,

File: Vinyl_Siding_HRRPUA_75.csv
Time after Ignition,Vinyl_Siding_R1,Vinyl_Siding_R2,Vinyl_Siding_R3,Mean,Std. Dev.
0.0,95.7,118.7,103.9,106.1,11.7
0.5,113.5,145.1,136.6,131.7,16.3
1.0,146.0,173.7,167.3,162.3,14.5
1.5,173.6,194.8,196.9,188.4,12.9
2.0,203.5,214.6,222.8,213.6,9.7
2.5,220.7,227.7,244.7,231.0,12.3
3.0,240.7,240.9,259.4,247.0,10.7
3.5,258.8,253.7,276.5,263.0,11.9
4.0,270.1,263.5,282.3,272.0,9.5
4.5,279.5,272.8,303.0,285.1,15.8
5.0,279.3,276.2,304.6,286.7,15.6
5.5,294.5,276.4,307.6,292.8,15.7
6.0,299.5,277.1,314.2,296.9,18.7
6.5,298.3,272.8,315.4,295.5,21.5
7.0,305.3,269.3,311.9,295.5,23.0
7.5,303.5,263.4,312.7,293.2,26.2
8.0,300.9,264.6,310.1,291.9,24.1
8.5,296.6,256.5,302.6,285.2,25.1
9.0,291.5,250.3,308.3,283.3,29.8
9.5,281.3,247.3,304.5,277.7,28.8
10.0,275.6,241.6,295.6,270.9,27.3
10.5,265.7,236.9,306.1,269.6,34.8
11.0,261.2,233.1,296.3,263.5,31.7
11.5,254.0,227.7,293.1,258.2,32.9
12.0,242.8,223.6,290.5,252.3,34.4
12.5,243.5,212.6,283.5,246.5,35.5
13.0,235.8,214.9,284.0,244.9,35.5
13.5,232.2,207.6,278.0,239.3,35.7
14.0,225.0,202.9,273.2,233.7,36.0
14.5,223.3,197.9,269.1,230.1,36.1
15.0,216.5,197.3,266.0,226.6,35.5
15.5,212.0,191.5,259.9,221.1,35.1
16.0,207.5,192.2,262.6,220.8,37.1
16.5,202.8,186.6,259.1,216.2,38.1
17.0,205.1,182.7,249.4,212.4,34.0
17.5,198.7,182.3,249.7,210.2,35.1
18.0,199.5,178.2,245.2,207.6,34.2
18.5,196.5,177.2,243.2,205.7,33.9
19.0,189.8,174.7,244.0,202.8,36.5
19.5,187.9,170.2,236.7,198.3,34.4
20.0,186.1,171.1,232.8,196.7,32.2
20.5,186.0,169.6,231.1,195.6,31.8
21.0,187.3,168.2,225.2,193.6,29.0
21.5,186.0,167.6,221.5,191.7,27.4
22.0,183.3,167.3,214.6,188.4,24.0
22.5,182.5,165.3,215.5,187.8,25.5
23.0,181.2,164.6,208.8,184.9,22.3
23.5,179.6,163.5,207.7,183.6,22.4
24.0,180.5,161.8,203.5,182.0,20.9
24.5,176.6,160.6,200.1,179.1,19.9
25.0,175.8,156.5,196.7,176.3,20.1
25.5,175.0,159.4,189.7,174.7,15.2
26.0,172.8,152.3,191.8,172.3,19.7
26.5,175.0,152.9,185.7,171.2,16.8
27.0,172.0,149.0,180.7,167.2,16.4
27.5,171.1,149.7,180.5,167.1,15.8
28.0,169.3,148.2,176.3,164.6,14.6
28.5,168.9,144.2,174.9,162.7,16.3
29.0,167.4,143.8,172.5,161.2,15.3
29.5,164.3,139.9,168.7,157.6,15.5
30.0,166.3,139.5,167.0,157.6,15.7
30.5,162.0,136.4,164.3,154.2,15.5
31.0,159.6,135.5,165.3,153.4,15.8
31.5,160.4,134.1,161.4,152.0,15.5
32.0,159.8,130.9,160.7,150.4,17.0
32.5,158.9,129.7,159.4,149.3,17.0
33.0,156.4,130.2,159.8,148.8,16.2
33.5,154.5,127.2,155.1,145.6,16.0
34.0,154.6,127.5,155.3,145.8,15.8
34.5,152.4,125.0,152.4,143.3,15.8
35.0,151.0,124.0,153.1,142.7,16.2
35.5,150.4,122.7,149.4,140.8,15.7
36.0,149.1,121.4,151.8,140.8,16.8
36.5,152.5,119.2,149.8,140.5,18.5
37.0,150.5,121.3,147.7,139.8,16.1
37.5,148.0,119.7,145.0,137.6,15.6
38.0,146.2,119.6,144.2,136.7,14.8
38.5,144.8,116.6,140.2,133.9,15.1
39.0,143.5,115.1,140.2,132.9,15.5
39.5,140.8,114.1,140.5,131.8,15.3
40.0,138.6,113.9,138.0,130.1,14.1
40.5,136.2,110.6,134.3,127.0,14.3
41.0,136.3,112.4,136.2,128.3,13.8
41.5,134.2,111.3,133.2,126.2,12.9
42.0,133.6,112.1,131.9,125.9,12.0
42.5,129.7,108.2,130.5,122.8,12.6
43.0,128.8,109.1,129.1,122.4,11.5
43.5,127.5,107.5,127.6,120.9,11.6
44.0,125.4,106.6,125.2,119.1,10.8
44.5,124.5,107.0,122.9,118.1,9.6
45.0,120.4,107.2,123.0,116.8,8.5
45.5,118.6,107.3,119.3,115.1,6.7
46.0,115.4,106.7,119.7,114.0,6.7
46.5,114.0,106.1,119.1,113.0,6.5
47.0,110.0,103.6,116.4,110.0,6.4
47.5,109.6,103.6,114.9,109.4,5.7
48.0,105.9,101.6,113.7,107.1,6.1
48.5,104.3,99.9,113.9,106.0,7.1
49.0,100.8,101.2,113.6,105.2,7.3
49.5,100.8,99.1,110.9,103.6,6.4
50.0,99.2,99.2,110.3,102.9,6.4
50.5,97.7,98.4,109.3,101.8,6.5
51.0,94.8,96.8,108.0,99.9,7.1
51.5,94.9,95.6,108.9,99.8,7.9
52.0,92.7,95.1,107.2,98.3,7.8
52.5,89.9,96.4,108.7,98.3,9.6
53.0,89.0,93.3,108.3,96.9,10.1
53.5,87.9,95.1,107.7,96.9,10.1
54.0,86.5,93.6,105.3,95.1,9.5
54.5,84.0,93.0,105.9,94.3,11.0
55.0,81.2,91.8,105.6,92.8,12.3
55.5,80.6,90.7,104.9,92.1,12.2
56.0,78.5,88.9,103.1,90.2,12.3
56.5,77.3,89.9,102.2,89.8,12.5
57.0,78.3,90.6,102.8,90.6,12.2
57.5,77.2,90.8,101.6,89.8,12.2
58.0,74.8,87.6,102.0,88.1,13.6
58.5,73.2,87.4,99.7,86.8,13.3
59.0,72.4,87.0,99.9,86.4,13.8
59.5,70.9,86.9,97.0,84.9,13.2
60.0,70.0,86.0,97.3,84.4,13.7
60.5,68.9,85.2,94.8,83.0,13.1
61.0,67.9,84.1,92.9,81.6,12.7
61.5,66.8,83.3,89.6,79.9,11.8
62.0,65.9,82.6,87.9,78.8,11.5
62.5,64.2,82.6,87.8,78.2,12.4
63.0,62.9,82.2,85.1,76.7,12.1
63.5,62.3,82.9,85.1,76.8,12.6
64.0,61.7,82.6,82.9,75.7,12.2
64.5,60.6,83.0,81.1,74.9,12.4
65.0,60.2,81.2,79.0,73.5,11.5
65.5,58.0,83.3,78.0,73.1,13.3
66.0,58.0,81.4,76.4,71.9,12.3
66.5,57.8,81.3,76.0,71.7,12.3
67.0,56.8,82.5,75.1,71.5,13.2
67.5,55.7,81.5,72.6,69.9,13.1
68.0,54.5,80.5,70.4,68.5,13.1
68.5,53.6,80.6,68.4,67.5,13.5
69.0,53.3,81.9,66.3,67.2,14.3
69.5,52.2,80.2,64.1,65.5,14.0
70.0,51.3,80.4,62.6,64.8,14.7
70.5,49.7,80.5,59.6,63.3,15.7
71.0,49.2,79.6,58.7,62.5,15.6
71.5,48.7,79.5,56.0,61.4,16.1
72.0,48.7,79.3,55.6,61.2,16.1
72.5,47.1,79.7,54.1,60.3,17.1
73.0,46.7,77.8,52.5,59.0,16.5
73.5,46.1,77.5,51.1,58.2,16.9
74.0,46.5,77.6,50.1,58.0,17.0
74.5,46.1,77.3,48.2,57.2,17.4
75.0,46.1,75.3,47.3,56.2,16.5
75.5,44.4,74.8,46.3,55.2,17.0
76.0,44.4,75.8,44.1,54.8,18.2
76.5,43.2,73.1,43.3,53.2,17.2
77.0,42.1,75.0,42.1,53.1,19.0
77.5,42.5,72.4,41.1,52.0,17.7
78.0,41.9,73.3,40.2,51.8,18.7
78.5,40.8,72.9,39.5,51.0,18.9
79.0,40.3,71.9,,56.1,22.3
79.5,40.0,71.8,,55.9,22.5
80.0,39.3,70.8,,55.0,22.3
80.5,39.1,70.2,,54.7,22.0
81.0,38.6,69.4,,54.0,21.8
81.5,38.0,68.8,,53.4,21.7
82.0,37.7,68.9,,53.3,22.0
82.5,36.3,68.8,,52.5,23.0
83.0,36.6,68.4,,52.5,22.5
83.25,36.4,67.6,,52.0,22.0