Folder: fsri_materials_database/01_Data/Vinyl_Siding/FTIR/IS (part 3)

File: Vinyl_Siding_IS_T_220914_R2.dpt
7497.03,0.02816
7473.89,0.02129
7450.74,0.02129
7427.6,0.02233
7404.45,0.02250
7381.31,0.02750
7358.16,0.02147
7335.02,0.01606
7311.87,0.02752
7288.73,0.02563
7265.58,0.02338
7242.44,0.03190
7219.29,0.02364
7196.15,0.02735
7173,0.02050
7149.86,0.02992
7126.71,0.02311
7103.57,0.02615
7080.42,0.02698
7057.28,0.02444
7034.13,0.02410
7010.99,0.02867
6987.84,0.02313
6964.7,0.02568
6941.55,0.02540
6918.41,0.02395
6895.26,0.01950
6872.12,0.02716
6848.97,0.02647
6825.83,0.02307
6802.68,0.01820
6779.54,0.01880
6756.39,0.02247
6733.25,0.02239
6710.1,0.02152
6686.96,0.02316
6663.82,0.02282
6640.67,0.02294
6617.53,0.02259
6594.38,0.01973
6571.24,0.02503
6548.09,0.02056
6524.95,0.02510
6501.8,0.02382
6478.66,0.02121
6455.51,0.02209
6432.37,0.01700
6409.22,0.02416
6386.08,0.02131
6362.93,0.02448
6339.79,0.01762
6316.64,0.02339
6293.5,0.02537
6270.35,0.02092
6247.21,0.02074
6224.06,0.02114
6200.92,0.02225
6177.77,0.02107
6154.63,0.02228
6131.48,0.02070
6108.34,0.02483
6085.19,0.02146
6062.05,0.02205
6038.9,0.02116
6015.76,0.02194
5992.61,0.02109
5969.47,0.01974
5946.32,0.02297
5923.18,0.02010
5900.03,0.02116
5876.89,0.02388
5853.74,0.02179
5830.6,0.02125
5807.45,0.02191
5784.31,0.02388
5761.16,0.02177
5738.02,0.02226
5714.87,0.02316
5691.73,0.02086
5668.58,0.02115
5645.44,0.02227
5622.29,0.02250
5599.15,0.02320
5576,0.02166
5552.86,0.02285
5529.71,0.02220
5506.57,0.02190
5483.42,0.02034
5460.28,0.02277
5437.13,0.02137
5413.99,0.02306
5390.84,0.02169
5367.7,0.02200
5344.55,0.02394
5321.41,0.02309
5298.26,0.02198
5275.12,0.02200
5251.97,0.02244
5228.83,0.02116
5205.68,0.02327
5182.54,0.02216
5159.39,0.02240
5136.25,0.02217
5113.1,0.02167
5089.96,0.02272
5066.81,0.02180
5043.67,0.02185
5020.52,0.02153
4997.38,0.02114
4974.23,0.02230
4951.09,0.02385
4927.94,0.02255
4904.8,0.02338
4881.65,0.02305
4858.51,0.02270
4835.36,0.02338
4812.22,0.02287
4789.07,0.02147
4765.93,0.02245
4742.78,0.02200
4719.64,0.02322
4696.49,0.02290
4673.35,0.02267
4650.2,0.02242
4627.06,0.02232
4603.92,0.02188
4580.77,0.02174
4557.63,0.02177
4534.48,0.02202
4511.34,0.02298
4488.19,0.02204
4465.05,0.02201
4441.9,0.02218
4418.76,0.02271
4395.61,0.02279
4372.47,0.02270
4349.32,0.02197
4326.18,0.02251
4303.03,0.02154
4279.89,0.02279
4256.74,0.02232
4233.6,0.02253
4210.45,0.02301
4187.31,0.02260
4164.16,0.02333
4141.02,0.02297
4117.87,0.02286
4094.73,0.02380
4071.58,0.02231
4048.44,0.02262
4025.29,0.02235
4002.15,0.02246
3979,0.02278
3955.86,0.02286
3932.71,0.02275
3909.57,0.02193
3886.42,0.02298
3863.28,0.02305
3840.13,0.02344
3816.99,0.02353
3793.84,0.02245
3770.7,0.02271
3747.55,0.02311
3724.41,0.02335
3701.26,0.02265
3678.12,0.02255
3654.97,0.02233
3631.83,0.02242
3608.68,0.02205
3585.54,0.02165
3562.39,0.02174
3539.25,0.02080
3516.1,0.02106
3492.96,0.02150
3469.81,0.02080
3446.67,0.02143
3423.52,0.02089
3400.38,0.02094
3377.23,0.02132
3354.09,0.02037
3330.94,0.02109
3307.8,0.02090
3284.65,0.02072
3261.51,0.02073
3238.36,0.02064
3215.22,0.02128
3192.07,0.02084
3168.93,0.02083
3145.78,0.02048
3122.64,0.02086
3099.49,0.02160
3076.35,0.02118
3053.2,0.02173
3030.06,0.02081
3006.91,0.02053
2983.77,0.02044
2960.62,0.01961
2937.48,0.01962
2914.33,0.02083
2891.19,0.02051
2868.04,0.02067
2844.9,0.02127
2821.75,0.02150
2798.61,0.02169
2775.46,0.02158
2752.32,0.02141
2729.17,0.02151
2706.03,0.02178
2682.88,0.02151
2659.74,0.02164
2636.59,0.02132
2613.45,0.02147
2590.3,0.02171
2567.16,0.02115
2544.02,0.02156
2520.87,0.02172
2497.73,0.02180
2474.58,0.02203
2451.44,0.02192
2428.29,0.02101
2405.15,0.02142
2382,0.02158
2358.86,0.02112
2335.71,0.02140
2312.57,0.02152
2289.42,0.02125
2266.28,0.02147
2243.13,0.02135
2219.99,0.02145
2196.84,0.02115
2173.7,0.02124
2150.55,0.02122
2127.41,0.02159
2104.26,0.02117
2081.12,0.02111
2057.97,0.02128
2034.83,0.02117
2011.68,0.02139
1988.54,0.02140
1965.39,0.02093
1942.25,0.02106
1919.1,0.02117
1895.96,0.02133
1872.81,0.02093
1849.67,0.02063
1826.52,0.02039
1803.38,0.01990
1780.23,0.01932
1757.09,0.01795
1733.94,0.02049
1710.8,0.02148
1687.65,0.02026
1664.51,0.01883
1641.36,0.01886
1618.22,0.01952
1595.07,0.01934
1571.93,0.01848
1548.78,0.01808
1525.64,0.01880
1502.49,0.01890
1479.35,0.01892
1456.2,0.01907
1433.06,0.01901
1409.91,0.01880
1386.77,0.01869
1363.62,0.01864
1340.48,0.01793
1317.33,0.01744
1294.19,0.01792
1271.04,0.01975
1247.9,0.02123
1224.75,0.02009
1201.61,0.01936
1178.46,0.01847
1155.32,0.01780
1132.17,0.01810
1109.03,0.01895
1085.88,0.01895
1062.74,0.02036
1039.59,0.01982
1016.45,0.01975
993.304,0.02111
970.159,0.02114
947.014,0.02007
923.869,0.02006
900.724,0.01832
877.579,0.01952
854.434,0.01870
831.289,0.01965
808.144,0.02009
784.999,0.01948
761.854,0.01823
738.709,0.01842
715.565,0.01905
692.42,0.01807
669.275,0.01756
646.13,0.01717
622.985,0.01549
599.84,0.01926