Folder: fsri_materials_database/01_Data/Vinyl_Siding/FTIR/IS (part 2)

File: Vinyl_Siding_IS_S_220914_R5.dpt
7497.03,0.75193
7473.89,0.75055
7450.74,0.75231
7427.6,0.74309
7404.45,0.74537
7381.31,0.72824
7358.16,0.72265
7335.02,0.70083
7311.87,0.69707
7288.73,0.67433
7265.58,0.64643
7242.44,0.63441
7219.29,0.62099
7196.15,0.61720
7173,0.60322
7149.86,0.59455
7126.71,0.59086
7103.57,0.59283
7080.42,0.58296
7057.28,0.58038
7034.13,0.58764
7010.99,0.57806
6987.84,0.58729
6964.7,0.60118
6941.55,0.60950
6918.41,0.61328
6895.26,0.62218
6872.12,0.62888
6848.97,0.63143
6825.83,0.63601
6802.68,0.63701
6779.54,0.63896
6756.39,0.64247
6733.25,0.64511
6710.1,0.64415
6686.96,0.65835
6663.82,0.65297
6640.67,0.65526
6617.53,0.65688
6594.38,0.65792
6571.24,0.66005
6548.09,0.66065
6524.95,0.65665
6501.8,0.66485
6478.66,0.65808
6455.51,0.66356
6432.37,0.66325
6409.22,0.67073
6386.08,0.67067
6362.93,0.66794
6339.79,0.66492
6316.64,0.66382
6293.5,0.66480
6270.35,0.66186
6247.21,0.66495
6224.06,0.66300
6200.92,0.65962
6177.77,0.65581
6154.63,0.64145
6131.48,0.63137
6108.34,0.62665
6085.19,0.61489
6062.05,0.61958
6038.9,0.59832
6015.76,0.53420
5992.61,0.47850
5969.47,0.42621
5946.32,0.41058
5923.18,0.38243
5900.03,0.33670
5876.89,0.31216
5853.74,0.29426
5830.6,0.28359
5807.45,0.29069
5784.31,0.30880
5761.16,0.31704
5738.02,0.30450
5714.87,0.29880
5691.73,0.30734
5668.58,0.32675
5645.44,0.33608
5622.29,0.34361
5599.15,0.34985
5576,0.36197
5552.86,0.37051
5529.71,0.37496
5506.57,0.37856
5483.42,0.37270
5460.28,0.37465
5437.13,0.37897
5413.99,0.38402
5390.84,0.38722
5367.7,0.39046
5344.55,0.40301
5321.41,0.41160
5298.26,0.41500
5275.12,0.40407
5251.97,0.38432
5228.83,0.39593
5205.68,0.39677
5182.54,0.39287
5159.39,0.38744
5136.25,0.38551
5113.1,0.39649
5089.96,0.40232
5066.81,0.40453
5043.67,0.40957
5020.52,0.41291
4997.38,0.41385
4974.23,0.41300
4951.09,0.41242
4927.94,0.41080
4904.8,0.40612
4881.65,0.39720
4858.51,0.39362
4835.36,0.39783
4812.22,0.39877
4789.07,0.39655
4765.93,0.39105
4742.78,0.38689
4719.64,0.37480
4696.49,0.35354
4673.35,0.28781
4650.2,0.30630
4627.06,0.28589
4603.92,0.29022
4580.77,0.31242
4557.63,0.33075
4534.48,0.33280
4511.34,0.32123
4488.19,0.30465
4465.05,0.27424
4441.9,0.22820
4418.76,0.18567
4395.61,0.15371
4372.47,0.13261
4349.32,0.12555
4326.18,0.13105
4303.03,0.13390
4279.89,0.12686
4256.74,0.12305
4233.6,0.12328
4210.45,0.12282
4187.31,0.12654
4164.16,0.12821
4141.02,0.12900
4117.87,0.12745
4094.73,0.12301
4071.58,0.11245
4048.44,0.10892
4025.29,0.11602
4002.15,0.12780
3979,0.13422
3955.86,0.13806
3932.71,0.13839
3909.57,0.13957
3886.42,0.14116
3863.28,0.14038
3840.13,0.13940
3816.99,0.14000
3793.84,0.14407
3770.7,0.14856
3747.55,0.15045
3724.41,0.15113
3701.26,0.13722
3678.12,0.11396
3654.97,0.10295
3631.83,0.10238
3608.68,0.10157
3585.54,0.10010
3562.39,0.09681
3539.25,0.09327
3516.1,0.09153
3492.96,0.09177
3469.81,0.08883
3446.67,0.08355
3423.52,0.08598
3400.38,0.08628
3377.23,0.08317
3354.09,0.07702
3330.94,0.06815
3307.8,0.06002
3284.65,0.06648
3261.51,0.07204
3238.36,0.07782
3215.22,0.07844
3192.07,0.07880
3168.93,0.08009
3145.78,0.07978
3122.64,0.07721
3099.49,0.06614
3076.35,0.05978
3053.2,0.05855
3030.06,0.05463
3006.91,0.05931
2983.77,0.05608
2960.62,0.05216
2937.48,0.05464
2914.33,0.06056
2891.19,0.05781
2868.04,0.05720
2844.9,0.06192
2821.75,0.06746
2798.61,0.07030
2775.46,0.07292
2752.32,0.07290
2729.17,0.07294
2706.03,0.07399
2682.88,0.07446
2659.74,0.07436
2636.59,0.07336
2613.45,0.07347
2590.3,0.07315
2567.16,0.07311
2544.02,0.07296
2520.87,0.07197
2497.73,0.07211
2474.58,0.07349
2451.44,0.07458
2428.29,0.07446
2405.15,0.07422
2382,0.07507
2358.86,0.07415
2335.71,0.07282
2312.57,0.07419
2289.42,0.07455
2266.28,0.07296
2243.13,0.05690
2219.99,0.07683
2196.84,0.08093
2173.7,0.08189
2150.55,0.08198
2127.41,0.08341
2104.26,0.08875
2081.12,0.08914
2057.97,0.08664
2034.83,0.08274
2011.68,0.08260
1988.54,0.07728
1965.39,0.07128
1942.25,0.07240
1919.1,0.08079
1895.96,0.07337
1872.81,0.07217
1849.67,0.08161
1826.52,0.07002
1803.38,0.06052
1780.23,0.05981
1757.09,0.05231
1733.94,0.05350
1710.8,0.05814
1687.65,0.05851
1664.51,0.05822
1641.36,0.05823
1618.22,0.06008
1595.07,0.05695
1571.93,0.05783
1548.78,0.05401
1525.64,0.05887
1502.49,0.05461
1479.35,0.05340
1456.2,0.05073
1433.06,0.05641
1409.91,0.05591
1386.77,0.05349
1363.62,0.05349
1340.48,0.05336
1317.33,0.05251
1294.19,0.05259
1271.04,0.05163
1247.9,0.05306
1224.75,0.05353
1201.61,0.05226
1178.46,0.05195
1155.32,0.06011
1132.17,0.05758
1109.03,0.05642
1085.88,0.05516
1062.74,0.05587
1039.59,0.05584
1016.45,0.05660
993.304,0.05623
970.159,0.05579
947.014,0.05480
923.869,0.05409
900.724,0.05489
877.579,0.05308
854.434,0.05228
831.289,0.05283
808.144,0.05158
784.999,0.04856
761.854,0.04999
738.709,0.05225
715.565,0.04420
692.42,0.06700
669.275,0.05639
646.13,0.05386
622.985,0.05235
599.84,0.05671

File: Vinyl_Siding_IS_S_220914_R6.dpt
7497.03,0.75621
7473.89,0.74921
7450.74,0.74003
7427.6,0.74374
7404.45,0.74348
7381.31,0.72744
7358.16,0.72395
7335.02,0.72019
7311.87,0.69486
7288.73,0.67052
7265.58,0.65288
7242.44,0.63798
7219.29,0.61177
7196.15,0.61573
7173,0.60416
7149.86,0.59941
7126.71,0.59328
7103.57,0.59420
7080.42,0.58160
7057.28,0.58344
7034.13,0.57593
7010.99,0.57935
6987.84,0.58263
6964.7,0.59822
6941.55,0.60464
6918.41,0.61292
6895.26,0.62262
6872.12,0.62756
6848.97,0.63258
6825.83,0.63105
6802.68,0.63617
6779.54,0.63203
6756.39,0.64494
6733.25,0.64563
6710.1,0.64571
6686.96,0.64458
6663.82,0.65234
6640.67,0.65858
6617.53,0.65388
6594.38,0.65885
6571.24,0.65887
6548.09,0.65432
6524.95,0.66112
6501.8,0.65646
6478.66,0.66399
6455.51,0.66703
6432.37,0.66505
6409.22,0.67088
6386.08,0.66715
6362.93,0.66555
6339.79,0.66738
6316.64,0.66580
6293.5,0.66222
6270.35,0.65921
6247.21,0.66234
6224.06,0.66145
6200.92,0.65849
6177.77,0.65420
6154.63,0.64276
6131.48,0.63135
6108.34,0.62139
6085.19,0.61214
6062.05,0.61485
6038.9,0.59327
6015.76,0.53488
5992.61,0.47460
5969.47,0.42514
5946.32,0.41046
5923.18,0.38239
5900.03,0.33663
5876.89,0.31017
5853.74,0.29271
5830.6,0.28189
5807.45,0.28965
5784.31,0.30838
5761.16,0.31829
5738.02,0.30456
5714.87,0.29899
5691.73,0.30449
5668.58,0.32646
5645.44,0.33867
5622.29,0.34511
5599.15,0.35246
5576,0.36257
5552.86,0.37045
5529.71,0.37355
5506.57,0.37635
5483.42,0.37318
5460.28,0.37207
5437.13,0.37880
5413.99,0.38360
5390.84,0.38643
5367.7,0.39160
5344.55,0.40334
5321.41,0.41015
5298.26,0.41365
5275.12,0.40358
5251.97,0.38554
5228.83,0.39635
5205.68,0.39701
5182.54,0.39176
5159.39,0.38576
5136.25,0.38441
5113.1,0.39575
5089.96,0.40169
5066.81,0.40619
5043.67,0.41052
5020.52,0.41331
4997.38,0.41360
4974.23,0.41096
4951.09,0.41111
4927.94,0.41041
4904.8,0.40524
4881.65,0.39760
4858.51,0.39255
4835.36,0.39628
4812.22,0.39873
4789.07,0.39785
4765.93,0.38963
4742.78,0.38696
4719.64,0.37462
4696.49,0.35299
4673.35,0.28699
4650.2,0.30594
4627.06,0.28496
4603.92,0.28962
4580.77,0.31069
4557.63,0.32882
4534.48,0.33220
4511.34,0.32058
4488.19,0.30515
4465.05,0.27319
4441.9,0.22725
4418.76,0.18553
4395.61,0.15255
4372.47,0.13230
4349.32,0.12591
4326.18,0.13035
4303.03,0.13267
4279.89,0.12724
4256.74,0.12204
4233.6,0.12305
4210.45,0.12323
4187.31,0.12654
4164.16,0.12767
4141.02,0.12873
4117.87,0.12700
4094.73,0.12339
4071.58,0.11278
4048.44,0.10909
4025.29,0.11541
4002.15,0.12779
3979,0.13448
3955.86,0.13780
3932.71,0.13854
3909.57,0.13959
3886.42,0.14034
3863.28,0.14084
3840.13,0.13974
3816.99,0.14022
3793.84,0.14458
3770.7,0.14805
3747.55,0.15095
3724.41,0.15073
3701.26,0.13725
3678.12,0.11509
3654.97,0.10402
3631.83,0.10344
3608.68,0.10293
3585.54,0.10148
3562.39,0.09768
3539.25,0.09410
3516.1,0.09334
3492.96,0.09258
3469.81,0.08979
3446.67,0.08168
3423.52,0.08619
3400.38,0.08640
3377.23,0.08237
3354.09,0.07693
3330.94,0.06842
3307.8,0.05970
3284.65,0.06598
3261.51,0.07219
3238.36,0.07776
3215.22,0.07850
3192.07,0.07906
3168.93,0.07980
3145.78,0.08054
3122.64,0.07753
3099.49,0.06588
3076.35,0.05985
3053.2,0.05899
3030.06,0.05465
3006.91,0.05941
2983.77,0.05631
2960.62,0.05191
2937.48,0.05430
2914.33,0.05995
2891.19,0.05835
2868.04,0.05658
2844.9,0.06253
2821.75,0.06753
2798.61,0.07044
2775.46,0.07260
2752.32,0.07356
2729.17,0.07275
2706.03,0.07431
2682.88,0.07381
2659.74,0.07459
2636.59,0.07348
2613.45,0.07314
2590.3,0.07310
2567.16,0.07299
2544.02,0.07308
2520.87,0.07213
2497.73,0.07191
2474.58,0.07341
2451.44,0.07396
2428.29,0.07415
2405.15,0.07446
2382,0.07481
2358.86,0.07408
2335.71,0.07233
2312.57,0.07437
2289.42,0.07435
2266.28,0.07298
2243.13,0.05661
2219.99,0.07659
2196.84,0.08128
2173.7,0.08207
2150.55,0.08205
2127.41,0.08353
2104.26,0.08865
2081.12,0.08864
2057.97,0.08587
2034.83,0.08309
2011.68,0.08254
1988.54,0.07771
1965.39,0.07112
1942.25,0.07209
1919.1,0.08084
1895.96,0.07295
1872.81,0.07233
1849.67,0.08175
1826.52,0.07009
1803.38,0.06056
1780.23,0.05971
1757.09,0.05223
1733.94,0.05333
1710.8,0.05860
1687.65,0.05885
1664.51,0.05843
1641.36,0.05814
1618.22,0.06005
1595.07,0.05747
1571.93,0.05725
1548.78,0.05451
1525.64,0.05848
1502.49,0.05424
1479.35,0.05370
1456.2,0.05058
1433.06,0.05643
1409.91,0.05579
1386.77,0.05310
1363.62,0.05356
1340.48,0.05328
1317.33,0.05284
1294.19,0.05209
1271.04,0.05147
1247.9,0.05286
1224.75,0.05352
1201.61,0.05229
1178.46,0.05159
1155.32,0.06009
1132.17,0.05737
1109.03,0.05674
1085.88,0.05490
1062.74,0.05528
1039.59,0.05494
1016.45,0.05693
993.304,0.05576
970.159,0.05469
947.014,0.05461
923.869,0.05459
900.724,0.05446
877.579,0.05364
854.434,0.05227
831.289,0.05290
808.144,0.05134
784.999,0.04844
761.854,0.05077
738.709,0.05321
715.565,0.04363
692.42,0.06717
669.275,0.05698
646.13,0.05579
622.985,0.05572
599.84,0.05379

File: Vinyl_Siding_IS_S_220914_R7.dpt
7497.03,0.75657
7473.89,0.76000
7450.74,0.75691
7427.6,0.74588
7404.45,0.74265
7381.31,0.73439
7358.16,0.72913
7335.02,0.71263
7311.87,0.69526
7288.73,0.67216
7265.58,0.65070
7242.44,0.62620
7219.29,0.61214
7196.15,0.61248
7173,0.60495
7149.86,0.60370
7126.71,0.59263
7103.57,0.59378
7080.42,0.58307
7057.28,0.58800
7034.13,0.57981
7010.99,0.58182
6987.84,0.58237
6964.7,0.59998
6941.55,0.61200
6918.41,0.61961
6895.26,0.62031
6872.12,0.62924
6848.97,0.63604
6825.83,0.63743
6802.68,0.63795
6779.54,0.64434
6756.39,0.64720
6733.25,0.64195
6710.1,0.64957
6686.96,0.65120
6663.82,0.65298
6640.67,0.66177
6617.53,0.65815
6594.38,0.66433
6571.24,0.66154
6548.09,0.66237
6524.95,0.66442
6501.8,0.66544
6478.66,0.66179
6455.51,0.66841
6432.37,0.66993
6409.22,0.67093
6386.08,0.66877
6362.93,0.67428
6339.79,0.66635
6316.64,0.67065
6293.5,0.66725
6270.35,0.66425
6247.21,0.66480
6224.06,0.66478
6200.92,0.66465
6177.77,0.65820
6154.63,0.64840
6131.48,0.63247
6108.34,0.62627
6085.19,0.61981
6062.05,0.62056
6038.9,0.59720
6015.76,0.53938
5992.61,0.47875
5969.47,0.43060
5946.32,0.41270
5923.18,0.38448
5900.03,0.33999
5876.89,0.31418
5853.74,0.29382
5830.6,0.28408
5807.45,0.29208
5784.31,0.31092
5761.16,0.31903
5738.02,0.30533
5714.87,0.29905
5691.73,0.30851
5668.58,0.32819
5645.44,0.33933
5622.29,0.34649
5599.15,0.35497
5576,0.36425
5552.86,0.37177
5529.71,0.37528
5506.57,0.37905
5483.42,0.37699
5460.28,0.37395
5437.13,0.38092
5413.99,0.38602
5390.84,0.38837
5367.7,0.39412
5344.55,0.40558
5321.41,0.41375
5298.26,0.41604
5275.12,0.40621
5251.97,0.38694
5228.83,0.39970
5205.68,0.39839
5182.54,0.39502
5159.39,0.39046
5136.25,0.38546
5113.1,0.39825
5089.96,0.40383
5066.81,0.40916
5043.67,0.41157
5020.52,0.41506
4997.38,0.41552
4974.23,0.41313
4951.09,0.41419
4927.94,0.41284
4904.8,0.40786
4881.65,0.40029
4858.51,0.39536
4835.36,0.39890
4812.22,0.39967
4789.07,0.39888
4765.93,0.39386
4742.78,0.39014
4719.64,0.37610
4696.49,0.35674
4673.35,0.28959
4650.2,0.30764
4627.06,0.28680
4603.92,0.29086
4580.77,0.31317
4557.63,0.33136
4534.48,0.33380
4511.34,0.32300
4488.19,0.30642
4465.05,0.27444
4441.9,0.22824
4418.76,0.18746
4395.61,0.15417
4372.47,0.13350
4349.32,0.12596
4326.18,0.13132
4303.03,0.13381
4279.89,0.12766
4256.74,0.12291
4233.6,0.12395
4210.45,0.12404
4187.31,0.12659
4164.16,0.12845
4141.02,0.12964
4117.87,0.12837
4094.73,0.12422
4071.58,0.11368
4048.44,0.10950
4025.29,0.11606
4002.15,0.12818
3979,0.13517
3955.86,0.13885
3932.71,0.13865
3909.57,0.14048
3886.42,0.14174
3863.28,0.14121
3840.13,0.14004
3816.99,0.14064
3793.84,0.14550
3770.7,0.14864
3747.55,0.15108
3724.41,0.15190
3701.26,0.13810
3678.12,0.11631
3654.97,0.10597
3631.83,0.10524
3608.68,0.10400
3585.54,0.10292
3562.39,0.09898
3539.25,0.09486
3516.1,0.09402
3492.96,0.09319
3469.81,0.09009
3446.67,0.08405
3423.52,0.08682
3400.38,0.08628
3377.23,0.08384
3354.09,0.07771
3330.94,0.06853
3307.8,0.06002
3284.65,0.06666
3261.51,0.07313
3238.36,0.07779
3215.22,0.07845
3192.07,0.07881
3168.93,0.07961
3145.78,0.08040
3122.64,0.07770
3099.49,0.06636
3076.35,0.06018
3053.2,0.05851
3030.06,0.05476
3006.91,0.05988
2983.77,0.05650
2960.62,0.05184
2937.48,0.05434
2914.33,0.05986
2891.19,0.05842
2868.04,0.05722
2844.9,0.06261
2821.75,0.06781
2798.61,0.07059
2775.46,0.07281
2752.32,0.07352
2729.17,0.07312
2706.03,0.07452
2682.88,0.07429
2659.74,0.07482
2636.59,0.07384
2613.45,0.07396
2590.3,0.07339
2567.16,0.07355
2544.02,0.07330
2520.87,0.07238
2497.73,0.07258
2474.58,0.07371
2451.44,0.07462
2428.29,0.07473
2405.15,0.07422
2382,0.07529
2358.86,0.07444
2335.71,0.07248
2312.57,0.07430
2289.42,0.07498
2266.28,0.07319
2243.13,0.05698
2219.99,0.07696
2196.84,0.08122
2173.7,0.08267
2150.55,0.08234
2127.41,0.08408
2104.26,0.08877
2081.12,0.08944
2057.97,0.08655
2034.83,0.08318
2011.68,0.08310
1988.54,0.07787
1965.39,0.07101
1942.25,0.07266
1919.1,0.08143
1895.96,0.07362
1872.81,0.07292
1849.67,0.08259
1826.52,0.07050
1803.38,0.06027
1780.23,0.06006
1757.09,0.05213
1733.94,0.05372
1710.8,0.05812
1687.65,0.05864
1664.51,0.05888
1641.36,0.05857
1618.22,0.06024
1595.07,0.05760
1571.93,0.05785
1548.78,0.05462
1525.64,0.05867
1502.49,0.05402
1479.35,0.05329
1456.2,0.05029
1433.06,0.05657
1409.91,0.05638
1386.77,0.05363
1363.62,0.05368
1340.48,0.05348
1317.33,0.05336
1294.19,0.05285
1271.04,0.05153
1247.9,0.05331
1224.75,0.05383
1201.61,0.05274
1178.46,0.05166
1155.32,0.06051
1132.17,0.05812
1109.03,0.05691
1085.88,0.05550
1062.74,0.05595
1039.59,0.05542
1016.45,0.05600
993.304,0.05652
970.159,0.05468
947.014,0.05425
923.869,0.05444
900.724,0.05427
877.579,0.05433
854.434,0.05269
831.289,0.05277
808.144,0.05223
784.999,0.04810
761.854,0.05016
738.709,0.05310
715.565,0.04390
692.42,0.06762
669.275,0.05666
646.13,0.05471
622.985,0.05239
599.84,0.05215

File: Vinyl_Siding_IS_S_220914_R8.dpt
7497.03,0.74786
7473.89,0.75413
7450.74,0.74040
7427.6,0.74638
7404.45,0.74981
7381.31,0.74215
7358.16,0.72628
7335.02,0.71665
7311.87,0.69706
7288.73,0.67668
7265.58,0.65423
7242.44,0.62921
7219.29,0.61300
7196.15,0.61028
7173,0.60771
7149.86,0.59390
7126.71,0.58732
7103.57,0.58860
7080.42,0.58233
7057.28,0.57866
7034.13,0.58546
7010.99,0.58282
6987.84,0.58223
6964.7,0.60229
6941.55,0.60599
6918.41,0.60825
6895.26,0.61997
6872.12,0.63292
6848.97,0.63435
6825.83,0.63262
6802.68,0.63374
6779.54,0.64381
6756.39,0.63980
6733.25,0.64616
6710.1,0.64784
6686.96,0.65145
6663.82,0.65407
6640.67,0.65609
6617.53,0.65885
6594.38,0.65528
6571.24,0.65596
6548.09,0.65799
6524.95,0.65868
6501.8,0.66301
6478.66,0.65883
6455.51,0.66234
6432.37,0.67030
6409.22,0.66980
6386.08,0.66719
6362.93,0.66699
6339.79,0.66696
6316.64,0.66600
6293.5,0.66282
6270.35,0.66174
6247.21,0.66720
6224.06,0.66343
6200.92,0.66245
6177.77,0.65649
6154.63,0.64294
6131.48,0.62522
6108.34,0.62100
6085.19,0.61784
6062.05,0.62037
6038.9,0.59419
6015.76,0.53518
5992.61,0.47336
5969.47,0.42786
5946.32,0.41059
5923.18,0.38308
5900.03,0.33767
5876.89,0.30992
5853.74,0.29372
5830.6,0.27999
5807.45,0.28861
5784.31,0.30724
5761.16,0.31623
5738.02,0.30723
5714.87,0.29916
5691.73,0.30491
5668.58,0.32442
5645.44,0.33723
5622.29,0.34656
5599.15,0.35178
5576,0.36373
5552.86,0.37129
5529.71,0.37587
5506.57,0.37855
5483.42,0.37361
5460.28,0.37339
5437.13,0.38006
5413.99,0.38441
5390.84,0.38554
5367.7,0.39176
5344.55,0.40469
5321.41,0.41079
5298.26,0.41398
5275.12,0.40583
5251.97,0.38772
5228.83,0.39750
5205.68,0.39677
5182.54,0.39534
5159.39,0.38794
5136.25,0.38543
5113.1,0.39673
5089.96,0.40205
5066.81,0.40475
5043.67,0.41020
5020.52,0.41460
4997.38,0.41285
4974.23,0.41245
4951.09,0.41320
4927.94,0.41077
4904.8,0.40695
4881.65,0.39804
4858.51,0.39326
4835.36,0.39725
4812.22,0.39985
4789.07,0.39647
4765.93,0.39133
4742.78,0.38634
4719.64,0.37562
4696.49,0.35463
4673.35,0.28703
4650.2,0.30666
4627.06,0.28651
4603.92,0.29043
4580.77,0.31105
4557.63,0.33109
4534.48,0.33337
4511.34,0.32078
4488.19,0.30548
4465.05,0.27370
4441.9,0.22848
4418.76,0.18667
4395.61,0.15440
4372.47,0.13191
4349.32,0.12492
4326.18,0.13142
4303.03,0.13416
4279.89,0.12737
4256.74,0.12273
4233.6,0.12396
4210.45,0.12392
4187.31,0.12640
4164.16,0.12912
4141.02,0.12910
4117.87,0.12722
4094.73,0.12355
4071.58,0.11325
4048.44,0.10907
4025.29,0.11575
4002.15,0.12820
3979,0.13442
3955.86,0.13821
3932.71,0.13791
3909.57,0.13985
3886.42,0.13983
3863.28,0.14111
3840.13,0.13974
3816.99,0.14058
3793.84,0.14529
3770.7,0.14813
3747.55,0.15111
3724.41,0.15211
3701.26,0.13833
3678.12,0.11672
3654.97,0.10630
3631.83,0.10666
3608.68,0.10518
3585.54,0.10280
3562.39,0.09941
3539.25,0.09550
3516.1,0.09429
3492.96,0.09323
3469.81,0.09071
3446.67,0.08375
3423.52,0.08692
3400.38,0.08677
3377.23,0.08416
3354.09,0.07718
3330.94,0.06758
3307.8,0.05898
3284.65,0.06634
3261.51,0.07268
3238.36,0.07827
3215.22,0.07905
3192.07,0.07876
3168.93,0.08003
3145.78,0.08083
3122.64,0.07750
3099.49,0.06611
3076.35,0.05977
3053.2,0.05833
3030.06,0.05366
3006.91,0.05932
2983.77,0.05601
2960.62,0.05157
2937.48,0.05447
2914.33,0.06019
2891.19,0.05814
2868.04,0.05687
2844.9,0.06209
2821.75,0.06784
2798.61,0.07046
2775.46,0.07242
2752.32,0.07304
2729.17,0.07260
2706.03,0.07403
2682.88,0.07407
2659.74,0.07424
2636.59,0.07376
2613.45,0.07381
2590.3,0.07303
2567.16,0.07339
2544.02,0.07315
2520.87,0.07203
2497.73,0.07197
2474.58,0.07344
2451.44,0.07442
2428.29,0.07458
2405.15,0.07408
2382,0.07495
2358.86,0.07406
2335.71,0.07263
2312.57,0.07431
2289.42,0.07465
2266.28,0.07278
2243.13,0.05729
2219.99,0.07672
2196.84,0.08113
2173.7,0.08233
2150.55,0.08216
2127.41,0.08400
2104.26,0.08866
2081.12,0.08959
2057.97,0.08639
2034.83,0.08304
2011.68,0.08256
1988.54,0.07770
1965.39,0.07128
1942.25,0.07251
1919.1,0.08116
1895.96,0.07329
1872.81,0.07271
1849.67,0.08175
1826.52,0.06992
1803.38,0.06027
1780.23,0.05957
1757.09,0.05254
1733.94,0.05357
1710.8,0.05819
1687.65,0.05897
1664.51,0.05864
1641.36,0.05852
1618.22,0.06012
1595.07,0.05766
1571.93,0.05736
1548.78,0.05459
1525.64,0.05855
1502.49,0.05419
1479.35,0.05344
1456.2,0.05054
1433.06,0.05670
1409.91,0.05572
1386.77,0.05376
1363.62,0.05353
1340.48,0.05341
1317.33,0.05272
1294.19,0.05251
1271.04,0.05153
1247.9,0.05286
1224.75,0.05372
1201.61,0.05254
1178.46,0.05253
1155.32,0.05992
1132.17,0.05753
1109.03,0.05622
1085.88,0.05493
1062.74,0.05611
1039.59,0.05531
1016.45,0.05714
993.304,0.05549
970.159,0.05474
947.014,0.05524
923.869,0.05440
900.724,0.05456
877.579,0.05459
854.434,0.05222
831.289,0.05247
808.144,0.05179
784.999,0.04876
761.854,0.04927
738.709,0.05297
715.565,0.04370
692.42,0.06768
669.275,0.05671
646.13,0.05610
622.985,0.05300
599.84,0.05300

File: Vinyl_Siding_IS_T_220914_R1.dpt
7497.03,0.02946
7473.89,0.03226
7450.74,0.02549
7427.6,0.01725
7404.45,0.02525
7381.31,0.03264
7358.16,0.02520
7335.02,0.02054
7311.87,0.02471
7288.73,0.01877
7265.58,0.02962
7242.44,0.03182
7219.29,0.02801
7196.15,0.02779
7173,0.02824
7149.86,0.01810
7126.71,0.02056
7103.57,0.02673
7080.42,0.02448
7057.28,0.01951
7034.13,0.02697
7010.99,0.02345
6987.84,0.02519
6964.7,0.02950
6941.55,0.01978
6918.41,0.02972
6895.26,0.02248
6872.12,0.02720
6848.97,0.02801
6825.83,0.02523
6802.68,0.02134
6779.54,0.01984
6756.39,0.01735
6733.25,0.02320
6710.1,0.02281
6686.96,0.02455
6663.82,0.02283
6640.67,0.02262
6617.53,0.02169
6594.38,0.02088
6571.24,0.02436
6548.09,0.02117
6524.95,0.02438
6501.8,0.02232
6478.66,0.02130
6455.51,0.02244
6432.37,0.02278
6409.22,0.02001
6386.08,0.02105
6362.93,0.02361
6339.79,0.02139
6316.64,0.01991
6293.5,0.02410
6270.35,0.02256
6247.21,0.01904
6224.06,0.02293
6200.92,0.01882
6177.77,0.02125
6154.63,0.02051
6131.48,0.02122
6108.34,0.02127
6085.19,0.02556
6062.05,0.02226
6038.9,0.01989
6015.76,0.02411
5992.61,0.02260
5969.47,0.01984
5946.32,0.02039
5923.18,0.02099
5900.03,0.02341
5876.89,0.02090
5853.74,0.02338
5830.6,0.02175
5807.45,0.02204
5784.31,0.02080
5761.16,0.02312
5738.02,0.01988
5714.87,0.02468
5691.73,0.02121
5668.58,0.02055
5645.44,0.02065
5622.29,0.02206
5599.15,0.02080
5576,0.02208
5552.86,0.02130
5529.71,0.02090
5506.57,0.02191
5483.42,0.02204
5460.28,0.02275
5437.13,0.02235
5413.99,0.02398
5390.84,0.01946
5367.7,0.02231
5344.55,0.02040
5321.41,0.02183
5298.26,0.02128
5275.12,0.02122
5251.97,0.02259
5228.83,0.02190
5205.68,0.02114
5182.54,0.02301
5159.39,0.02253
5136.25,0.02241
5113.1,0.02141
5089.96,0.02332
5066.81,0.02128
5043.67,0.02120
5020.52,0.02037
4997.38,0.02275
4974.23,0.02234
4951.09,0.02209
4927.94,0.02278
4904.8,0.02190
4881.65,0.02259
4858.51,0.02170
4835.36,0.02115
4812.22,0.02133
4789.07,0.02114
4765.93,0.02119
4742.78,0.02213
4719.64,0.02106
4696.49,0.02212
4673.35,0.02219
4650.2,0.02173
4627.06,0.02289
4603.92,0.02118
4580.77,0.02199
4557.63,0.02191
4534.48,0.02258
4511.34,0.02169
4488.19,0.02153
4465.05,0.02150
4441.9,0.02145
4418.76,0.02317
4395.61,0.02196
4372.47,0.02308
4349.32,0.02263
4326.18,0.02262
4303.03,0.02315
4279.89,0.02210
4256.74,0.02248
4233.6,0.02281
4210.45,0.02321
4187.31,0.02194
4164.16,0.02270
4141.02,0.02248
4117.87,0.02255
4094.73,0.02230
4071.58,0.02262
4048.44,0.02279
4025.29,0.02261
4002.15,0.02193
3979,0.02223
3955.86,0.02225
3932.71,0.02275
3909.57,0.02257
3886.42,0.02280
3863.28,0.02235
3840.13,0.02328
3816.99,0.02301
3793.84,0.02221
3770.7,0.02253
3747.55,0.02328
3724.41,0.02260
3701.26,0.02257
3678.12,0.02275
3654.97,0.02187
3631.83,0.02192
3608.68,0.02179
3585.54,0.02136
3562.39,0.02154
3539.25,0.02142
3516.1,0.02109
3492.96,0.02075
3469.81,0.02085
3446.67,0.02043
3423.52,0.02056
3400.38,0.02014
3377.23,0.02077
3354.09,0.02020
3330.94,0.02054
3307.8,0.02006
3284.65,0.01987
3261.51,0.02054
3238.36,0.02102
3215.22,0.02045
3192.07,0.02040
3168.93,0.02044
3145.78,0.02069
3122.64,0.02079
3099.49,0.02054
3076.35,0.02026
3053.2,0.02042
3030.06,0.01994
3006.91,0.02013
2983.77,0.01979
2960.62,0.01951
2937.48,0.01997
2914.33,0.01989
2891.19,0.02016
2868.04,0.02038
2844.9,0.02055
2821.75,0.02156
2798.61,0.02103
2775.46,0.02096
2752.32,0.02116
2729.17,0.02099
2706.03,0.02135
2682.88,0.02123
2659.74,0.02126
2636.59,0.02131
2613.45,0.02098
2590.3,0.02152
2567.16,0.02093
2544.02,0.02059
2520.87,0.02058
2497.73,0.02103
2474.58,0.02110
2451.44,0.02088
2428.29,0.02108
2405.15,0.02102
2382,0.02086
2358.86,0.02115
2335.71,0.02101
2312.57,0.02112
2289.42,0.02068
2266.28,0.02123
2243.13,0.02087
2219.99,0.02071
2196.84,0.02118
2173.7,0.02060
2150.55,0.02059
2127.41,0.02068
2104.26,0.02070
2081.12,0.02093
2057.97,0.02065
2034.83,0.02073
2011.68,0.02075
1988.54,0.02080
1965.39,0.02067
1942.25,0.02041
1919.1,0.02033
1895.96,0.02050
1872.81,0.02011
1849.67,0.02020
1826.52,0.02012
1803.38,0.01938
1780.23,0.01898
1757.09,0.01768
1733.94,0.01959
1710.8,0.02051
1687.65,0.01897
1664.51,0.01854
1641.36,0.01891
1618.22,0.01872
1595.07,0.01883
1571.93,0.01836
1548.78,0.01830
1525.64,0.01874
1502.49,0.01848
1479.35,0.01873
1456.2,0.01895
1433.06,0.01887
1409.91,0.01833
1386.77,0.01827
1363.62,0.01806
1340.48,0.01774
1317.33,0.01660
1294.19,0.01812
1271.04,0.01974
1247.9,0.02057
1224.75,0.01951
1201.61,0.01884
1178.46,0.01751
1155.32,0.01766
1132.17,0.01811
1109.03,0.01855
1085.88,0.01804
1062.74,0.01951
1039.59,0.01918
1016.45,0.01896
993.304,0.02037
970.159,0.02063
947.014,0.01958
923.869,0.01910
900.724,0.01881
877.579,0.01929
854.434,0.01922
831.289,0.01784
808.144,0.01875
784.999,0.01855
761.854,0.01904
738.709,0.01766
715.565,0.01703
692.42,0.01795
669.275,0.01715
646.13,0.01625
622.985,0.01668
599.84,0.01613