Folder: fsri_materials_database/01_Data/Vinyl_Siding/FTIR/IS

Note: README.md
# Materials and Products Database
### Repository of materials and products properties and fire test data to improve fire modeling and fire investigation.

This project was supported in part by Award No. 2019-DU-BX-0018, awarded by the National Institute of Justice, Office of Justice Programs, U.S. Department of Justice. The opinions, findings, and conclusions or recommendations expressed in this publication / program / exhibition are those of the author(s) and do not necessarily reflect those of the Department of Justice.

***
***

__Cite this database:__ "McKinnon, M., Weinschenk, C., Dow, N., DiDomizio, M., and Madrzykowski, D. Materials and Products Database (Version 1.0.0), Fire Safety Research Institute, UL Research Institutes. Columbia, MD 21045, 2023."

__Cite the Technical Reference Guide:__ "McKinnon, M., Weinschenk, C., and Madrzykowski, D. Materials and Products Database - Technical Reference Guide, Fire Safety Research Institute, UL Research Institutes. Columbia, MD 21045, 2023."

__Cite the User Guide:__ "McKinnon, M., and Weinschenk, C. Materials and Products Database - User Guide, Fire Safety Research Institute, UL Research Institutes. Columbia, MD 21045, 2023."

***
***

## Database Structure

## 01_Data/
Raw data generated from each apparatus are included here in plain-text format. The data is organized first by material, next by the short name of test apparatus used, and where applicable additional filtering by test settings.

### Test Apparatus and Data File Structure
- __Cone Calorimeter__ (Cone)
    + Data file structure includes the material, the short name for the apparatus, heat flux setting and scan/scalar, date of test, and replicate number. Scan is for the raw output data and scalar is for the initial conditions and high-level test parameters. 
        * Example: __MDF_Cone_HF25scalar_210323_R1__ stands for the first replicate of scalar data generated from a medium density fiber board test in cone calorimeter exposed to 25 kW/m<sup>2</sup> on March 23, 2021.
    + A _Cone_Notes.csv_ is generated for each material from the __plot_Cone_data.py__ script. For materials whose experiments deviated from typical behavior relevant pictures are included in the respective material directory.
- __Fourier Transform Infrared Spectrometer__ (FTIR)
    + The FTIR directory contains subdirectories for the Attenuated Total Reflectance method (ATR) and the Integrating Sphere (IS)
    + Data file structure for the ATR experiment files includes the material, the abbreviated name for the apparatus, date of test, and replicate number. 
        * Example: __MDF_ATR_210323_R5__ stands for the fifth replicate of data collected with the ATR accessory conducted on June 8, 2021.
    + Data file structure for the IS experiment files includes the material, the abbreviated name for the apparatus, the measurand, whether the test is a sample measurement or standard reference, date of test, and replicate number.
        * Example: __OSB_IS_REFLECT_MEAS_2

File: Vinyl_Siding_IS_S_220914_R1.dpt
7497.03,0.76554
7473.89,0.74831
7450.74,0.75319
7427.6,0.74429
7404.45,0.73995
7381.31,0.73586
7358.16,0.71932
7335.02,0.71709
7311.87,0.69369
7288.73,0.66670
7265.58,0.64529
7242.44,0.62921
7219.29,0.60080
7196.15,0.61869
7173,0.60607
7149.86,0.59603
7126.71,0.58141
7103.57,0.59401
7080.42,0.58222
7057.28,0.57855
7034.13,0.57410
7010.99,0.57265
6987.84,0.58166
6964.7,0.59765
6941.55,0.61069
6918.41,0.61067
6895.26,0.62143
6872.12,0.63116
6848.97,0.62875
6825.83,0.63433
6802.68,0.63144
6779.54,0.63850
6756.39,0.64191
6733.25,0.64493
6710.1,0.64719
6686.96,0.65755
6663.82,0.65147
6640.67,0.65392
6617.53,0.65435
6594.38,0.65687
6571.24,0.65946
6548.09,0.65821
6524.95,0.65683
6501.8,0.65806
6478.66,0.66129
6455.51,0.66466
6432.37,0.67054
6409.22,0.66746
6386.08,0.66502
6362.93,0.66572
6339.79,0.66703
6316.64,0.66870
6293.5,0.66471
6270.35,0.66421
6247.21,0.66250
6224.06,0.66255
6200.92,0.65664
6177.77,0.65296
6154.63,0.63928
6131.48,0.63080
6108.34,0.62349
6085.19,0.61501
6062.05,0.61776
6038.9,0.59330
6015.76,0.53619
5992.61,0.47566
5969.47,0.42729
5946.32,0.40790
5923.18,0.38225
5900.03,0.33597
5876.89,0.31419
5853.74,0.29323
5830.6,0.28212
5807.45,0.29084
5784.31,0.30877
5761.16,0.31871
5738.02,0.30568
5714.87,0.29814
5691.73,0.30647
5668.58,0.32563
5645.44,0.33603
5622.29,0.34557
5599.15,0.35219
5576,0.36051
5552.86,0.36993
5529.71,0.37626
5506.57,0.37760
5483.42,0.37520
5460.28,0.37287
5437.13,0.37899
5413.99,0.38293
5390.84,0.38503
5367.7,0.39101
5344.55,0.40153
5321.41,0.41091
5298.26,0.41014
5275.12,0.39735
5251.97,0.37383
5228.83,0.38372
5205.68,0.39151
5182.54,0.38806
5159.39,0.38338
5136.25,0.38150
5113.1,0.39299
5089.96,0.39813
5066.81,0.40283
5043.67,0.40761
5020.52,0.41110
4997.38,0.41123
4974.23,0.41000
4951.09,0.40922
4927.94,0.40920
4904.8,0.40545
4881.65,0.39724
4858.51,0.39284
4835.36,0.39593
4812.22,0.39775
4789.07,0.39584
4765.93,0.38988
4742.78,0.38671
4719.64,0.37385
4696.49,0.35266
4673.35,0.28722
4650.2,0.30480
4627.06,0.28600
4603.92,0.28882
4580.77,0.31063
4557.63,0.32963
4534.48,0.33205
4511.34,0.32015
4488.19,0.30502
4465.05,0.27261
4441.9,0.22707
4418.76,0.18622
4395.61,0.15352
4372.47,0.13283
4349.32,0.12592
4326.18,0.13159
4303.03,0.13431
4279.89,0.12713
4256.74,0.12238
4233.6,0.12332
4210.45,0.12335
4187.31,0.12697
4164.16,0.12766
4141.02,0.12938
4117.87,0.12769
4094.73,0.12335
4071.58,0.11240
4048.44,0.10891
4025.29,0.11553
4002.15,0.12746
3979,0.13370
3955.86,0.13700
3932.71,0.13773
3909.57,0.13942
3886.42,0.14011
3863.28,0.14008
3840.13,0.13925
3816.99,0.13939
3793.84,0.14388
3770.7,0.14600
3747.55,0.14781
3724.41,0.14827
3701.26,0.13272
3678.12,0.10573
3654.97,0.09251
3631.83,0.09359
3608.68,0.09435
3585.54,0.09326
3562.39,0.08964
3539.25,0.08579
3516.1,0.08563
3492.96,0.08638
3469.81,0.08497
3446.67,0.07993
3423.52,0.08320
3400.38,0.08302
3377.23,0.08014
3354.09,0.07590
3330.94,0.06799
3307.8,0.06000
3284.65,0.06622
3261.51,0.07219
3238.36,0.07665
3215.22,0.07730
3192.07,0.07819
3168.93,0.07900
3145.78,0.07975
3122.64,0.07706
3099.49,0.06650
3076.35,0.05990
3053.2,0.05854
3030.06,0.05478
3006.91,0.05913
2983.77,0.05632
2960.62,0.05150
2937.48,0.05395
2914.33,0.06001
2891.19,0.05840
2868.04,0.05749
2844.9,0.06207
2821.75,0.06852
2798.61,0.07026
2775.46,0.07291
2752.32,0.07309
2729.17,0.07343
2706.03,0.07409
2682.88,0.07420
2659.74,0.07377
2636.59,0.07375
2613.45,0.07367
2590.3,0.07315
2567.16,0.07327
2544.02,0.07316
2520.87,0.07259
2497.73,0.07228
2474.58,0.07364
2451.44,0.07439
2428.29,0.07458
2405.15,0.07441
2382,0.07511
2358.86,0.07376
2335.71,0.07232
2312.57,0.07408
2289.42,0.07461
2266.28,0.07269
2243.13,0.05673
2219.99,0.07694
2196.84,0.08061
2173.7,0.08205
2150.55,0.08197
2127.41,0.08320
2104.26,0.08808
2081.12,0.08841
2057.97,0.08578
2034.83,0.08238
2011.68,0.08218
1988.54,0.07741
1965.39,0.07099
1942.25,0.07208
1919.1,0.08061
1895.96,0.07298
1872.81,0.07240
1849.67,0.08132
1826.52,0.07017
1803.38,0.06055
1780.23,0.05965
1757.09,0.05229
1733.94,0.05333
1710.8,0.05829
1687.65,0.05871
1664.51,0.05851
1641.36,0.05844
1618.22,0.05942
1595.07,0.05748
1571.93,0.05713
1548.78,0.05479
1525.64,0.05875
1502.49,0.05451
1479.35,0.05331
1456.2,0.05078
1433.06,0.05651
1409.91,0.05620
1386.77,0.05350
1363.62,0.05378
1340.48,0.05338
1317.33,0.05309
1294.19,0.05267
1271.04,0.05159
1247.9,0.05287
1224.75,0.05405
1201.61,0.05234
1178.46,0.05206
1155.32,0.06010
1132.17,0.05760
1109.03,0.05678
1085.88,0.05519
1062.74,0.05628
1039.59,0.05603
1016.45,0.05749
993.304,0.05558
970.159,0.05526
947.014,0.05535
923.869,0.05447
900.724,0.05473
877.579,0.05427
854.434,0.05286
831.289,0.05349
808.144,0.05161
784.999,0.04902
761.854,0.05016
738.709,0.05330
715.565,0.04347
692.42,0.06720
669.275,0.05679
646.13,0.05510
622.985,0.05512
599.84,0.05350

File: Vinyl_Siding_IS_S_220914_R2.dpt
7497.03,0.75079
7473.89,0.75126
7450.74,0.74748
7427.6,0.73703
7404.45,0.72893
7381.31,0.73124
7358.16,0.72183
7335.02,0.70479
7311.87,0.70085
7288.73,0.66980
7265.58,0.64303
7242.44,0.62109
7219.29,0.61450
7196.15,0.61878
7173,0.60787
7149.86,0.59563
7126.71,0.58645
7103.57,0.58348
7080.42,0.57486
7057.28,0.57645
7034.13,0.57682
7010.99,0.57358
6987.84,0.58422
6964.7,0.59456
6941.55,0.60469
6918.41,0.60912
6895.26,0.61716
6872.12,0.61778
6848.97,0.63005
6825.83,0.63399
6802.68,0.63511
6779.54,0.63110
6756.39,0.63816
6733.25,0.64279
6710.1,0.64397
6686.96,0.64843
6663.82,0.65112
6640.67,0.65692
6617.53,0.65844
6594.38,0.65617
6571.24,0.65773
6548.09,0.65329
6524.95,0.65322
6501.8,0.65557
6478.66,0.65796
6455.51,0.66011
6432.37,0.66235
6409.22,0.66485
6386.08,0.66432
6362.93,0.66449
6339.79,0.66492
6316.64,0.66311
6293.5,0.66076
6270.35,0.66179
6247.21,0.65573
6224.06,0.66080
6200.92,0.65866
6177.77,0.65625
6154.63,0.64027
6131.48,0.62579
6108.34,0.61715
6085.19,0.61403
6062.05,0.61731
6038.9,0.59367
6015.76,0.53556
5992.61,0.47567
5969.47,0.42560
5946.32,0.40965
5923.18,0.38238
5900.03,0.33564
5876.89,0.31134
5853.74,0.29390
5830.6,0.27983
5807.45,0.29115
5784.31,0.30662
5761.16,0.31745
5738.02,0.30334
5714.87,0.29987
5691.73,0.30431
5668.58,0.32324
5645.44,0.33775
5622.29,0.34479
5599.15,0.34946
5576,0.36088
5552.86,0.36873
5529.71,0.37483
5506.57,0.37584
5483.42,0.37341
5460.28,0.37067
5437.13,0.37847
5413.99,0.38173
5390.84,0.38492
5367.7,0.39024
5344.55,0.40138
5321.41,0.40951
5298.26,0.41112
5275.12,0.39658
5251.97,0.37658
5228.83,0.38749
5205.68,0.39218
5182.54,0.38824
5159.39,0.38419
5136.25,0.38171
5113.1,0.39162
5089.96,0.39875
5066.81,0.40318
5043.67,0.40604
5020.52,0.40967
4997.38,0.40987
4974.23,0.40966
4951.09,0.40983
4927.94,0.40693
4904.8,0.40508
4881.65,0.39595
4858.51,0.39136
4835.36,0.39464
4812.22,0.39721
4789.07,0.39545
4765.93,0.38947
4742.78,0.38630
4719.64,0.37206
4696.49,0.35460
4673.35,0.28628
4650.2,0.30533
4627.06,0.28422
4603.92,0.28845
4580.77,0.30959
4557.63,0.32941
4534.48,0.33122
4511.34,0.31996
4488.19,0.30426
4465.05,0.27268
4441.9,0.22728
4418.76,0.18547
4395.61,0.15293
4372.47,0.13188
4349.32,0.12604
4326.18,0.13147
4303.03,0.13361
4279.89,0.12684
4256.74,0.12265
4233.6,0.12377
4210.45,0.12273
4187.31,0.12619
4164.16,0.12832
4141.02,0.12864
4117.87,0.12748
4094.73,0.12328
4071.58,0.11284
4048.44,0.10826
4025.29,0.11564
4002.15,0.12687
3979,0.13392
3955.86,0.13704
3932.71,0.13722
3909.57,0.13846
3886.42,0.13908
3863.28,0.13980
3840.13,0.13843
3816.99,0.13894
3793.84,0.14351
3770.7,0.14626
3747.55,0.14868
3724.41,0.14836
3701.26,0.13327
3678.12,0.10921
3654.97,0.09635
3631.83,0.09593
3608.68,0.09778
3585.54,0.09603
3562.39,0.09074
3539.25,0.08768
3516.1,0.08813
3492.96,0.08784
3469.81,0.08638
3446.67,0.08107
3423.52,0.08454
3400.38,0.08392
3377.23,0.08179
3354.09,0.07629
3330.94,0.06803
3307.8,0.05940
3284.65,0.06581
3261.51,0.07228
3238.36,0.07685
3215.22,0.07768
3192.07,0.07809
3168.93,0.07874
3145.78,0.07925
3122.64,0.07669
3099.49,0.06560
3076.35,0.06053
3053.2,0.05816
3030.06,0.05497
3006.91,0.05888
2983.77,0.05544
2960.62,0.05144
2937.48,0.05440
2914.33,0.05991
2891.19,0.05798
2868.04,0.05662
2844.9,0.06203
2821.75,0.06798
2798.61,0.07053
2775.46,0.07228
2752.32,0.07322
2729.17,0.07267
2706.03,0.07402
2682.88,0.07430
2659.74,0.07424
2636.59,0.07350
2613.45,0.07326
2590.3,0.07335
2567.16,0.07308
2544.02,0.07330
2520.87,0.07227
2497.73,0.07184
2474.58,0.07353
2451.44,0.07444
2428.29,0.07397
2405.15,0.07413
2382,0.07496
2358.86,0.07360
2335.71,0.07211
2312.57,0.07429
2289.42,0.07458
2266.28,0.07266
2243.13,0.05726
2219.99,0.07661
2196.84,0.08070
2173.7,0.08192
2150.55,0.08183
2127.41,0.08348
2104.26,0.08805
2081.12,0.08851
2057.97,0.08588
2034.83,0.08257
2011.68,0.08216
1988.54,0.07712
1965.39,0.07113
1942.25,0.07207
1919.1,0.08077
1895.96,0.07260
1872.81,0.07230
1849.67,0.08131
1826.52,0.06999
1803.38,0.06023
1780.23,0.05960
1757.09,0.05177
1733.94,0.05331
1710.8,0.05814
1687.65,0.05862
1664.51,0.05865
1641.36,0.05821
1618.22,0.05949
1595.07,0.05710
1571.93,0.05742
1548.78,0.05456
1525.64,0.05871
1502.49,0.05431
1479.35,0.05336
1456.2,0.05059
1433.06,0.05612
1409.91,0.05579
1386.77,0.05359
1363.62,0.05332
1340.48,0.05326
1317.33,0.05243
1294.19,0.05242
1271.04,0.05142
1247.9,0.05278
1224.75,0.05352
1201.61,0.05251
1178.46,0.05181
1155.32,0.06029
1132.17,0.05752
1109.03,0.05688
1085.88,0.05531
1062.74,0.05581
1039.59,0.05525
1016.45,0.05667
993.304,0.05536
970.159,0.05516
947.014,0.05509
923.869,0.05458
900.724,0.05477
877.579,0.05433
854.434,0.05256
831.289,0.05441
808.144,0.05192
784.999,0.04840
761.854,0.04978
738.709,0.05356
715.565,0.04452
692.42,0.06739
669.275,0.05606
646.13,0.05452
622.985,0.05628
599.84,0.05204

File: Vinyl_Siding_IS_S_220914_R3.dpt
7497.03,0.74797
7473.89,0.75172
7450.74,0.74137
7427.6,0.74365
7404.45,0.73863
7381.31,0.73705
7358.16,0.71603
7335.02,0.70980
7311.87,0.69248
7288.73,0.67039
7265.58,0.64577
7242.44,0.62460
7219.29,0.61745
7196.15,0.60639
7173,0.60829
7149.86,0.60308
7126.71,0.59331
7103.57,0.58926
7080.42,0.58189
7057.28,0.58072
7034.13,0.58185
7010.99,0.58030
6987.84,0.57615
6964.7,0.59542
6941.55,0.60481
6918.41,0.60834
6895.26,0.61313
6872.12,0.62501
6848.97,0.62686
6825.83,0.63343
6802.68,0.63125
6779.54,0.63769
6756.39,0.63558
6733.25,0.63828
6710.1,0.64788
6686.96,0.64654
6663.82,0.65062
6640.67,0.65107
6617.53,0.64937
6594.38,0.65483
6571.24,0.65947
6548.09,0.65271
6524.95,0.65157
6501.8,0.65716
6478.66,0.65662
6455.51,0.65999
6432.37,0.66317
6409.22,0.66814
6386.08,0.66518
6362.93,0.66341
6339.79,0.66634
6316.64,0.66217
6293.5,0.66314
6270.35,0.66390
6247.21,0.65859
6224.06,0.66179
6200.92,0.66051
6177.77,0.65013
6154.63,0.63904
6131.48,0.62882
6108.34,0.61915
6085.19,0.61380
6062.05,0.61364
6038.9,0.59030
6015.76,0.53258
5992.61,0.47246
5969.47,0.42439
5946.32,0.41060
5923.18,0.38048
5900.03,0.33548
5876.89,0.31121
5853.74,0.29387
5830.6,0.28175
5807.45,0.29104
5784.31,0.30657
5761.16,0.31489
5738.02,0.30295
5714.87,0.29700
5691.73,0.30128
5668.58,0.32589
5645.44,0.33592
5622.29,0.34464
5599.15,0.34852
5576,0.35922
5552.86,0.36721
5529.71,0.37475
5506.57,0.37695
5483.42,0.37324
5460.28,0.36958
5437.13,0.37814
5413.99,0.38192
5390.84,0.38373
5367.7,0.39022
5344.55,0.40150
5321.41,0.40723
5298.26,0.41123
5275.12,0.39873
5251.97,0.37667
5228.83,0.38846
5205.68,0.39241
5182.54,0.38993
5159.39,0.38504
5136.25,0.38228
5113.1,0.39176
5089.96,0.39762
5066.81,0.40088
5043.67,0.40625
5020.52,0.40935
4997.38,0.40826
4974.23,0.40948
4951.09,0.40892
4927.94,0.40768
4904.8,0.40252
4881.65,0.39453
4858.51,0.39101
4835.36,0.39397
4812.22,0.39595
4789.07,0.39358
4765.93,0.38846
4742.78,0.38548
4719.64,0.37238
4696.49,0.35228
4673.35,0.28535
4650.2,0.30443
4627.06,0.28455
4603.92,0.28716
4580.77,0.30887
4557.63,0.32903
4534.48,0.32998
4511.34,0.31810
4488.19,0.30395
4465.05,0.27182
4441.9,0.22612
4418.76,0.18461
4395.61,0.15313
4372.47,0.13185
4349.32,0.12433
4326.18,0.13100
4303.03,0.13333
4279.89,0.12572
4256.74,0.12188
4233.6,0.12294
4210.45,0.12272
4187.31,0.12606
4164.16,0.12732
4141.02,0.12797
4117.87,0.12676
4094.73,0.12274
4071.58,0.11283
4048.44,0.10799
4025.29,0.11533
4002.15,0.12681
3979,0.13330
3955.86,0.13635
3932.71,0.13693
3909.57,0.13815
3886.42,0.13905
3863.28,0.13951
3840.13,0.13859
3816.99,0.13852
3793.84,0.14312
3770.7,0.14605
3747.55,0.14902
3724.41,0.14885
3701.26,0.13501
3678.12,0.11065
3654.97,0.09894
3631.83,0.09866
3608.68,0.09912
3585.54,0.09788
3562.39,0.09346
3539.25,0.09007
3516.1,0.08934
3492.96,0.08942
3469.81,0.08761
3446.67,0.08128
3423.52,0.08438
3400.38,0.08434
3377.23,0.08124
3354.09,0.07618
3330.94,0.06767
3307.8,0.05945
3284.65,0.06625
3261.51,0.07157
3238.36,0.07679
3215.22,0.07819
3192.07,0.07804
3168.93,0.07922
3145.78,0.07994
3122.64,0.07657
3099.49,0.06575
3076.35,0.05944
3053.2,0.05845
3030.06,0.05395
3006.91,0.05899
2983.77,0.05611
2960.62,0.05153
2937.48,0.05422
2914.33,0.05975
2891.19,0.05793
2868.04,0.05710
2844.9,0.06199
2821.75,0.06793
2798.61,0.06987
2775.46,0.07223
2752.32,0.07263
2729.17,0.07248
2706.03,0.07392
2682.88,0.07390
2659.74,0.07385
2636.59,0.07329
2613.45,0.07324
2590.3,0.07276
2567.16,0.07290
2544.02,0.07288
2520.87,0.07151
2497.73,0.07200
2474.58,0.07368
2451.44,0.07420
2428.29,0.07383
2405.15,0.07368
2382,0.07469
2358.86,0.07374
2335.71,0.07225
2312.57,0.07382
2289.42,0.07440
2266.28,0.07284
2243.13,0.05707
2219.99,0.07628
2196.84,0.08053
2173.7,0.08165
2150.55,0.08168
2127.41,0.08332
2104.26,0.08795
2081.12,0.08845
2057.97,0.08583
2034.83,0.08233
2011.68,0.08199
1988.54,0.07709
1965.39,0.07060
1942.25,0.07217
1919.1,0.08039
1895.96,0.07248
1872.81,0.07206
1849.67,0.08125
1826.52,0.06947
1803.38,0.06000
1780.23,0.05941
1757.09,0.05186
1733.94,0.05322
1710.8,0.05782
1687.65,0.05854
1664.51,0.05836
1641.36,0.05798
1618.22,0.05949
1595.07,0.05756
1571.93,0.05695
1548.78,0.05437
1525.64,0.05837
1502.49,0.05396
1479.35,0.05318
1456.2,0.05053
1433.06,0.05657
1409.91,0.05557
1386.77,0.05327
1363.62,0.05350
1340.48,0.05325
1317.33,0.05276
1294.19,0.05181
1271.04,0.05157
1247.9,0.05304
1224.75,0.05358
1201.61,0.05221
1178.46,0.05208
1155.32,0.06019
1132.17,0.05731
1109.03,0.05631
1085.88,0.05547
1062.74,0.05591
1039.59,0.05555
1016.45,0.05711
993.304,0.05560
970.159,0.05494
947.014,0.05453
923.869,0.05446
900.724,0.05442
877.579,0.05339
854.434,0.05226
831.289,0.05242
808.144,0.05166
784.999,0.04822
761.854,0.05028
738.709,0.05251
715.565,0.04453
692.42,0.06785
669.275,0.05676
646.13,0.05722
622.985,0.05603
599.84,0.05469

File: Vinyl_Siding_IS_S_220914_R4.dpt
7497.03,0.74956
7473.89,0.75709
7450.74,0.74952
7427.6,0.73709
7404.45,0.73481
7381.31,0.73017
7358.16,0.72782
7335.02,0.70933
7311.87,0.69619
7288.73,0.67339
7265.58,0.65732
7242.44,0.63357
7219.29,0.62088
7196.15,0.61756
7173,0.59982
7149.86,0.59066
7126.71,0.58561
7103.57,0.58455
7080.42,0.58434
7057.28,0.57102
7034.13,0.58580
7010.99,0.57195
6987.84,0.58621
6964.7,0.59936
6941.55,0.60349
6918.41,0.61187
6895.26,0.61844
6872.12,0.62206
6848.97,0.62957
6825.83,0.63261
6802.68,0.63259
6779.54,0.63775
6756.39,0.64326
6733.25,0.64161
6710.1,0.65006
6686.96,0.64954
6663.82,0.65190
6640.67,0.65779
6617.53,0.65351
6594.38,0.65363
6571.24,0.65359
6548.09,0.65577
6524.95,0.65450
6501.8,0.65763
6478.66,0.65858
6455.51,0.65919
6432.37,0.66287
6409.22,0.66513
6386.08,0.66932
6362.93,0.66356
6339.79,0.66474
6316.64,0.66519
6293.5,0.66023
6270.35,0.65960
6247.21,0.66154
6224.06,0.65779
6200.92,0.65783
6177.77,0.65225
6154.63,0.63977
6131.48,0.62642
6108.34,0.61955
6085.19,0.61190
6062.05,0.61559
6038.9,0.59274
6015.76,0.53199
5992.61,0.47013
5969.47,0.42373
5946.32,0.41014
5923.18,0.38162
5900.03,0.33585
5876.89,0.31102
5853.74,0.29318
5830.6,0.28521
5807.45,0.29088
5784.31,0.30715
5761.16,0.31702
5738.02,0.30454
5714.87,0.29790
5691.73,0.30500
5668.58,0.32474
5645.44,0.33550
5622.29,0.34288
5599.15,0.35023
5576,0.36220
5552.86,0.36869
5529.71,0.37401
5506.57,0.37429
5483.42,0.37183
5460.28,0.37097
5437.13,0.37673
5413.99,0.38345
5390.84,0.38342
5367.7,0.39107
5344.55,0.40120
5321.41,0.40881
5298.26,0.41036
5275.12,0.40001
5251.97,0.38088
5228.83,0.39144
5205.68,0.39356
5182.54,0.39036
5159.39,0.38509
5136.25,0.38229
5113.1,0.39235
5089.96,0.40025
5066.81,0.40286
5043.67,0.40861
5020.52,0.41063
4997.38,0.41023
4974.23,0.41099
4951.09,0.41034
4927.94,0.40758
4904.8,0.40298
4881.65,0.39698
4858.51,0.39217
4835.36,0.39479
4812.22,0.39709
4789.07,0.39396
4765.93,0.38957
4742.78,0.38522
4719.64,0.37171
4696.49,0.35230
4673.35,0.28661
4650.2,0.30470
4627.06,0.28506
4603.92,0.28902
4580.77,0.30902
4557.63,0.32824
4534.48,0.33057
4511.34,0.31921
4488.19,0.30332
4465.05,0.27250
4441.9,0.22768
4418.76,0.18569
4395.61,0.15298
4372.47,0.13151
4349.32,0.12553
4326.18,0.13089
4303.03,0.13316
4279.89,0.12648
4256.74,0.12198
4233.6,0.12325
4210.45,0.12306
4187.31,0.12608
4164.16,0.12756
4141.02,0.12943
4117.87,0.12651
4094.73,0.12288
4071.58,0.11279
4048.44,0.10802
4025.29,0.11518
4002.15,0.12708
3979,0.13338
3955.86,0.13734
3932.71,0.13684
3909.57,0.13832
3886.42,0.14002
3863.28,0.14048
3840.13,0.13830
3816.99,0.13882
3793.84,0.14454
3770.7,0.14690
3747.55,0.14899
3724.41,0.14978
3701.26,0.13561
3678.12,0.11198
3654.97,0.10050
3631.83,0.10048
3608.68,0.10013
3585.54,0.09939
3562.39,0.09438
3539.25,0.09110
3516.1,0.09107
3492.96,0.08959
3469.81,0.08898
3446.67,0.08178
3423.52,0.08493
3400.38,0.08501
3377.23,0.08163
3354.09,0.07625
3330.94,0.06732
3307.8,0.06044
3284.65,0.06595
3261.51,0.07225
3238.36,0.07711
3215.22,0.07855
3192.07,0.07846
3168.93,0.07901
3145.78,0.07983
3122.64,0.07681
3099.49,0.06584
3076.35,0.06051
3053.2,0.05867
3030.06,0.05435
3006.91,0.05899
2983.77,0.05618
2960.62,0.05161
2937.48,0.05411
2914.33,0.05967
2891.19,0.05790
2868.04,0.05702
2844.9,0.06211
2821.75,0.06771
2798.61,0.07015
2775.46,0.07263
2752.32,0.07321
2729.17,0.07274
2706.03,0.07379
2682.88,0.07397
2659.74,0.07417
2636.59,0.07327
2613.45,0.07370
2590.3,0.07291
2567.16,0.07288
2544.02,0.07265
2520.87,0.07220
2497.73,0.07168
2474.58,0.07326
2451.44,0.07416
2428.29,0.07407
2405.15,0.07401
2382,0.07443
2358.86,0.07440
2335.71,0.07245
2312.57,0.07381
2289.42,0.07453
2266.28,0.07303
2243.13,0.05677
2219.99,0.07671
2196.84,0.08052
2173.7,0.08192
2150.55,0.08141
2127.41,0.08365
2104.26,0.08818
2081.12,0.08868
2057.97,0.08578
2034.83,0.08239
2011.68,0.08209
1988.54,0.07700
1965.39,0.07121
1942.25,0.07193
1919.1,0.08071
1895.96,0.07259
1872.81,0.07201
1849.67,0.08135
1826.52,0.06952
1803.38,0.06002
1780.23,0.05958
1757.09,0.05188
1733.94,0.05358
1710.8,0.05832
1687.65,0.05857
1664.51,0.05838
1641.36,0.05805
1618.22,0.05973
1595.07,0.05739
1571.93,0.05718
1548.78,0.05433
1525.64,0.05822
1502.49,0.05448
1479.35,0.05304
1456.2,0.05002
1433.06,0.05663
1409.91,0.05577
1386.77,0.05342
1363.62,0.05330
1340.48,0.05346
1317.33,0.05265
1294.19,0.05243
1271.04,0.05158
1247.9,0.05244
1224.75,0.05393
1201.61,0.05223
1178.46,0.05184
1155.32,0.05958
1132.17,0.05693
1109.03,0.05631
1085.88,0.05508
1062.74,0.05582
1039.59,0.05540
1016.45,0.05656
993.304,0.05600
970.159,0.05492
947.014,0.05463
923.869,0.05460
900.724,0.05462
877.579,0.05404
854.434,0.05314
831.289,0.05286
808.144,0.05159
784.999,0.04839
761.854,0.05011
738.709,0.05279
715.565,0.04410
692.42,0.06697
669.275,0.05765
646.13,0.05561
622.985,0.05347
599.84,0.05335