Folder: fsri_materials_database/01_Data/Barrel_Chair/Furniture_Calorimeter (part 2)

File: Barrel_Chair_R3.csv
Time (s),Convective HRR,TCPlume1,TCPlume2,TCPlume3,DPPlume1,DPPlume2,DPPlume3,HF1,HF2,HF3,HF4,HF5,HF6,RAD2,RAD1,Load Cell,Heat Release Rate,Total Heat Released
-120,0.0,7.68487,8.34573,19.7963,0.105255,-0.0999501,0.00491476,0.0876532,0.0679686,-0.431102,0.528939,-0.107129,0.105769,0.281084,0.964651,9.43732,0.0,0.0
-100,0.0,5.17582,8.36237,19.8887,-0.0466594,-0.0239982,-0.0254674,-0.71471,0.0679686,1.19751,-0.333304,-0.107129,-0.0356525,0.281084,1.92317,9.56191,0.0,0.0
-80,0.0,5.06653,6.95246,18.8305,0.00651062,0.0595488,0.00491476,0.890017,0.0679686,-0.431102,1.39118,-0.107129,0.105769,0.447131,0.00613451,9.60344,0.0,0.0
-60,0.0,4.79857,6.83767,17.9561,0.00651062,-0.0695694,-0.0406585,0.890017,-0.830727,0.383202,-0.333304,-0.482082,0.105769,0.447131,1.92317,9.64498,0.0,0.0
-40,0.0,4.22432,6.49326,17.5757,0.0368935,-0.0164031,-0.0178719,0.0876532,0.0679686,0.383202,-0.333304,-0.107129,-0.0356525,0.447131,1.92317,9.74881,0.0,0.0
-20,0.0,4.53059,5.68952,17.3474,0.0672764,0.00638251,0.0201059,0.890017,0.0679686,1.19751,0.528939,0.267823,0.105769,0.613177,1.92317,9.60344,0.0,0.0
0,0.0,2.10743,4.87454,16.9938,-0.0390637,-0.0391886,-0.0786362,0.0876532,0.0679686,1.19751,0.528939,0.267823,-0.177074,0.447131,2.88169,9.64498,0.0,0.0
20,0.0,3.21221,4.17987,16.265,-0.0162766,-0.0695694,0.0277014,0.0876532,-0.830727,1.19751,0.528939,-0.107129,0.247191,0.447131,0.964651,9.76957,0.0,0.0
40,0.0,2.32049,3.78589,16.1777,-0.0238723,-0.0467838,-0.0254674,0.890017,0.0679686,1.19751,0.528939,-0.482082,0.247191,0.281084,1.92317,9.79034,0.0,0.0
60,0.0,2.16734,3.47959,17.3579,0.0292978,0.0747392,0.103657,0.0876532,-0.830727,0.383202,-1.19555,0.267823,-0.0356525,0.281084,1.92317,9.9357,0.0,0.0
80,0.0,2.76883,4.61708,18.2217,0.355914,1.20642,1.18982,1.69238,-0.830727,2.01181,0.528939,-0.107129,0.388613,0.613177,1.92317,9.76957,21.7636,0.05088
100,0.0,15.6369,21.7274,35.0808,2.30042,2.20139,0.77966,5.7042,1.86536,2.01181,1.39118,1.39268,0.530035,1.27736,5.75724,9.76957,129.799,1.68456
120,0.0,25.5972,32.0474,48.1701,1.9814,0.234238,0.293545,5.7042,2.76405,2.82612,2.25342,1.76763,0.812878,0.945271,5.75724,9.60344,180.743,4.39169
140,0.0,30.6676,39.2897,57.3119,1.53325,1.2444,4.44831,16.1349,4.56145,5.26903,3.11567,2.51754,1.51999,1.7755,13.4254,9.43732,312.487,9.49813
160,64.0115,39.2621,53.6969,74.5203,2.09533,1.68492,1.12146,18.542,5.46014,6.89764,4.84015,3.26744,1.94425,2.1076,15.3424,9.27119,365.234,16.9203
180,96.5232,48.3479,64.7189,86.942,4.2829,3.84955,3.96979,25.7633,8.15623,8.52625,6.56464,4.3923,3.07563,3.26993,24.9276,8.7728,485.442,25.6567
200,165.808,64.6122,89.423,119.429,1.02434,4.05462,2.80767,26.5657,7.25753,8.52625,8.28912,4.76725,2.9342,3.10388,23.9691,8.29518,655.11,37.0471
220,228.091,79.4069,107.955,145.752,6.45528,5.9838,3.68875,36.9964,13.5484,14.2264,11.7381,7.01697,4.77269,4.5983,35.4713,7.92139,762.878,51.7677
240,307.608,85.6271,113.096,169.031,8.89351,6.98636,8.40559,37.7987,13.5484,14.2264,15.1871,7.76687,5.19695,4.93039,35.4713,7.11151,658.462,66.9467
260,281.284,78.3117,103.149,160.215,3.09037,6.05975,4.72175,28.9727,9.05492,9.34055,10.8759,5.89211,4.34842,4.10016,26.8446,6.447,654.31,80.7194
280,270.629,73.1947,93.9083,154.264,1.82948,4.16855,1.4025,24.9609,8.15623,9.34055,9.15137,5.89211,4.34842,4.43225,24.9276,5.78248,561.61,92.5515
300,223.443,70.5702,91.3855,149.803,1.32817,2.5128,1.562,27.368,7.25753,9.34055,10.0136,5.51716,3.92416,3.60202,24.9276,5.63712,423.396,102.439
320,171.904,56.7532,75.9298,134.199,2.20927,1.5634,1.51643,14.5302,4.56145,5.26903,7.42688,2.89249,2.08567,2.27365,14.3839,4.80647,387.334,110.435
340,147.775,47.9755,62.5498,120.27,1.38893,0.636783,5.50409,12.1231,2.76405,3.64042,5.7024,2.14259,1.94425,1.7755,12.4669,4.49498,265.788,116.608
360,92.972,36.4162,48.1823,102.751,0.933189,0.408928,2.94439,9.71602,2.76405,5.26903,4.84015,2.14259,1.37857,1.60946,9.5913,4.32885,205.455,121.378
380,52.7405,31.7216,44.7609,94.3673,1.632,3.16598,0.0201059,7.30893,2.76405,3.64042,4.84015,1.76763,1.23714,1.27736,6.71575,3.97583,183.337,125.124
400,38.2481,27.744,35.1924,83.0946,1.66238,1.59378,0.703705,7.30893,1.86536,2.82612,3.11567,1.76763,0.9543,0.945271,6.71575,3.78893,186.697,128.972
420,33.7062,26.181,35.9619,78.273,2.08014,2.33051,1.25818,7.30893,1.86536,2.82612,3.11567,1.39268,0.9543,1.11132,5.75724,3.53974,186.589,132.737
440,30.5195,27.1724,35.5606,76.1195,1.2674,1.7153,0.84802,7.30893,2.76405,2.01181,3.97791,1.39268,1.09572,1.27736,5.75724,3.33208,216.524,136.636
460,43.2049,31.8169,41.0631,77.4184,2.29282,2.26975,1.44807,7.30893,2.76405,1.19751,4.84015,1.39268,1.09572,1.44341,8.63279,3.14518,199.149,141.001
480,22.9954,28.5178,34.5759,70.7907,2.08774,1.60137,0.977145,8.11129,1.86536,3.64042,4.84015,1.39268,1.09572,0.945271,7.67427,2.81293,216.195,145.029
500,27.9121,28.6897,38.3358,72.0585,1.76872,4.26728,0.544198,8.11129,2.76405,2.82612,3.97791,1.01773,0.9543,1.60946,7.67427,2.62603,200.839,149.203
520,27.802,25.0786,35.1316,70.2347,2.8701,1.10009,6.15731,9.71602,1.86536,2.82612,3.97791,1.39268,1.37857,1.44341,8.63279,2.31454,191.93,153.29
540,25.1623,26.2598,35.5536,68.6306,3.30305,0.781092,1.75949,7.30893,1.86536,2.82612,3.11567,1.39268,1.09572,1.27736,7.67427,2.16918,170.477,156.809
560,11.9442,26.4267,33.5094,66.9946,1.25981,2.27734,2.89122,7.30893,1.86536,3.64042,4.84015,1.01773,0.812878,1.11132,6.71575,2.02381,142.67,159.979
580,0.0,26.3184,33.8517,67.4032,2.28523,2.3457,0.992336,5.7042,0.966664,2.82612,2.25342,1.01773,0.671456,0.779224,4.79872,1.81615,143.226,162.971
600,0.0,20.956,28.037,61.1322,0.393893,3.24193,0.832829,4.90183,1.86536,3.64042,3.11567,0.642776,0.812878,1.11132,5.75724,1.65003,123.507,165.423
620,0.0,18.5692,26.8731,58.3778,0.462254,0.484879,1.9038,4.90183,2.76405,2.82612,3.11567,1.39268,0.812878,1.11132,5.75724,1.60849,93.8229,167.563
640,0.0,17.4661,23.1691,54.4714,0.728104,0.796282,0.658132,4.09947,0.966664,1.19751,1.39118,0.642776,0.388613,0.945271,5.75724,1.4839,84.7633,169.315
660,0.0,14.2397,18.704,49.6424,0.7357,0.613998,0.346714,4.09947,1.86536,1.19751,2.25342,1.01773,0.530035,1.11132,6.71575,1.50466,53.8435,170.659
680,0.0,10.657,15.932,46.7585,0.46985,1.18364,2.18484,2.49474,0.966664,1.19751,-0.333304,0.267823,0.530035,0.945271,3.8402,1.3593,67.4707,172.141
700,0.0,10.7384,15.7085,44.1656,0.439467,2.59634,1.65315,2.49474,0.0679686,1.19751,2.25342,0.642776,0.388613,0.613177,3.8402,1.31777,34.2717,173.17
720,0.0,8.45553,12.2491,40.9396,0.0368935,0.10512,0.0201059,3.29711,0.0679686,1.19751,1.39118,1.01773,0.530035,0.613177,3.8402,1.33853,26.001,173.674
740,0.0,6.85942,11.5724,39.3098,0.872423,0.446903,0.126443,2.49474,1.86536,1.19751,3.11567,0.642776,0.388613,0.613177,2.88169,1.1724,32.2858,174.234
760,0.0,5.73246,8.6126,35.2945,0.226787,0.0367633,0.118848,2.49474,0.966664,2.01181,2.25342,0.642776,0.388613,0.779224,4.79872,1.19317,32.4074,174.877
780,0.0,4.51255,8.96179,33.8384,0.781274,1.13807,0.156826,3.29711,0.966664,2.01181,1.39118,0.642776,0.247191,0.447131,2.88169,1.15164,6.30702,175.275
800,0.0,3.71915,7.25114,32.3482,-0.0010851,0.067144,0.384692,2.49474,1.86536,0.383202,1.39118,1.01773,0.530035,0.613177,3.8402,1.15164,18.8264,175.545
820,0.0,2.9529,7.02107,30.6194,0.105255,0.12031,0.172017,3.29711,1.86536,0.383202,2.25342,0.267823,0.388613,0.613177,3.8402,1.1724,27.9239,176.013
840,0.0,2.60782,5.26004,28.6241,0.0141063,0.00638251,-0.0178719,3.29711,0.966664,-0.431102,0.528939,0.267823,0.388613,0.613177,3.8402,1.15164,23.1418,176.581
860,0.0,2.07131,3.84304,26.7759,-0.0390637,0.0595488,-0.0482541,3.29711,0.966664,2.01181,2.25342,0.642776,0.105769,0.779224,3.8402,1.15164,23.501,177.04
880,0.0,2.88039,4.03952,25.4592,-0.0010851,0.887424,0.172017,1.69238,0.966664,2.82612,0.528939,1.01773,0.247191,0.447131,1.92317,1.1724,18.7608,177.555
900,0.0,1.88444,3.23499,24.0598,0.0292978,-0.0164031,-0.00268078,1.69238,0.0679686,-0.431102,2.25342,0.642776,-0.0356525,0.779224,3.8402,1.13087,21.0654,177.916
920,0.0,0.7027,3.0869,23.6485,0.0368935,0.0595488,-0.00268078,1.69238,-0.830727,1.19751,1.39118,0.642776,0.247191,0.447131,3.8402,1.15164,14.7687,178.292
940,0.0,-0.513857,3.36551,23.4319,0.128042,0.287405,0.141635,1.69238,1.86536,2.82612,1.39118,0.642776,0.388613,0.613177,3.8402,0.943977,11.7645,178.568
960,0.0,0.0892938,2.12872,22.8146,-0.0010851,0.0367633,0.156826,0.890017,0.0679686,1.19751,1.39118,0.267823,0.105769,0.281084,2.88169,1.04781,14.5889,178.805
980,0.0,-1.03224,1.12726,21.5959,0.0748721,0.0823344,0.164421,2.49474,1.86536,2.01181,0.528939,0.267823,0.105769,0.613177,3.8402,1.21394,33.0019,179.279
1000,0.0,-0.537556,1.27439,20.8314,0.143234,0.0139777,0.118848,0.890017,0.0679686,0.383202,0.528939,0.267823,0.105769,0.447131,1.92317,1.19317,39.2971,179.931
1020,0.0,-0.543594,1.19182,20.7875,0.052085,0.492475,0.825234,1.69238,0.966664,0.383202,0.528939,0.642776,0.105769,0.447131,1.92317,0.964743,20.1305,180.529
1040,0.0,-0.472665,0.649858,19.3388,-0.031468,-0.0239982,0.0808702,1.69238,1.86536,0.383202,0.528939,0.642776,0.247191,0.779224,3.8402,1.00628,12.5096,180.797
1060,0.0,-0.973758,0.304877,19.0344,-0.00868083,0.598807,0.14923,2.49474,0.0679686,0.383202,2.25342,0.642776,0.247191,0.779224,2.88169,1.00628,7.89732,180.982
1080,0.0,-1.56406,-0.512755,18.8329,0.0368935,-0.00880787,0.0428925,0.890017,0.966664,0.383202,1.39118,0.267823,0.105769,0.779224,3.8402,1.02704,19.2767,181.277
1100,0.0,-1.74648,0.150846,18.8435,0.052085,0.0215729,0.0277014,2.49474,0.966664,1.19751,0.528939,0.267823,0.247191,0.447131,2.88169,0.98551,22.2051,181.632
1120,0.0,-1.6036,-0.244417,18.0717,0.0976593,0.112715,0.00491476,0.890017,1.86536,1.19751,2.25342,0.267823,0.247191,0.447131,3.8402,1.02704,43.5419,182.254
1140,0.0,-0.684123,-0.558179,17.6474,-0.0010851,-0.00880787,0.369501,2.49474,0.0679686,2.01181,0.528939,-0.107129,0.105769,0.613177,2.88169,1.19317,35.4716,183.026
1160,0.0,-2.20108,-0.877848,17.2935,0.00651062,-0.0315934,0.164421,1.69238,0.966664,0.383202,1.39118,-0.107129,0.247191,0.281084,2.88169,0.98551,47.6334,183.955
1178,0.0,-2.15167,-0.366702,17.266,-0.0770423,0.0139777,-0.0254674,2.49474,0.966664,1.19751,1.39118,0.267823,0.105769,0.779224,3.8402,0.98551,0.0,184.132