Folder: fsri_materials_database/01_Data/Barrel_Chair/Furniture_Calorimeter

Note: README.md
# Materials and Products Database
### Repository of materials and products properties and fire test data to improve fire modeling and fire investigation.

This project was supported in part by Award No. 2019-DU-BX-0018, awarded by the National Institute of Justice, Office of Justice Programs, U.S. Department of Justice. The opinions, findings, and conclusions or recommendations expressed in this publication / program / exhibition are those of the author(s) and do not necessarily reflect those of the Department of Justice.

***
***

__Cite this database:__ "McKinnon, M., Weinschenk, C., Dow, N., DiDomizio, M., and Madrzykowski, D. Materials and Products Database (Version 1.0.0), Fire Safety Research Institute, UL Research Institutes. Columbia, MD 21045, 2023."

__Cite the Technical Reference Guide:__ "McKinnon, M., Weinschenk, C., and Madrzykowski, D. Materials and Products Database - Technical Reference Guide, Fire Safety Research Institute, UL Research Institutes. Columbia, MD 21045, 2023."

__Cite the User Guide:__ "McKinnon, M., and Weinschenk, C. Materials and Products Database - User Guide, Fire Safety Research Institute, UL Research Institutes. Columbia, MD 21045, 2023."

***
***

## Database Structure

## 01_Data/
Raw data generated from each apparatus are included here in plain-text format. The data is organized first by material, next by the short name of test apparatus used, and where applicable additional filtering by test settings.

### Test Apparatus and Data File Structure
- __Cone Calorimeter__ (Cone)
    + Data file structure includes the material, the short name for the apparatus, heat flux setting and scan/scalar, date of test, and replicate number. Scan is for the raw output data and scalar is for the initial conditions and high-level test parameters. 
        * Example: __MDF_Cone_HF25scalar_210323_R1__ stands for the first replicate of scalar data generated from a medium density fiber board test in cone calorimeter exposed to 25 kW/m<sup>2</sup> on March 23, 2021.
    + A _Cone_Notes.csv_ is generated for each material from the __plot_Cone_data.py__ script. For materials whose experiments deviated from typical behavior relevant pictures are included in the respective material directory.
- __Fourier Transform Infrared Spectrometer__ (FTIR)
    + The FTIR directory contains subdirectories for the Attenuated Total Reflectance method (ATR) and the Integrating Sphere (IS)
    + Data file structure for the ATR experiment files includes the material, the abbreviated name for the apparatus, date of test, and replicate number. 
        * Example: __MDF_ATR_210323_R5__ stands for the fifth replicate of data collected with the ATR accessory conducted on June 8, 2021.
    + Data file structure for the IS experiment files includes the material, the abbreviated name for the apparatus, the measurand, whether the test is a sample measurement or standard reference, date of test, and replicate number.
        * Example: __OSB_IS_REFLECT_MEAS_2

File: Barrel_Chair_R1.csv
Time (s),Convective HRR,TCPlume1,TCPlume2,TCPlume3,DPPlume1,DPPlume2,DPPlume3,HF1,HF2,HF3,HF4,HF5,HF6,RAD2,RAD1,Load Cell,Heat Release Rate,Total Heat Released
-119,0.0,-13.9485,-13.5822,10.8895,0.0346957,-0.0753726,0.363363,-0.87716,-0.175169,0.973025,-0.518807,0.152523,-0.195354,0.613177,3.8402,9.64498,0.0,0.0
-98,3.73907,-14.2201,-13.5374,11.3149,-0.0716444,-0.0222063,0.24943,-0.0747966,-1.97256,0.973025,-2.24329,0.152523,0.0874897,0.447131,1.92317,9.64498,8.00321,0.0
-77,3.56212,-13.4877,-13.7752,10.9967,0.0337466,0.029256,-0.0854498,0.0809851,-0.845578,-0.876257,-1.33672,-0.240567,0.0913491,0.500673,2.5277,9.45599,15.5986,0.0
-56,3.08096,-13.5941,-13.5442,11.0027,-0.0488572,-0.0298015,-0.0392007,-0.0747966,0.723526,-0.655584,-0.518807,0.152523,-0.053932,0.447131,2.88169,9.47885,30.1445,0.0
-35,0.0,-15.5682,-13.0648,11.1606,-0.0336658,0.0765312,0.0519458,-0.0747966,0.723526,-0.655584,0.343436,0.527475,-0.195354,0.447131,2.88169,9.47885,16.2944,0.0
-14,3.24291,-13.8662,-13.5395,10.7398,-0.0184743,0.068936,0.0139681,-0.0747966,0.723526,-0.655584,-0.518807,0.527475,-0.053932,0.613177,4.79872,9.62421,0.22419,0.0
7,0.49398,-13.3923,-13.2634,10.5864,-0.0032829,-0.0753726,-0.175921,-0.0747966,-0.175169,0.973025,0.343436,0.152523,0.0874897,0.447131,1.92317,9.66574,0.0,0.0
28,0.97941,-13.7881,-13.3429,10.8153,-0.0488572,-0.0373967,-0.0999651,-0.87716,-1.07386,-0.655584,0.343436,-0.222429,0.228912,0.613177,3.8402,9.62421,0.0,0.0
49,1.97684,-14.0598,-13.5353,11.0878,0.0119085,-0.0677774,0.143092,-0.0747966,-1.07386,-0.655584,-0.518807,-0.222429,-0.053932,0.779224,1.92317,9.47885,9.76725,0.03125533
70,0.0,-11.6911,-10.696,13.073,0.277759,0.349958,0.31779,1.52993,0.723526,0.15872,0.343436,0.152523,-0.195354,0.447131,3.8402,9.64498,33.7639,0.433514
91,7.39173,-9.6002,-9.03989,17.3844,0.270163,0.182864,0.8115,2.33229,1.62222,1.78733,2.06792,0.902428,0.370333,1.11132,3.8402,9.64498,133.794,2.02942
112,49.8235,0.584017,3.69579,33.9668,0.672736,0.0309601,3.05219,7.94884,1.62222,2.60163,2.93016,2.02728,0.794599,1.27736,7.67427,9.66574,244.7,5.80185
133,123.636,21.9573,29.8223,58.7576,2.30582,1.20062,2.19389,18.3796,5.217,5.85885,4.65465,3.52709,2.06739,2.27365,16.3009,9.14659,445.255,14.1765
154,212.988,35.8984,49.7054,75.5096,6.76451,4.31465,1.8369,20.7867,6.1157,6.67316,6.37914,4.277,2.35024,2.77179,19.1765,8.79357,637.551,24.8676
175,266.497,50.5436,67.1178,104.089,2.36658,3.61589,1.3204,19.9843,7.91309,7.48746,6.37914,3.52709,2.63308,2.77179,20.135,8.14982,570.071,37.1352
196,277.7,56.5678,80.4385,132.169,2.55648,6.71473,5.55872,24.7985,8.81178,9.93037,8.10362,5.40186,3.34019,3.76807,23.9691,7.6722,840.843,51.3307
217,445.161,79.1474,106.878,165.882,1.99439,8.37048,4.40419,29.6127,8.81178,11.559,11.5526,6.90167,4.61299,4.93039,29.7202,7.13228,840.587,69.7718
238,475.652,72.5952,101.268,172.642,3.53632,3.81336,2.80153,31.2174,11.5079,11.559,12.4148,6.52671,5.17867,5.26249,33.5542,6.17704,776.676,88.1086
259,428.965,64.561,86.2867,162.845,2.77675,6.79068,7.89055,27.2056,7.01439,8.30176,10.6903,5.77681,4.33014,4.26621,25.8861,5.65788,664.729,103.127
280,394.486,56.0612,79.9342,155.499,1.16646,6.4489,3.76617,21.589,6.1157,7.48746,9.82811,4.65195,3.62303,3.43597,19.1765,4.82724,581.078,116.613
301,358.788,46.9301,66.6175,139.817,3.96168,1.37531,4.0472,17.5772,5.217,5.85885,7.24138,3.15214,2.49166,2.77179,16.3009,4.32885,479.557,127.219
322,268.027,34.6281,49.0418,118.201,0.839842,2.59054,2.3458,11.9607,2.52092,5.85885,5.51689,2.02728,1.92597,2.43969,11.5083,3.9966,362.494,135.882
343,228.972,33.8571,47.6505,112.968,5.22257,0.896812,1.17609,8.7512,2.52092,3.41594,5.51689,2.02728,1.78455,2.27365,10.5498,3.66434,317.317,143.218
364,201.68,26.0868,39.4167,103.088,3.27807,3.54753,2.09515,8.7512,2.52092,4.23024,5.51689,2.02728,1.50171,1.7755,10.5498,3.35285,305.826,149.882
385,196.972,27.2723,36.9313,95.3546,0.695524,-0.0373967,2.3382,7.14648,2.52092,1.78733,4.65465,1.65233,1.36029,1.44341,9.5913,3.02059,263.79,155.849
406,173.659,21.3081,29.366,84.8127,2.38937,1.51962,5.86254,7.14648,2.52092,2.60163,5.51689,2.02728,1.07744,1.60946,8.63279,2.87523,275.399,161.754
427,173.683,25.8756,35.5846,86.5645,2.08554,4.20831,2.11793,7.14648,2.52092,2.60163,4.65465,1.65233,1.36029,1.60946,6.71575,2.48067,271.442,167.256
448,166.684,22.8232,29.0267,77.2913,0.277759,0.775289,3.5459,7.14648,1.62222,3.41594,2.93016,1.27738,0.93602,1.60946,8.63279,2.23148,287.048,173.114
469,175.516,18.0258,30.7032,79.916,2.45773,1.28417,3.2041,7.14648,2.52092,2.60163,3.79241,1.27738,0.93602,1.44341,7.67427,1.87845,279.497,179.127
490,159.572,15.3016,25.9344,72.4134,1.48548,3.11461,0.644398,6.34411,2.52092,2.60163,4.65465,0.902428,0.93602,1.27736,7.67427,1.67079,285.256,185.331
511,155.026,18.8828,26.3168,72.9316,0.763885,2.40825,1.29002,7.94884,0.723526,3.41594,4.65465,1.65233,1.07744,1.60946,9.5913,1.3593,248.984,191.126
532,132.909,16.215,27.1037,71.1659,2.00958,2.16521,1.50269,7.94884,1.62222,2.60163,3.79241,0.902428,1.07744,1.27736,6.71575,1.19317,241.699,196.317
553,126.309,14.5493,20.835,64.2396,2.10073,0.714527,3.91048,5.54175,1.62222,1.78733,2.93016,0.902428,0.794599,1.27736,5.75724,1.02704,203.589,200.753
574,127.264,11.0276,17.1389,60.7743,2.01718,4.93745,2.08755,5.54175,1.62222,1.78733,3.79241,0.902428,0.511755,1.11132,7.67427,0.694784,209.143,204.918
595,115.364,7.18225,13.1924,56.8148,0.125844,0.722122,1.35838,3.93702,0.723526,1.78733,2.06792,0.902428,0.653177,1.11132,6.71575,0.694784,177.828,208.821
616,93.6176,5.82623,8.70644,50.0072,0.634758,0.729717,0.279812,3.93702,0.723526,0.973025,2.06792,0.527475,0.511755,0.945271,4.79872,0.507889,147.507,212.176
637,86.8589,2.58265,6.30676,45.6459,0.665141,0.251221,0.553252,2.33229,-0.175169,0.973025,2.06792,0.527475,0.794599,1.27736,4.79872,0.487123,157.777,215.549
658,82.0275,2.60428,6.17529,43.2527,0.330929,0.182864,0.279812,3.93702,0.723526,1.78733,2.06792,1.27738,0.511755,0.945271,5.75724,0.362526,126.411,218.455
679,72.6424,3.73069,7.10978,43.3799,0.23978,2.23356,0.378554,3.13466,0.723526,0.15872,2.06792,0.527475,0.0874897,0.779224,4.79872,0.23793,111.633,220.949
700,65.3189,0.771562,4.26626,39.5714,0.771481,0.106912,-0.0543918,2.33229,-0.175169,0.973025,1.20568,1.27738,0.228912,0.779224,5.75724,0.196398,112.862,223.284
721,59.3155,-0.989428,1.82079,35.5038,0.0878658,0.00817448,0.0519458,3.93702,0.723526,0.973025,0.343436,0.152523,0.370333,0.779224,4.79872,0.217164,94.7662,225.337
742,44.5888,-2.8173,-0.297015,32.4567,0.0878658,0.198054,-0.0164141,2.33229,-0.175169,1.78733,1.20568,0.527475,0.228912,0.613177,4.79872,0.23793,98.2195,227.352
763,41.281,-4.03744,-1.74005,31.1633,0.171419,0.22084,-0.122752,2.33229,1.62222,1.78733,0.343436,0.527475,0.511755,0.613177,3.8402,0.175631,83.7809,229.254
784,43.429,-4.28768,-2.53051,29.7178,0.558801,2.40825,0.188666,3.13466,-0.175169,0.15872,1.20568,0.527475,0.370333,0.945271,3.8402,0.217164,93.4683,231.019
805,37.623,-5.71843,-2.63607,27.9201,0.0346957,0.387934,0.735545,1.52993,-0.175169,0.15872,1.20568,0.527475,0.228912,0.945271,2.88169,0.0302687,80.5781,232.652
826,39.8033,-5.26176,-3.19002,26.3246,-0.056453,-0.0753726,-0.107561,2.33229,0.723526,1.78733,-0.518807,0.902428,0.228912,0.945271,4.79872,0.0302687,89.5036,234.62
847,39.9975,-6.29898,-4.10583,25.434,0.0726743,0.0537456,-0.0316052,2.33229,1.62222,0.973025,1.20568,-0.222429,0.370333,0.447131,3.8402,-0.0112635,77.1187,236.353
868,36.9792,-6.19314,-4.35047,24.7048,0.201802,0.874026,0.910242,2.33229,0.723526,1.78733,1.20568,0.902428,0.370333,0.779224,3.8402,0.0510348,60.1062,237.908
889,31.7377,-5.32399,-4.41761,24.1479,-0.0260701,-0.105753,-0.168325,1.52993,-0.175169,0.973025,0.343436,0.152523,0.511755,0.613177,5.75724,0.0302687,63.9733,239.281
910,28.0601,-6.54538,-5.83182,22.7362,-0.056453,-0.0146111,0.727949,1.52993,0.723526,0.973025,0.343436,-0.222429,-0.053932,0.779224,3.8402,0.00950257,78.1671,240.738
931,25.856,-6.6185,-6.41253,22.1349,-0.056453,0.228435,-0.0240096,0.727567,0.723526,0.973025,1.20568,0.527475,0.228912,0.779224,3.8402,0.0302687,78.1709,242.391
952,25.8982,-8.08371,-7.17247,20.7911,-0.0488572,-0.0753726,-0.251876,1.52993,0.723526,-1.46989,2.06792,0.152523,0.370333,0.779224,2.88169,0.0510348,71.849,244
973,22.1949,-8.59491,-7.50587,19.8618,0.0601698,0.0332573,-0.131159,1.32029,0.644617,1.21795,0.802534,0.510349,0.178892,0.585554,4.66124,0.0465825,71.3912,245.449
994,17.0985,-8.59404,-7.68201,19.0438,-0.0412615,-0.0298015,0.0595414,1.52993,0.723526,-0.655584,0.343436,0.527475,0.228912,0.779224,3.8402,0.0302687,85.2065,246.992
1015,21.0735,-8.22469,-7.58727,19.2117,-0.0108786,0.160078,-0.115156,0.727567,-0.175169,1.78733,0.343436,-0.222429,0.370333,0.779224,4.79872,-0.13586,71.7366,248.576
1036,16.7193,-8.90857,-8.15282,18.321,-0.0792401,-0.0753726,-0.525316,0.727567,-0.175169,0.15872,2.06792,0.527475,0.228912,0.613177,3.8402,-0.13586,62.246,249.99
1057,14.8946,-8.46058,-7.39216,18.7931,0.194206,0.160078,0.424128,1.52993,0.723526,0.15872,0.343436,0.527475,0.0874897,0.447131,2.88169,-0.13586,72.1409,251.398
1078,15.8718,-8.1754,-7.49888,18.3093,0.216993,-0.0449918,-0.130347,1.52993,-1.07386,-0.655584,-0.518807,0.152523,0.228912,0.779224,3.8402,-0.156626,82.1224,253.034
1099,19.9658,-8.93771,-7.86842,18.1026,0.0271,0.182864,0.477296,0.727567,-0.175169,0.15872,1.20568,0.902428,0.0874897,0.613177,3.8402,-0.156626,62.2268,254.56
1120,19.1391,-9.47096,-7.42123,18.3467,-0.0716444,0.144888,0.598825,1.52993,-0.175169,0.15872,1.20568,-0.222429,0.0874897,0.945271,3.8402,-0.13586,58.7412,255.926
1141,18.7604,-9.37024,-7.94743,17.4553,-0.0336658,-0.105753,0.188666,2.33229,1.62222,1.78733,-0.518807,0.527475,0.228912,0.779224,3.8402,-0.156626,86.0168,257.273
1162,20.2695,-9.00042,-8.20535,17.6995,-0.0640487,0.486671,0.52287,0.727567,-2.87126,0.973025,-0.518807,-0.972334,0.0874897,0.945271,2.88169,-0.115094,112.299,259.534
1183,19.0001,-8.1211,-7.60124,17.2589,-0.0868359,-0.0298015,-0.221494,0.727567,-1.07386,0.15872,0.343436,0.527475,0.228912,0.447131,3.8402,-0.115094,126.672,262.013
1200,19.1184,-10.1797,-8.12762,17.775,0.0726743,0.0537456,0.469701,1.52993,0.723526,0.15872,0.343436,0.152523,0.0874897,0.779224,3.8402,-0.0735619,117.901,264.186

File: Barrel_Chair_R2.csv
Time (s),Convective HRR,TCPlume1,TCPlume2,TCPlume3,DPPlume1,DPPlume2,DPPlume3,HF1,HF2,HF3,HF4,HF5,HF6,RAD2,RAD1,Load Cell,Heat Release Rate,Total Heat Released
-119,0.0,-12.3447,-11.5062,11.2951,0.0817506,0.0319899,-0.0556792,0.639171,1.72123,-0.814304,0.182679,0.0857942,-0.0527335,0.613177,2.88169,9.49961,0.0,0.0
-98,3.24921,-12.2042,-11.6416,11.011,0.00579335,-0.0211764,-0.192399,0.639171,-0.0761606,-0.814304,-0.679564,0.0857942,-0.0527335,0.613177,3.8402,9.35425,0.0,0.0
-77,2.1158,-11.7539,-11.4281,11.027,-0.0169938,-0.00598604,-0.0177015,0.639171,-0.0761606,-1.81659e-13,0.182679,0.460747,-0.194155,0.779224,2.88169,9.66574,0.0,0.0
-56,2.84319,-12.7294,-11.575,10.9227,-0.0701639,0.00920434,0.445627,-0.163193,-1.87355,0.814304,-0.679564,-0.289158,0.0886882,0.779224,3.8402,9.54115,0.0,0.0
-35,1.55871,-12.3463,-11.6259,11.1027,-0.0321853,-0.0363668,-0.0101059,1.44153,-0.974856,-1.81659e-13,0.182679,-0.289158,0.23011,0.779224,2.88169,9.66574,0.0,0.0
-14,2.2245,-11.9863,-11.5027,10.6107,-0.0169938,-0.0287716,0.0202762,-0.965556,0.822535,-0.814304,-0.679564,-0.664111,0.0886882,0.447131,3.8402,9.52038,0.0,0.0
7,2.35876,-11.519,-11.272,10.7198,0.0589634,0.0167995,-0.116444,-0.163193,-0.974856,-0.814304,-0.679564,0.460747,0.0886882,0.779224,0.964651,9.62421,0.0,0.0
28,0.14207,-11.7333,-11.4862,10.7031,0.0361762,0.0167995,-0.124039,-0.965556,0.822535,-1.81659e-13,0.182679,-0.289158,-0.194155,0.447131,3.8402,9.64498,0.0,0.0
49,0.0,-11.9591,-11.3967,10.5606,0.0133891,0.0699659,-0.199995,-0.163193,-0.0761606,-1.81659e-13,-0.679564,0.460747,-0.0527335,0.613177,2.88169,9.64498,0.0,0.0
70,0.0,-9.88393,-10.1486,12.154,-0.0245895,-0.00598604,-0.177208,0.639171,0.822535,-1.81659e-13,0.182679,0.0857942,0.0886882,0.447131,2.88169,9.47885,0.0,0.0
91,3.80882,-7.50801,-6.75405,15.418,0.788153,0.183894,0.69628,0.639171,-0.0761606,-1.81659e-13,-0.679564,0.460747,0.0886882,0.779224,3.8402,9.49961,16.2222,0.0477695
112,17.6269,-1.07636,0.394564,24.0164,1.31226,0.594034,0.0278718,3.04626,0.822535,1.62861,1.90716,-0.289158,0.371532,0.945271,5.75724,9.52038,102.528,1.11952
133,54.1051,11.119,15.7454,38.4687,1.53253,0.958603,3.17243,7.86044,2.61993,3.25722,2.76941,1.21065,0.795797,1.44341,9.5913,9.12582,173.538,4.14785
154,95.4577,22.2461,33.9759,64.2591,1.20592,2.28017,1.6913,17.4888,4.41732,4.07152,4.49389,2.33551,1.64433,1.7755,15.3424,9.14659,351.538,9.97752
175,169.006,32.18,42.9857,75.0981,2.09462,2.97892,2.54959,20.6983,7.1134,8.14304,7.08062,3.46037,2.21001,2.60574,19.1765,8.81433,620.442,19.9049
196,280.769,54.5486,75.3866,114.753,2.70987,4.04225,2.45845,25.5124,8.0121,8.95735,7.94286,4.96018,3.05855,3.60202,27.8031,8.31595,591.233,32.8692
217,324.857,62.4869,85.3516,134.799,2.98332,4.50556,5.30678,31.9313,11.6069,11.4003,9.66735,5.33513,3.62423,3.60202,29.7202,7.6722,647.173,46.0913
238,373.296,58.0951,85.8128,148.225,0.0133891,0.328202,0.521582,38.3503,11.6069,13.0289,13.9786,7.58484,5.03845,5.42853,37.3883,7.21534,823.238,62.0751
259,435.705,78.9769,112.565,172.722,10.4727,5.27267,6.44611,35.1408,11.6069,13.0289,13.1163,7.20989,5.03845,4.93039,32.5957,6.48853,766.952,78.6953
280,410.454,70.89,105.537,175.906,3.24157,6.15371,2.17741,27.1172,9.80949,10.586,12.2541,5.71008,4.33134,4.26621,26.8446,5.84478,612.07,92.254
301,325.483,68.0186,97.2911,172.46,6.90271,3.39666,5.35235,25.5124,8.0121,8.95735,10.5296,4.96018,3.34139,3.26993,23.9691,5.20103,522.046,104.171
322,317.667,53.1454,78.7214,156.105,6.26467,3.87516,5.4283,19.8959,6.21471,7.32874,9.66735,3.83532,2.91712,2.77179,19.1765,4.51575,436.72,114.804
343,283.46,47.4094,66.5784,134.991,1.90472,2.12067,0.924146,12.6746,2.61993,4.88583,5.35614,2.71046,1.92717,2.60574,13.4254,4.20426,341.973,122.795
364,264.622,39.0839,56.1385,122.315,3.16561,2.2194,7.6462,11.0699,1.72123,4.07152,4.49389,1.96056,2.21001,1.94155,14.3839,3.85123,274.226,128.85
385,209.118,35.6308,50.5133,110.865,7.99649,3.90554,1.96474,10.2675,3.51862,2.44291,4.49389,1.5856,1.36148,1.94155,10.5498,3.49821,300.086,134.53
406,202.942,28.0948,40.3574,99.9205,-0.0853553,3.31311,7.44872,7.86044,2.61993,3.25722,3.63165,1.96056,1.07864,1.60946,8.63279,3.18672,274.475,140.453
427,174.53,25.9228,38.8071,94.7745,0.932472,2.10548,2.67112,8.66281,1.72123,3.25722,5.35614,1.5856,1.50291,1.44341,9.5913,2.87523,255.784,145.875
448,165.256,23.7306,34.5832,88.4109,1.43379,0.434535,2.11665,8.66281,2.61993,3.25722,4.49389,1.96056,1.36148,1.44341,7.67427,2.5222,233.644,150.995
469,153.346,26.3758,38.0233,89.3297,2.99091,2.82702,6.65878,7.86044,2.61993,4.88583,4.49389,1.96056,1.07864,1.7755,8.63279,2.35607,249.415,156.147
490,185.168,29.724,43.3443,94.3272,3.05168,4.64227,3.47625,9.46517,2.61993,3.25722,4.49389,1.96056,1.22006,1.7755,10.5498,2.02381,234.26,161.136
511,175.394,24.5571,34.8773,84.1456,0.780557,2.26498,1.37988,7.86044,1.72123,4.07152,4.49389,1.96056,1.22006,1.7755,8.63279,1.54619,222.5,166.292
532,151.966,18.1657,27.9436,76.1272,1.84396,1.79407,0.719066,6.25572,0.822535,4.07152,4.49389,1.21065,1.07864,1.7755,7.67427,1.33853,223.905,170.924
553,155.522,15.8828,25.4533,71.91,0.871706,0.63201,1.09125,6.25572,1.72123,2.44291,4.49389,1.5856,0.937219,1.27736,7.67427,1.02704,220.636,175.703
574,153.173,18.0461,27.2218,69.447,1.054,0.783914,2.7015,7.05808,0.822535,2.44291,2.76941,0.835699,0.795797,1.27736,7.67427,0.840147,176.642,179.622
595,139.472,13.8575,23.0274,66.1809,1.00843,0.867461,2.13184,6.25572,1.72123,1.62861,4.49389,1.21065,0.795797,1.44341,6.71575,0.71555,153.664,182.958
616,117.197,12.4077,20.6777,61.736,0.75777,2.05991,2.72429,4.65099,2.61993,1.62861,2.76941,1.21065,0.654375,1.27736,6.71575,0.383292,125.31,186.004
637,99.6303,9.99591,16.5299,55.8416,2.45162,2.79664,2.07867,3.84863,2.61993,0.814304,2.76941,0.460747,0.795797,0.945271,6.71575,0.34176,104.722,188.608
658,88.5321,8.0348,14.1568,54.9091,0.142516,1.55103,-0.329119,4.65099,0.822535,1.62861,1.04492,-0.289158,0.371532,1.27736,5.75724,0.196398,72.3282,190.587
679,68.8432,4.82031,9.95743,50.3671,0.112133,0.244655,0.058254,2.2439,1.72123,-1.81659e-13,1.90716,0.835699,0.0886882,0.945271,4.79872,0.196398,66.0118,192.084
700,63.0247,2.78558,7.69578,45.2122,0.826131,0.669986,0.650707,1.44153,0.822535,0.814304,2.76941,1.21065,0.23011,1.11132,3.8402,0.0510348,56.0755,193.259
721,60.7166,-0.0915669,4.05419,40.2973,0.362792,0.183894,1.0001,2.2439,0.822535,-1.81659e-13,1.90716,0.460747,0.23011,0.945271,4.79872,0.0718009,50.2238,194.324
742,51.5184,-1.18073,3.35384,37.936,1.11477,1.42191,0.643111,3.04626,1.72123,0.814304,-0.679564,0.835699,0.23011,0.945271,2.88169,0.0302687,39.8849,195.196
763,52.4016,0.187058,3.49024,36.5369,0.317218,0.662391,0.430436,3.04626,1.72123,0.814304,0.182679,0.0857942,0.371532,0.945271,3.8402,0.0302687,37.542,196.073
784,38.2747,-2.93215,0.203242,33.3216,-0.0701639,0.0167995,0.0962317,1.44153,-0.0761606,0.814304,2.76941,0.460747,0.371532,0.779224,2.88169,-0.094328,53.8132,197.071
805,47.2602,-1.84834,1.3517,31.9705,0.75777,1.62698,1.509,3.04626,-0.0761606,-1.81659e-13,1.04492,0.835699,0.23011,0.945271,4.79872,-0.094328,49.0412,198.16
826,39.0483,-3.16482,0.586033,31.407,0.142516,0.981389,0.384862,0.639171,0.822535,-1.81659e-13,1.04492,0.460747,0.23011,0.945271,3.8402,-0.115094,35.3381,198.987
847,31.6056,-2.63346,0.9194,30.3058,0.613451,0.161108,0.316503,2.2439,2.61993,0.814304,1.04492,0.0857942,0.371532,0.613177,4.79872,-0.115094,31.5934,199.77
868,35.3368,-3.10988,-1.08816,28.1863,0.347601,-0.203461,0.0810406,1.44153,-0.974856,1.62861,0.182679,-0.289158,0.23011,0.613177,3.8402,-0.13586,37.5435,200.514
889,31.767,-4.58637,-2.01489,26.9795,-0.0093981,0.0699659,0.119018,0.639171,-0.0761606,1.62861,1.04492,-0.289158,0.0886882,0.613177,3.8402,-0.260457,29.7594,201.286
910,33.5488,-5.05937,-3.18248,25.577,0.0665591,0.0927514,0.453222,0.639171,1.72123,-0.814304,0.182679,0.460747,0.0886882,0.945271,2.88169,-0.281223,43.4652,201.987
931,32.2296,-6.11824,-2.29696,24.929,0.00579335,0.153513,0.156996,2.2439,0.822535,-0.814304,1.04492,-0.664111,0.0886882,0.613177,2.88169,-0.322755,38.1925,202.831
952,28.3965,-5.54423,-3.62643,23.6697,-0.0701639,-0.043962,0.0126807,2.2439,0.822535,-1.81659e-13,1.04492,-0.289158,0.23011,0.613177,3.8402,-0.260457,47.4173,203.689
973,31.151,-4.9985,-3.66526,23.2912,-0.0245895,0.0319899,-0.0404881,3.04626,0.822535,-0.814304,0.182679,0.0857942,0.0886882,0.613177,3.8402,-0.301989,38.304,204.514
994,25.5927,-6.16869,-4.01497,21.9273,0.112133,0.0851562,-0.025297,1.44153,1.72123,0.814304,0.182679,0.0857942,0.23011,0.613177,1.92317,-0.301989,44.2584,205.382
1015,20.8479,-5.84011,-4.77691,21.4502,0.172899,0.191489,-0.0556792,0.639171,-0.974856,0.814304,1.90716,0.460747,0.0886882,0.779224,3.8402,-0.281223,47.242,206.391
1036,21.7409,-6.53739,-5.08285,20.6591,0.195686,0.107942,0.0962317,0.639171,0.822535,1.62861,0.182679,0.460747,0.0886882,0.779224,3.8402,-0.281223,61.2089,207.63
1057,22.9053,-6.35342,-5.1332,19.8888,-0.0169938,0.556058,-0.0404881,2.2439,0.822535,-1.81659e-13,0.182679,0.0857942,0.0886882,0.613177,3.8402,-0.281223,59.2744,208.936
1078,20.4047,-6.82814,-5.33378,19.5035,-0.0473767,0.123132,0.460818,0.639171,0.822535,1.62861,0.182679,0.835699,0.371532,0.613177,3.8402,-0.301989,59.2048,210.128
1099,20.2953,-7.89064,-5.22252,19.308,0.096942,0.411749,0.164592,1.44153,-0.0761606,-1.81659e-13,-0.679564,0.0857942,0.23011,0.945271,4.79872,-0.301989,53.8841,211.303
1120,16.2397,-7.14676,-5.76853,18.738,0.180495,0.487701,-0.169612,1.44153,0.822535,0.814304,1.04492,-0.289158,0.23011,0.613177,5.75724,-0.426586,48.1663,212.384
1141,16.0256,-8.30544,-6.1036,18.8298,-0.0169938,0.0167995,0.103827,-0.163193,-1.87355,-1.81659e-13,0.182679,0.0857942,-0.0527335,0.779224,3.8402,-0.447352,44.3059,213.394
1162,14.1398,-8.16008,-5.91979,18.0203,0.0817506,0.00160915,-0.131635,0.639171,-0.0761606,0.814304,0.182679,0.0857942,0.23011,0.779224,4.79872,-0.468118,46.2237,214.347
1183,16.0708,-7.44928,-6.07026,17.5314,-0.039781,0.100347,-0.0860614,0.639171,1.72123,-1.81659e-13,0.182679,0.0857942,0.23011,0.447131,5.75724,-0.301989,0.0,214.686
1184,15.8297,-7.60589,-6.07026,17.6075,-0.0701639,0.00920434,-0.245568,1.44153,-0.0761606,-1.81659e-13,1.04492,-0.289158,0.0886882,0.779224,2.88169,-0.260457,0.0,214.686