Folder: fsri_materials_database/01_Data/Cedar_Shingle/FTIR/IS

Note: README.md
# Materials and Products Database
### Repository of materials and products properties and fire test data to improve fire modeling and fire investigation.

This project was supported in part by Award No. 2019-DU-BX-0018, awarded by the National Institute of Justice, Office of Justice Programs, U.S. Department of Justice. The opinions, findings, and conclusions or recommendations expressed in this publication / program / exhibition are those of the author(s) and do not necessarily reflect those of the Department of Justice.

***
***

__Cite this database:__ "McKinnon, M., Weinschenk, C., Dow, N., DiDomizio, M., and Madrzykowski, D. Materials and Products Database (Version 1.0.0), Fire Safety Research Institute, UL Research Institutes. Columbia, MD 21045, 2023."

__Cite the Technical Reference Guide:__ "McKinnon, M., Weinschenk, C., and Madrzykowski, D. Materials and Products Database - Technical Reference Guide, Fire Safety Research Institute, UL Research Institutes. Columbia, MD 21045, 2023."

__Cite the User Guide:__ "McKinnon, M., and Weinschenk, C. Materials and Products Database - User Guide, Fire Safety Research Institute, UL Research Institutes. Columbia, MD 21045, 2023."

***
***

## Database Structure

## 01_Data/
Raw data generated from each apparatus are included here in plain-text format. The data is organized first by material, next by the short name of test apparatus used, and where applicable additional filtering by test settings.

### Test Apparatus and Data File Structure
- __Cone Calorimeter__ (Cone)
    + Data file structure includes the material, the short name for the apparatus, heat flux setting and scan/scalar, date of test, and replicate number. Scan is for the raw output data and scalar is for the initial conditions and high-level test parameters. 
        * Example: __MDF_Cone_HF25scalar_210323_R1__ stands for the first replicate of scalar data generated from a medium density fiber board test in cone calorimeter exposed to 25 kW/m<sup>2</sup> on March 23, 2021.
    + A _Cone_Notes.csv_ is generated for each material from the __plot_Cone_data.py__ script. For materials whose experiments deviated from typical behavior relevant pictures are included in the respective material directory.
- __Fourier Transform Infrared Spectrometer__ (FTIR)
    + The FTIR directory contains subdirectories for the Attenuated Total Reflectance method (ATR) and the Integrating Sphere (IS)
    + Data file structure for the ATR experiment files includes the material, the abbreviated name for the apparatus, date of test, and replicate number. 
        * Example: __MDF_ATR_210323_R5__ stands for the fifth replicate of data collected with the ATR accessory conducted on June 8, 2021.
    + Data file structure for the IS experiment files includes the material, the abbreviated name for the apparatus, the measurand, whether the test is a sample measurement or standard reference, date of test, and replicate number.
        * Example: __OSB_IS_REFLECT_MEAS_2

File: Cedar_Shingle_IS_S_221017_R1.dpt
7497.03,0.88133
7473.89,0.87422
7450.74,0.87040
7427.6,0.86317
7404.45,0.85841
7381.31,0.85823
7358.16,0.84663
7335.02,0.83913
7311.87,0.83661
7288.73,0.83335
7265.58,0.82219
7242.44,0.82575
7219.29,0.82063
7196.15,0.81693
7173,0.80988
7149.86,0.79626
7126.71,0.78897
7103.57,0.76554
7080.42,0.74991
7057.28,0.73416
7034.13,0.71726
7010.99,0.69776
6987.84,0.69391
6964.7,0.68581
6941.55,0.69034
6918.41,0.68404
6895.26,0.67911
6872.12,0.67861
6848.97,0.68343
6825.83,0.67869
6802.68,0.67870
6779.54,0.68067
6756.39,0.67887
6733.25,0.68694
6710.1,0.68436
6686.96,0.69073
6663.82,0.68559
6640.67,0.69348
6617.53,0.69690
6594.38,0.70202
6571.24,0.70396
6548.09,0.70784
6524.95,0.70758
6501.8,0.70834
6478.66,0.70771
6455.51,0.71265
6432.37,0.71328
6409.22,0.71811
6386.08,0.71956
6362.93,0.71554
6339.79,0.72336
6316.64,0.72177
6293.5,0.72586
6270.35,0.73204
6247.21,0.73631
6224.06,0.74129
6200.92,0.74557
6177.77,0.75025
6154.63,0.75582
6131.48,0.76076
6108.34,0.75948
6085.19,0.76378
6062.05,0.76149
6038.9,0.75827
6015.76,0.75027
5992.61,0.74317
5969.47,0.74182
5946.32,0.74085
5923.18,0.73947
5900.03,0.73791
5876.89,0.73653
5853.74,0.73588
5830.6,0.73518
5807.45,0.73285
5784.31,0.73373
5761.16,0.73823
5738.02,0.73783
5714.87,0.73572
5691.73,0.73561
5668.58,0.73671
5645.44,0.73445
5622.29,0.73353
5599.15,0.73655
5576,0.73733
5552.86,0.73783
5529.71,0.74074
5506.57,0.74301
5483.42,0.74310
5460.28,0.74786
5437.13,0.74963
5413.99,0.75259
5390.84,0.75420
5367.7,0.75484
5344.55,0.74852
5321.41,0.73828
5298.26,0.71701
5275.12,0.67866
5251.97,0.63389
5228.83,0.60293
5205.68,0.59046
5182.54,0.58730
5159.39,0.59543
5136.25,0.60810
5113.1,0.62013
5089.96,0.63162
5066.81,0.64314
5043.67,0.65393
5020.52,0.66212
4997.38,0.66545
4974.23,0.66423
4951.09,0.65526
4927.94,0.64123
4904.8,0.62301
4881.65,0.60433
4858.51,0.58871
4835.36,0.57366
4812.22,0.56392
4789.07,0.55920
4765.93,0.55494
4742.78,0.55424
4719.64,0.55616
4696.49,0.55869
4673.35,0.56229
4650.2,0.57181
4627.06,0.57947
4603.92,0.59096
4580.77,0.60091
4557.63,0.60790
4534.48,0.61172
4511.34,0.61260
4488.19,0.60312
4465.05,0.58152
4441.9,0.55642
4418.76,0.52842
4395.61,0.51468
4372.47,0.52363
4349.32,0.52783
4326.18,0.52239
4303.03,0.51402
4279.89,0.50861
4256.74,0.51243
4233.6,0.51564
4210.45,0.51480
4187.31,0.51733
4164.16,0.52185
4141.02,0.51825
4117.87,0.50535
4094.73,0.48737
4071.58,0.46536
4048.44,0.44399
4025.29,0.42962
4002.15,0.42785
3979,0.43365
3955.86,0.44192
3932.71,0.45428
3909.57,0.46385
3886.42,0.47285
3863.28,0.48182
3840.13,0.49197
3816.99,0.49401
3793.84,0.49190
3770.7,0.48780
3747.55,0.47967
3724.41,0.46045
3701.26,0.42729
3678.12,0.36124
3654.97,0.27211
3631.83,0.20856
3608.68,0.16311
3585.54,0.12851
3562.39,0.10482
3539.25,0.08990
3516.1,0.07898
3492.96,0.07201
3469.81,0.06683
3446.67,0.06418
3423.52,0.06364
3400.38,0.06455
3377.23,0.06478
3354.09,0.06681
3330.94,0.07152
3307.8,0.07619
3284.65,0.08128
3261.51,0.08888
3238.36,0.09884
3215.22,0.10942
3192.07,0.12153
3168.93,0.13415
3145.78,0.14775
3122.64,0.16085
3099.49,0.17398
3076.35,0.18326
3053.2,0.19412
3030.06,0.19995
3006.91,0.19102
2983.77,0.17100
2960.62,0.13655
2937.48,0.11877
2914.33,0.11584
2891.19,0.12040
2868.04,0.13108
2844.9,0.15204
2821.75,0.19137
2798.61,0.21934
2775.46,0.23158
2752.32,0.23730
2729.17,0.24088
2706.03,0.25296
2682.88,0.26600
2659.74,0.27518
2636.59,0.28355
2613.45,0.29283
2590.3,0.30080
2567.16,0.30608
2544.02,0.30850
2520.87,0.31596
2497.73,0.32814
2474.58,0.34021
2451.44,0.35122
2428.29,0.36379
2405.15,0.37790
2382,0.38995
2358.86,0.39992
2335.71,0.40664
2312.57,0.40968
2289.42,0.40865
2266.28,0.40468
2243.13,0.40039
2219.99,0.39932
2196.84,0.39521
2173.7,0.38263
2150.55,0.37291
2127.41,0.37084
2104.26,0.37564
2081.12,0.37763
2057.97,0.37316
2034.83,0.38048
2011.68,0.39573
1988.54,0.40493
1965.39,0.41338
1942.25,0.42578
1919.1,0.43300
1895.96,0.43148
1872.81,0.42798
1849.67,0.42242
1826.52,0.40826
1803.38,0.35608
1780.23,0.26922
1757.09,0.20346
1733.94,0.17284
1710.8,0.20809
1687.65,0.20059
1664.51,0.14817
1641.36,0.14945
1618.22,0.14459
1595.07,0.13341
1571.93,0.19425
1548.78,0.21129
1525.64,0.13775
1502.49,0.10002
1479.35,0.11334
1456.2,0.08515
1433.06,0.08123
1409.91,0.09420
1386.77,0.08529
1363.62,0.08100
1340.48,0.08358
1317.33,0.08077
1294.19,0.08308
1271.04,0.07100
1247.9,0.08079
1224.75,0.08147
1201.61,0.08852
1178.46,0.07947
1155.32,0.07430
1132.17,0.06648
1109.03,0.06830
1085.88,0.07174
1062.74,0.09233
1039.59,0.10153
1016.45,0.12143
993.304,0.13689
970.159,0.17979
947.014,0.21781
923.869,0.23990
900.724,0.21650
877.579,0.23899
854.434,0.25194
831.289,0.25566
808.144,0.23136
784.999,0.24053
761.854,0.22021
738.709,0.20110
715.565,0.17712
692.42,0.16183
669.275,0.13817
646.13,0.13907
622.985,0.12176
599.84,0.12990

File: Cedar_Shingle_IS_S_221017_R2.dpt
7497.03,0.88424
7473.89,0.88704
7450.74,0.86989
7427.6,0.86097
7404.45,0.85405
7381.31,0.84530
7358.16,0.83655
7335.02,0.83870
7311.87,0.82662
7288.73,0.83108
7265.58,0.82775
7242.44,0.82974
7219.29,0.82883
7196.15,0.81523
7173,0.81197
7149.86,0.79729
7126.71,0.78488
7103.57,0.76990
7080.42,0.76056
7057.28,0.73443
7034.13,0.72111
7010.99,0.70560
6987.84,0.69494
6964.7,0.69267
6941.55,0.68373
6918.41,0.68017
6895.26,0.68419
6872.12,0.68363
6848.97,0.68230
6825.83,0.68134
6802.68,0.68512
6779.54,0.68257
6756.39,0.68697
6733.25,0.68702
6710.1,0.68922
6686.96,0.69148
6663.82,0.69531
6640.67,0.69795
6617.53,0.70219
6594.38,0.69947
6571.24,0.70504
6548.09,0.70987
6524.95,0.71484
6501.8,0.71165
6478.66,0.71443
6455.51,0.71437
6432.37,0.72084
6409.22,0.71773
6386.08,0.72276
6362.93,0.71867
6339.79,0.72048
6316.64,0.72470
6293.5,0.72729
6270.35,0.73517
6247.21,0.73813
6224.06,0.74368
6200.92,0.74576
6177.77,0.75476
6154.63,0.75662
6131.48,0.76196
6108.34,0.76013
6085.19,0.76472
6062.05,0.76358
6038.9,0.75949
6015.76,0.74726
5992.61,0.74623
5969.47,0.74157
5946.32,0.74133
5923.18,0.74247
5900.03,0.73568
5876.89,0.73575
5853.74,0.73570
5830.6,0.73364
5807.45,0.73054
5784.31,0.73213
5761.16,0.73723
5738.02,0.73707
5714.87,0.73359
5691.73,0.73806
5668.58,0.73652
5645.44,0.73238
5622.29,0.73478
5599.15,0.73447
5576,0.73623
5552.86,0.73884
5529.71,0.74062
5506.57,0.74022
5483.42,0.74284
5460.28,0.74515
5437.13,0.74967
5413.99,0.75311
5390.84,0.75420
5367.7,0.75440
5344.55,0.75174
5321.41,0.74107
5298.26,0.72140
5275.12,0.68574
5251.97,0.64545
5228.83,0.61614
5205.68,0.60218
5182.54,0.60098
5159.39,0.61016
5136.25,0.62163
5113.1,0.63195
5089.96,0.64274
5066.81,0.65447
5043.67,0.66197
5020.52,0.66901
4997.38,0.67217
4974.23,0.66988
4951.09,0.65831
4927.94,0.64196
4904.8,0.62366
4881.65,0.60671
4858.51,0.58825
4835.36,0.57368
4812.22,0.56324
4789.07,0.55859
4765.93,0.55563
4742.78,0.55416
4719.64,0.55780
4696.49,0.56002
4673.35,0.56347
4650.2,0.57117
4627.06,0.58040
4603.92,0.59273
4580.77,0.60235
4557.63,0.60824
4534.48,0.61231
4511.34,0.61247
4488.19,0.60470
4465.05,0.58321
4441.9,0.55661
4418.76,0.52928
4395.61,0.51597
4372.47,0.52383
4349.32,0.52793
4326.18,0.52345
4303.03,0.51501
4279.89,0.50892
4256.74,0.51319
4233.6,0.51646
4210.45,0.51572
4187.31,0.51808
4164.16,0.52325
4141.02,0.51951
4117.87,0.50726
4094.73,0.48846
4071.58,0.46768
4048.44,0.44614
4025.29,0.43239
4002.15,0.43003
3979,0.43626
3955.86,0.44538
3932.71,0.45681
3909.57,0.46666
3886.42,0.47636
3863.28,0.48486
3840.13,0.49613
3816.99,0.49868
3793.84,0.49684
3770.7,0.49401
3747.55,0.48683
3724.41,0.46944
3701.26,0.43862
3678.12,0.37566
3654.97,0.28988
3631.83,0.22632
3608.68,0.17541
3585.54,0.13633
3562.39,0.10951
3539.25,0.09317
3516.1,0.08166
3492.96,0.07343
3469.81,0.06799
3446.67,0.06553
3423.52,0.06583
3400.38,0.06573
3377.23,0.06569
3354.09,0.06748
3330.94,0.07237
3307.8,0.07820
3284.65,0.08313
3261.51,0.09105
3238.36,0.10210
3215.22,0.11332
3192.07,0.12536
3168.93,0.14011
3145.78,0.15435
3122.64,0.16805
3099.49,0.18135
3076.35,0.19096
3053.2,0.20132
3030.06,0.20654
3006.91,0.19561
2983.77,0.17348
2960.62,0.13823
2937.48,0.11889
2914.33,0.11656
2891.19,0.12110
2868.04,0.13166
2844.9,0.15330
2821.75,0.19355
2798.61,0.22237
2775.46,0.23497
2752.32,0.24026
2729.17,0.24387
2706.03,0.25630
2682.88,0.26855
2659.74,0.27800
2636.59,0.28649
2613.45,0.29541
2590.3,0.30390
2567.16,0.30937
2544.02,0.31159
2520.87,0.31919
2497.73,0.33136
2474.58,0.34302
2451.44,0.35413
2428.29,0.36671
2405.15,0.38120
2382,0.39377
2358.86,0.40369
2335.71,0.41125
2312.57,0.41442
2289.42,0.41425
2266.28,0.41027
2243.13,0.40656
2219.99,0.40573
2196.84,0.40245
2173.7,0.38980
2150.55,0.38005
2127.41,0.37814
2104.26,0.38286
2081.12,0.38443
2057.97,0.37995
2034.83,0.38729
2011.68,0.40170
1988.54,0.41161
1965.39,0.41944
1942.25,0.43190
1919.1,0.43868
1895.96,0.43716
1872.81,0.43285
1849.67,0.42673
1826.52,0.41244
1803.38,0.35779
1780.23,0.26910
1757.09,0.20260
1733.94,0.17333
1710.8,0.21088
1687.65,0.20538
1664.51,0.15337
1641.36,0.15679
1618.22,0.14831
1595.07,0.13472
1571.93,0.19642
1548.78,0.21379
1525.64,0.13900
1502.49,0.09935
1479.35,0.11337
1456.2,0.08546
1433.06,0.08148
1409.91,0.09412
1386.77,0.08525
1363.62,0.08116
1340.48,0.08334
1317.33,0.08111
1294.19,0.08335
1271.04,0.07127
1247.9,0.08114
1224.75,0.08183
1201.61,0.08872
1178.46,0.07977
1155.32,0.07443
1132.17,0.06669
1109.03,0.06885
1085.88,0.07248
1062.74,0.09324
1039.59,0.10247
1016.45,0.12227
993.304,0.13734
970.159,0.18160
947.014,0.22055
923.869,0.24444
900.724,0.21976
877.579,0.24350
854.434,0.25748
831.289,0.26239
808.144,0.23805
784.999,0.24937
761.854,0.22852
738.709,0.20844
715.565,0.18289
692.42,0.16711
669.275,0.13907
646.13,0.13885
622.985,0.12235
599.84,0.13169

File: Cedar_Shingle_IS_S_221017_R3.dpt
7497.03,0.88091
7473.89,0.88575
7450.74,0.86828
7427.6,0.86780
7404.45,0.85859
7381.31,0.84695
7358.16,0.83664
7335.02,0.83853
7311.87,0.83304
7288.73,0.82304
7265.58,0.82846
7242.44,0.82964
7219.29,0.82279
7196.15,0.81559
7173,0.81582
7149.86,0.79402
7126.71,0.80073
7103.57,0.77856
7080.42,0.75926
7057.28,0.73914
7034.13,0.72186
7010.99,0.70818
6987.84,0.70221
6964.7,0.68836
6941.55,0.69002
6918.41,0.68646
6895.26,0.68945
6872.12,0.68859
6848.97,0.68621
6825.83,0.68872
6802.68,0.68375
6779.54,0.68560
6756.39,0.68581
6733.25,0.69090
6710.1,0.69462
6686.96,0.69819
6663.82,0.69669
6640.67,0.70032
6617.53,0.70704
6594.38,0.70869
6571.24,0.70648
6548.09,0.70770
6524.95,0.70979
6501.8,0.71229
6478.66,0.71700
6455.51,0.71742
6432.37,0.72007
6409.22,0.72187
6386.08,0.72347
6362.93,0.72563
6339.79,0.72895
6316.64,0.72634
6293.5,0.72851
6270.35,0.73310
6247.21,0.73959
6224.06,0.74572
6200.92,0.75287
6177.77,0.75216
6154.63,0.76005
6131.48,0.75866
6108.34,0.76427
6085.19,0.77259
6062.05,0.76394
6038.9,0.76086
6015.76,0.75611
5992.61,0.74750
5969.47,0.74462
5946.32,0.74383
5923.18,0.74410
5900.03,0.73871
5876.89,0.73768
5853.74,0.73692
5830.6,0.73561
5807.45,0.73391
5784.31,0.73315
5761.16,0.73878
5738.02,0.73637
5714.87,0.73851
5691.73,0.73679
5668.58,0.73695
5645.44,0.73719
5622.29,0.73662
5599.15,0.73970
5576,0.73916
5552.86,0.74213
5529.71,0.74211
5506.57,0.74527
5483.42,0.74564
5460.28,0.74738
5437.13,0.75283
5413.99,0.75625
5390.84,0.75617
5367.7,0.75727
5344.55,0.75552
5321.41,0.74403
5298.26,0.72540
5275.12,0.69206
5251.97,0.65217
5228.83,0.62392
5205.68,0.61140
5182.54,0.60992
5159.39,0.61765
5136.25,0.62982
5113.1,0.64018
5089.96,0.65102
5066.81,0.65942
5043.67,0.67006
5020.52,0.67653
4997.38,0.67800
4974.23,0.67486
4951.09,0.66220
4927.94,0.64640
4904.8,0.62598
4881.65,0.60727
4858.51,0.59056
4835.36,0.57640
4812.22,0.56642
4789.07,0.56056
4765.93,0.55648
4742.78,0.55789
4719.64,0.55825
4696.49,0.56151
4673.35,0.56551
4650.2,0.57293
4627.06,0.58222
4603.92,0.59403
4580.77,0.60350
4557.63,0.61035
4534.48,0.61383
4511.34,0.61549
4488.19,0.60612
4465.05,0.58552
4441.9,0.55908
4418.76,0.53049
4395.61,0.51799
4372.47,0.52475
4349.32,0.52950
4326.18,0.52490
4303.03,0.51640
4279.89,0.51021
4256.74,0.51523
4233.6,0.51817
4210.45,0.51867
4187.31,0.52053
4164.16,0.52597
4141.02,0.52215
4117.87,0.50900
4094.73,0.49134
4071.58,0.46950
4048.44,0.44793
4025.29,0.43454
4002.15,0.43236
3979,0.43812
3955.86,0.44693
3932.71,0.45937
3909.57,0.46967
3886.42,0.47908
3863.28,0.48757
3840.13,0.49854
3816.99,0.50160
3793.84,0.50092
3770.7,0.49801
3747.55,0.49121
3724.41,0.47489
3701.26,0.44453
3678.12,0.38327
3654.97,0.29905
3631.83,0.23322
3608.68,0.18131
3585.54,0.13952
3562.39,0.11151
3539.25,0.09422
3516.1,0.08198
3492.96,0.07354
3469.81,0.06800
3446.67,0.06569
3423.52,0.06550
3400.38,0.06565
3377.23,0.06620
3354.09,0.06813
3330.94,0.07204
3307.8,0.07812
3284.65,0.08326
3261.51,0.09238
3238.36,0.10220
3215.22,0.11444
3192.07,0.12881
3168.93,0.14169
3145.78,0.15661
3122.64,0.17089
3099.49,0.18442
3076.35,0.19378
3053.2,0.20452
3030.06,0.20917
3006.91,0.19751
2983.77,0.17442
2960.62,0.13857
2937.48,0.11928
2914.33,0.11679
2891.19,0.12142
2868.04,0.13242
2844.9,0.15340
2821.75,0.19443
2798.61,0.22389
2775.46,0.23655
2752.32,0.24253
2729.17,0.24586
2706.03,0.25755
2682.88,0.27091
2659.74,0.27960
2636.59,0.28810
2613.45,0.29740
2590.3,0.30556
2567.16,0.31107
2544.02,0.31286
2520.87,0.32101
2497.73,0.33292
2474.58,0.34482
2451.44,0.35570
2428.29,0.36851
2405.15,0.38306
2382,0.39625
2358.86,0.40645
2335.71,0.41422
2312.57,0.41742
2289.42,0.41700
2266.28,0.41389
2243.13,0.40979
2219.99,0.40974
2196.84,0.40641
2173.7,0.39354
2150.55,0.38401
2127.41,0.38174
2104.26,0.38697
2081.12,0.38855
2057.97,0.38377
2034.83,0.39089
2011.68,0.40575
1988.54,0.41515
1965.39,0.42314
1942.25,0.43552
1919.1,0.44187
1895.96,0.44023
1872.81,0.43588
1849.67,0.42993
1826.52,0.41512
1803.38,0.35899
1780.23,0.26952
1757.09,0.20225
1733.94,0.17444
1710.8,0.21272
1687.65,0.20753
1664.51,0.15500
1641.36,0.15943
1618.22,0.14998
1595.07,0.13534
1571.93,0.19766
1548.78,0.21491
1525.64,0.13932
1502.49,0.09884
1479.35,0.11398
1456.2,0.08510
1433.06,0.08149
1409.91,0.09403
1386.77,0.08523
1363.62,0.08095
1340.48,0.08336
1317.33,0.08125
1294.19,0.08390
1271.04,0.07144
1247.9,0.08138
1224.75,0.08239
1201.61,0.08889
1178.46,0.07962
1155.32,0.07467
1132.17,0.06682
1109.03,0.06886
1085.88,0.07261
1062.74,0.09354
1039.59,0.10267
1016.45,0.12132
993.304,0.13834
970.159,0.18199
947.014,0.22121
923.869,0.24617
900.724,0.22164
877.579,0.24550
854.434,0.26007
831.289,0.26527
808.144,0.23991
784.999,0.25207
761.854,0.23080
738.709,0.21057
715.565,0.18545
692.42,0.16815
669.275,0.13973
646.13,0.14143
622.985,0.12401
599.84,0.12954

File: Cedar_Shingle_IS_S_221017_R4.dpt
7497.03,0.88212
7473.89,0.88373
7450.74,0.86825
7427.6,0.86824
7404.45,0.85060
7381.31,0.84807
7358.16,0.84663
7335.02,0.83928
7311.87,0.82779
7288.73,0.83285
7265.58,0.83216
7242.44,0.83093
7219.29,0.82647
7196.15,0.81191
7173,0.81537
7149.86,0.80561
7126.71,0.79184
7103.57,0.77576
7080.42,0.76089
7057.28,0.74149
7034.13,0.71939
7010.99,0.70970
6987.84,0.69969
6964.7,0.69296
6941.55,0.68690
6918.41,0.68747
6895.26,0.69086
6872.12,0.68591
6848.97,0.68558
6825.83,0.68655
6802.68,0.68585
6779.54,0.68727
6756.39,0.68764
6733.25,0.68715
6710.1,0.68869
6686.96,0.69351
6663.82,0.69692
6640.67,0.69565
6617.53,0.70085
6594.38,0.70283
6571.24,0.70463
6548.09,0.71145
6524.95,0.71186
6501.8,0.71537
6478.66,0.71258
6455.51,0.71767
6432.37,0.71522
6409.22,0.72100
6386.08,0.71950
6362.93,0.72591
6339.79,0.72116
6316.64,0.72649
6293.5,0.72815
6270.35,0.73322
6247.21,0.73950
6224.06,0.74900
6200.92,0.75008
6177.77,0.75622
6154.63,0.76062
6131.48,0.76290
6108.34,0.76685
6085.19,0.76510
6062.05,0.76180
6038.9,0.76246
6015.76,0.75563
5992.61,0.74432
5969.47,0.74006
5946.32,0.74237
5923.18,0.74157
5900.03,0.73752
5876.89,0.73518
5853.74,0.73377
5830.6,0.73414
5807.45,0.73434
5784.31,0.73243
5761.16,0.73481
5738.02,0.73742
5714.87,0.73801
5691.73,0.73841
5668.58,0.73614
5645.44,0.73775
5622.29,0.73607
5599.15,0.73709
5576,0.74000
5552.86,0.74101
5529.71,0.74051
5506.57,0.74463
5483.42,0.74525
5460.28,0.74676
5437.13,0.75138
5413.99,0.75404
5390.84,0.75644
5367.7,0.75612
5344.55,0.75275
5321.41,0.74458
5298.26,0.72389
5275.12,0.69253
5251.97,0.65238
5228.83,0.62562
5205.68,0.61419
5182.54,0.61349
5159.39,0.61986
5136.25,0.63103
5113.1,0.64181
5089.96,0.65158
5066.81,0.66234
5043.67,0.67153
5020.52,0.67744
4997.38,0.67852
4974.23,0.67521
4951.09,0.66195
4927.94,0.64532
4904.8,0.62549
4881.65,0.60638
4858.51,0.58975
4835.36,0.57625
4812.22,0.56492
4789.07,0.55913
4765.93,0.55590
4742.78,0.55564
4719.64,0.55905
4696.49,0.56055
4673.35,0.56408
4650.2,0.57326
4627.06,0.58228
4603.92,0.59411
4580.77,0.60378
4557.63,0.60981
4534.48,0.61478
4511.34,0.61455
4488.19,0.60676
4465.05,0.58427
4441.9,0.55816
4418.76,0.53132
4395.61,0.51733
4372.47,0.52471
4349.32,0.52906
4326.18,0.52354
4303.03,0.51569
4279.89,0.51023
4256.74,0.51446
4233.6,0.51759
4210.45,0.51759
4187.31,0.52045
4164.16,0.52615
4141.02,0.52233
4117.87,0.50823
4094.73,0.49122
4071.58,0.46943
4048.44,0.44790
4025.29,0.43433
4002.15,0.43225
3979,0.43720
3955.86,0.44745
3932.71,0.45861
3909.57,0.46957
3886.42,0.47858
3863.28,0.48791
3840.13,0.49900
3816.99,0.50216
3793.84,0.50120
3770.7,0.49884
3747.55,0.49174
3724.41,0.47648
3701.26,0.44648
3678.12,0.38643
3654.97,0.30125
3631.83,0.23656
3608.68,0.18377
3585.54,0.14065
3562.39,0.11195
3539.25,0.09403
3516.1,0.08253
3492.96,0.07456
3469.81,0.06877
3446.67,0.06580
3423.52,0.06531
3400.38,0.06625
3377.23,0.06636
3354.09,0.06822
3330.94,0.07254
3307.8,0.07802
3284.65,0.08382
3261.51,0.09228
3238.36,0.10336
3215.22,0.11557
3192.07,0.12946
3168.93,0.14316
3145.78,0.15775
3122.64,0.17244
3099.49,0.18594
3076.35,0.19445
3053.2,0.20541
3030.06,0.21026
3006.91,0.19846
2983.77,0.17550
2960.62,0.13789
2937.48,0.11973
2914.33,0.11729
2891.19,0.12118
2868.04,0.13206
2844.9,0.15375
2821.75,0.19484
2798.61,0.22410
2775.46,0.23688
2752.32,0.24235
2729.17,0.24598
2706.03,0.25746
2682.88,0.27135
2659.74,0.27987
2636.59,0.28807
2613.45,0.29797
2590.3,0.30603
2567.16,0.31118
2544.02,0.31347
2520.87,0.32122
2497.73,0.33326
2474.58,0.34508
2451.44,0.35615
2428.29,0.36905
2405.15,0.38400
2382,0.39682
2358.86,0.40677
2335.71,0.41473
2312.57,0.41824
2289.42,0.41753
2266.28,0.41466
2243.13,0.41089
2219.99,0.41056
2196.84,0.40724
2173.7,0.39446
2150.55,0.38495
2127.41,0.38311
2104.26,0.38808
2081.12,0.38986
2057.97,0.38490
2034.83,0.39182
2011.68,0.40659
1988.54,0.41640
1965.39,0.42402
1942.25,0.43632
1919.1,0.44293
1895.96,0.44092
1872.81,0.43639
1849.67,0.43035
1826.52,0.41538
1803.38,0.35891
1780.23,0.26952
1757.09,0.20234
1733.94,0.17462
1710.8,0.21313
1687.65,0.20863
1664.51,0.15614
1641.36,0.16076
1618.22,0.15062
1595.07,0.13574
1571.93,0.19776
1548.78,0.21561
1525.64,0.13947
1502.49,0.09886
1479.35,0.11392
1456.2,0.08497
1433.06,0.08131
1409.91,0.09389
1386.77,0.08515
1363.62,0.08126
1340.48,0.08358
1317.33,0.08153
1294.19,0.08413
1271.04,0.07167
1247.9,0.08142
1224.75,0.08191
1201.61,0.08909
1178.46,0.08047
1155.32,0.07530
1132.17,0.06723
1109.03,0.06982
1085.88,0.07260
1062.74,0.09359
1039.59,0.10284
1016.45,0.12129
993.304,0.13850
970.159,0.18193
947.014,0.22177
923.869,0.24656
900.724,0.22179
877.579,0.24594
854.434,0.26002
831.289,0.26579
808.144,0.24061
784.999,0.25504
761.854,0.23235
738.709,0.21267
715.565,0.18601
692.42,0.16905
669.275,0.14209
646.13,0.14046
622.985,0.12404
599.84,0.13148