Folder: fsri_materials_database/01_Data/Cedar_Shingle/FTIR/IS (part 2)

File: Cedar_Shingle_IS_S_221017_R5.dpt
7497.03,0.89362
7473.89,0.88071
7450.74,0.87458
7427.6,0.86380
7404.45,0.86233
7381.31,0.85023
7358.16,0.83816
7335.02,0.83736
7311.87,0.83161
7288.73,0.83464
7265.58,0.84018
7242.44,0.83237
7219.29,0.82530
7196.15,0.81844
7173,0.82177
7149.86,0.79810
7126.71,0.79881
7103.57,0.77900
7080.42,0.76358
7057.28,0.74306
7034.13,0.72128
7010.99,0.71206
6987.84,0.70220
6964.7,0.69458
6941.55,0.69379
6918.41,0.69085
6895.26,0.69259
6872.12,0.68735
6848.97,0.68191
6825.83,0.68761
6802.68,0.67953
6779.54,0.68988
6756.39,0.68515
6733.25,0.68738
6710.1,0.69007
6686.96,0.69788
6663.82,0.69328
6640.67,0.70412
6617.53,0.70359
6594.38,0.71048
6571.24,0.71572
6548.09,0.71379
6524.95,0.71672
6501.8,0.71322
6478.66,0.71595
6455.51,0.72632
6432.37,0.72272
6409.22,0.72553
6386.08,0.72614
6362.93,0.72403
6339.79,0.72704
6316.64,0.72854
6293.5,0.73492
6270.35,0.73409
6247.21,0.74257
6224.06,0.74514
6200.92,0.75345
6177.77,0.75575
6154.63,0.76023
6131.48,0.76474
6108.34,0.76690
6085.19,0.77102
6062.05,0.76862
6038.9,0.76197
6015.76,0.75851
5992.61,0.74910
5969.47,0.74224
5946.32,0.74699
5923.18,0.74242
5900.03,0.73945
5876.89,0.73543
5853.74,0.73829
5830.6,0.73726
5807.45,0.73268
5784.31,0.73744
5761.16,0.73893
5738.02,0.73907
5714.87,0.73932
5691.73,0.73965
5668.58,0.73932
5645.44,0.73870
5622.29,0.73871
5599.15,0.73892
5576,0.73905
5552.86,0.74293
5529.71,0.74259
5506.57,0.74420
5483.42,0.74554
5460.28,0.74977
5437.13,0.75203
5413.99,0.75654
5390.84,0.75755
5367.7,0.75804
5344.55,0.75594
5321.41,0.74745
5298.26,0.72936
5275.12,0.69584
5251.97,0.65817
5228.83,0.63054
5205.68,0.61775
5182.54,0.61725
5159.39,0.62564
5136.25,0.63418
5113.1,0.64689
5089.96,0.65671
5066.81,0.66534
5043.67,0.67449
5020.52,0.68052
4997.38,0.68153
4974.23,0.67634
4951.09,0.66401
4927.94,0.64654
4904.8,0.62677
4881.65,0.60764
4858.51,0.59039
4835.36,0.57696
4812.22,0.56521
4789.07,0.56034
4765.93,0.55823
4742.78,0.55682
4719.64,0.55877
4696.49,0.56293
4673.35,0.56591
4650.2,0.57370
4627.06,0.58341
4603.92,0.59554
4580.77,0.60515
4557.63,0.61124
4534.48,0.61547
4511.34,0.61629
4488.19,0.60710
4465.05,0.58471
4441.9,0.55975
4418.76,0.53037
4395.61,0.51798
4372.47,0.52501
4349.32,0.52929
4326.18,0.52481
4303.03,0.51733
4279.89,0.51136
4256.74,0.51618
4233.6,0.51975
4210.45,0.51930
4187.31,0.52138
4164.16,0.52693
4141.02,0.52361
4117.87,0.51051
4094.73,0.49158
4071.58,0.46949
4048.44,0.44901
4025.29,0.43494
4002.15,0.43281
3979,0.43866
3955.86,0.44869
3932.71,0.45989
3909.57,0.47042
3886.42,0.48080
3863.28,0.48941
3840.13,0.49913
3816.99,0.50384
3793.84,0.50325
3770.7,0.50044
3747.55,0.49463
3724.41,0.47856
3701.26,0.44960
3678.12,0.39031
3654.97,0.30604
3631.83,0.24087
3608.68,0.18611
3585.54,0.14257
3562.39,0.11292
3539.25,0.09460
3516.1,0.08338
3492.96,0.07471
3469.81,0.06898
3446.67,0.06620
3423.52,0.06580
3400.38,0.06647
3377.23,0.06669
3354.09,0.06816
3330.94,0.07242
3307.8,0.07853
3284.65,0.08397
3261.51,0.09236
3238.36,0.10372
3215.22,0.11659
3192.07,0.12946
3168.93,0.14385
3145.78,0.15903
3122.64,0.17367
3099.49,0.18713
3076.35,0.19647
3053.2,0.20650
3030.06,0.21153
3006.91,0.19940
2983.77,0.17575
2960.62,0.13854
2937.48,0.11965
2914.33,0.11710
2891.19,0.12147
2868.04,0.13238
2844.9,0.15373
2821.75,0.19541
2798.61,0.22529
2775.46,0.23771
2752.32,0.24315
2729.17,0.24701
2706.03,0.25848
2682.88,0.27200
2659.74,0.28109
2636.59,0.28923
2613.45,0.29853
2590.3,0.30705
2567.16,0.31202
2544.02,0.31442
2520.87,0.32199
2497.73,0.33443
2474.58,0.34620
2451.44,0.35707
2428.29,0.37034
2405.15,0.38449
2382,0.39753
2358.86,0.40808
2335.71,0.41595
2312.57,0.41957
2289.42,0.41916
2266.28,0.41606
2243.13,0.41213
2219.99,0.41242
2196.84,0.40911
2173.7,0.39620
2150.55,0.38640
2127.41,0.38445
2104.26,0.38945
2081.12,0.39118
2057.97,0.38631
2034.83,0.39328
2011.68,0.40851
1988.54,0.41793
1965.39,0.42575
1942.25,0.43787
1919.1,0.44439
1895.96,0.44249
1872.81,0.43814
1849.67,0.43195
1826.52,0.41668
1803.38,0.35952
1780.23,0.26956
1757.09,0.20254
1733.94,0.17484
1710.8,0.21364
1687.65,0.20980
1664.51,0.15697
1641.36,0.16231
1618.22,0.15171
1595.07,0.13553
1571.93,0.19866
1548.78,0.21593
1525.64,0.14012
1502.49,0.09872
1479.35,0.11345
1456.2,0.08551
1433.06,0.08151
1409.91,0.09411
1386.77,0.08565
1363.62,0.08138
1340.48,0.08378
1317.33,0.08102
1294.19,0.08407
1271.04,0.07120
1247.9,0.08175
1224.75,0.08226
1201.61,0.08872
1178.46,0.08071
1155.32,0.07498
1132.17,0.06668
1109.03,0.06916
1085.88,0.07348
1062.74,0.09282
1039.59,0.10264
1016.45,0.12176
993.304,0.13836
970.159,0.18241
947.014,0.22286
923.869,0.24697
900.724,0.22260
877.579,0.24672
854.434,0.26174
831.289,0.26732
808.144,0.24209
784.999,0.25473
761.854,0.23416
738.709,0.21363
715.565,0.18675
692.42,0.16890
669.275,0.14200
646.13,0.14094
622.985,0.12319
599.84,0.13222

File: Cedar_Shingle_IS_S_221017_R6.dpt
7497.03,0.89022
7473.89,0.89496
7450.74,0.88275
7427.6,0.86886
7404.45,0.86226
7381.31,0.86522
7358.16,0.84517
7335.02,0.83366
7311.87,0.83015
7288.73,0.82926
7265.58,0.82804
7242.44,0.83279
7219.29,0.82778
7196.15,0.82254
7173,0.80988
7149.86,0.80408
7126.71,0.79199
7103.57,0.77077
7080.42,0.75686
7057.28,0.74108
7034.13,0.72151
7010.99,0.71018
6987.84,0.69944
6964.7,0.69250
6941.55,0.69138
6918.41,0.69179
6895.26,0.68685
6872.12,0.68668
6848.97,0.69074
6825.83,0.68595
6802.68,0.68951
6779.54,0.68564
6756.39,0.69379
6733.25,0.69205
6710.1,0.69228
6686.96,0.69765
6663.82,0.69952
6640.67,0.70102
6617.53,0.70817
6594.38,0.70858
6571.24,0.71022
6548.09,0.71496
6524.95,0.71739
6501.8,0.71765
6478.66,0.72171
6455.51,0.71784
6432.37,0.72066
6409.22,0.71982
6386.08,0.72431
6362.93,0.73106
6339.79,0.72398
6316.64,0.73068
6293.5,0.72868
6270.35,0.73644
6247.21,0.74420
6224.06,0.74692
6200.92,0.75184
6177.77,0.75685
6154.63,0.76300
6131.48,0.76505
6108.34,0.76770
6085.19,0.76717
6062.05,0.76895
6038.9,0.76534
6015.76,0.75827
5992.61,0.75167
5969.47,0.74654
5946.32,0.74396
5923.18,0.74296
5900.03,0.73961
5876.89,0.73725
5853.74,0.73871
5830.6,0.74061
5807.45,0.73474
5784.31,0.73413
5761.16,0.73867
5738.02,0.73873
5714.87,0.73965
5691.73,0.73917
5668.58,0.73883
5645.44,0.73762
5622.29,0.73927
5599.15,0.74054
5576,0.74124
5552.86,0.74342
5529.71,0.74255
5506.57,0.74614
5483.42,0.74657
5460.28,0.75195
5437.13,0.75242
5413.99,0.75798
5390.84,0.76010
5367.7,0.75897
5344.55,0.75772
5321.41,0.74837
5298.26,0.73022
5275.12,0.69916
5251.97,0.66050
5228.83,0.63303
5205.68,0.62342
5182.54,0.62080
5159.39,0.62902
5136.25,0.63982
5113.1,0.65001
5089.96,0.66015
5066.81,0.67101
5043.67,0.67742
5020.52,0.68368
4997.38,0.68505
4974.23,0.67884
4951.09,0.66650
4927.94,0.64674
4904.8,0.62727
4881.65,0.60860
4858.51,0.59217
4835.36,0.57706
4812.22,0.56694
4789.07,0.56180
4765.93,0.55764
4742.78,0.55835
4719.64,0.55962
4696.49,0.56242
4673.35,0.56677
4650.2,0.57544
4627.06,0.58383
4603.92,0.59600
4580.77,0.60536
4557.63,0.61279
4534.48,0.61627
4511.34,0.61737
4488.19,0.60828
4465.05,0.58617
4441.9,0.55982
4418.76,0.53191
4395.61,0.51903
4372.47,0.52532
4349.32,0.53021
4326.18,0.52547
4303.03,0.51785
4279.89,0.51163
4256.74,0.51700
4233.6,0.52029
4210.45,0.52025
4187.31,0.52242
4164.16,0.52830
4141.02,0.52451
4117.87,0.51137
4094.73,0.49339
4071.58,0.47198
4048.44,0.45018
4025.29,0.43646
4002.15,0.43400
3979,0.43997
3955.86,0.44894
3932.71,0.46165
3909.57,0.47190
3886.42,0.48248
3863.28,0.49051
3840.13,0.50162
3816.99,0.50530
3793.84,0.50540
3770.7,0.50272
3747.55,0.49596
3724.41,0.48130
3701.26,0.45254
3678.12,0.39419
3654.97,0.31125
3631.83,0.24435
3608.68,0.18906
3585.54,0.14302
3562.39,0.11373
3539.25,0.09530
3516.1,0.08322
3492.96,0.07402
3469.81,0.06882
3446.67,0.06663
3423.52,0.06611
3400.38,0.06591
3377.23,0.06667
3354.09,0.06850
3330.94,0.07283
3307.8,0.07888
3284.65,0.08411
3261.51,0.09362
3238.36,0.10448
3215.22,0.11677
3192.07,0.13159
3168.93,0.14554
3145.78,0.16076
3122.64,0.17511
3099.49,0.18876
3076.35,0.19797
3053.2,0.20813
3030.06,0.21312
3006.91,0.20007
2983.77,0.17657
2960.62,0.13899
2937.48,0.11998
2914.33,0.11748
2891.19,0.12155
2868.04,0.13282
2844.9,0.15437
2821.75,0.19587
2798.61,0.22574
2775.46,0.23899
2752.32,0.24455
2729.17,0.24734
2706.03,0.25901
2682.88,0.27303
2659.74,0.28231
2636.59,0.29053
2613.45,0.29963
2590.3,0.30824
2567.16,0.31348
2544.02,0.31517
2520.87,0.32335
2497.73,0.33519
2474.58,0.34717
2451.44,0.35829
2428.29,0.37109
2405.15,0.38583
2382,0.39896
2358.86,0.40999
2335.71,0.41780
2312.57,0.42136
2289.42,0.42099
2266.28,0.41800
2243.13,0.41393
2219.99,0.41453
2196.84,0.41163
2173.7,0.39849
2150.55,0.38872
2127.41,0.38683
2104.26,0.39223
2081.12,0.39365
2057.97,0.38842
2034.83,0.39563
2011.68,0.41035
1988.54,0.41982
1965.39,0.42765
1942.25,0.43963
1919.1,0.44642
1895.96,0.44435
1872.81,0.43981
1849.67,0.43330
1826.52,0.41839
1803.38,0.36019
1780.23,0.26976
1757.09,0.20239
1733.94,0.17507
1710.8,0.21419
1687.65,0.21060
1664.51,0.15805
1641.36,0.16362
1618.22,0.15227
1595.07,0.13604
1571.93,0.19899
1548.78,0.21683
1525.64,0.13981
1502.49,0.09878
1479.35,0.11400
1456.2,0.08523
1433.06,0.08217
1409.91,0.09404
1386.77,0.08598
1363.62,0.08169
1340.48,0.08358
1317.33,0.08165
1294.19,0.08448
1271.04,0.07179
1247.9,0.08185
1224.75,0.08269
1201.61,0.08962
1178.46,0.08042
1155.32,0.07535
1132.17,0.06713
1109.03,0.06956
1085.88,0.07277
1062.74,0.09390
1039.59,0.10292
1016.45,0.12215
993.304,0.13876
970.159,0.18289
947.014,0.22353
923.869,0.24789
900.724,0.22387
877.579,0.24795
854.434,0.26350
831.289,0.26918
808.144,0.24348
784.999,0.25721
761.854,0.23543
738.709,0.21454
715.565,0.18789
692.42,0.17115
669.275,0.14197
646.13,0.14120
622.985,0.12271
599.84,0.13177

File: Cedar_Shingle_IS_S_221017_R7.dpt
7497.03,0.88371
7473.89,0.87602
7450.74,0.86516
7427.6,0.86888
7404.45,0.86748
7381.31,0.84827
7358.16,0.84599
7335.02,0.84985
7311.87,0.83976
7288.73,0.83728
7265.58,0.83023
7242.44,0.83501
7219.29,0.83391
7196.15,0.81660
7173,0.81180
7149.86,0.80510
7126.71,0.79364
7103.57,0.77729
7080.42,0.76372
7057.28,0.74564
7034.13,0.72334
7010.99,0.71158
6987.84,0.69788
6964.7,0.70004
6941.55,0.69466
6918.41,0.69010
6895.26,0.69227
6872.12,0.68931
6848.97,0.68313
6825.83,0.68411
6802.68,0.69383
6779.54,0.69085
6756.39,0.69380
6733.25,0.69647
6710.1,0.69098
6686.96,0.69370
6663.82,0.69837
6640.67,0.70352
6617.53,0.70809
6594.38,0.71531
6571.24,0.71061
6548.09,0.71093
6524.95,0.71437
6501.8,0.71805
6478.66,0.71876
6455.51,0.71824
6432.37,0.72120
6409.22,0.72486
6386.08,0.72442
6362.93,0.72518
6339.79,0.72343
6316.64,0.73040
6293.5,0.72999
6270.35,0.73320
6247.21,0.74034
6224.06,0.74728
6200.92,0.75399
6177.77,0.76005
6154.63,0.76022
6131.48,0.76556
6108.34,0.77254
6085.19,0.77105
6062.05,0.76795
6038.9,0.76477
6015.76,0.75610
5992.61,0.74965
5969.47,0.74676
5946.32,0.74672
5923.18,0.74602
5900.03,0.74156
5876.89,0.74056
5853.74,0.73922
5830.6,0.74037
5807.45,0.73487
5784.31,0.73445
5761.16,0.73787
5738.02,0.73986
5714.87,0.74360
5691.73,0.74013
5668.58,0.74034
5645.44,0.73963
5622.29,0.74053
5599.15,0.73918
5576,0.74245
5552.86,0.74545
5529.71,0.74579
5506.57,0.74829
5483.42,0.74907
5460.28,0.74951
5437.13,0.75439
5413.99,0.75904
5390.84,0.76080
5367.7,0.76094
5344.55,0.75765
5321.41,0.74973
5298.26,0.73068
5275.12,0.70041
5251.97,0.66169
5228.83,0.63816
5205.68,0.62485
5182.54,0.62601
5159.39,0.63288
5136.25,0.64354
5113.1,0.65441
5089.96,0.66335
5066.81,0.67220
5043.67,0.68061
5020.52,0.68563
4997.38,0.68612
4974.23,0.68120
4951.09,0.66718
4927.94,0.64855
4904.8,0.62858
4881.65,0.60963
4858.51,0.59186
4835.36,0.57852
4812.22,0.56701
4789.07,0.56174
4765.93,0.55810
4742.78,0.55940
4719.64,0.55981
4696.49,0.56404
4673.35,0.56877
4650.2,0.57538
4627.06,0.58434
4603.92,0.59633
4580.77,0.60693
4557.63,0.61250
4534.48,0.61764
4511.34,0.61760
4488.19,0.60886
4465.05,0.58626
4441.9,0.56113
4418.76,0.53258
4395.61,0.51783
4372.47,0.52661
4349.32,0.53128
4326.18,0.52645
4303.03,0.51818
4279.89,0.51285
4256.74,0.51700
4233.6,0.51988
4210.45,0.52103
4187.31,0.52275
4164.16,0.52902
4141.02,0.52475
4117.87,0.51270
4094.73,0.49423
4071.58,0.47200
4048.44,0.45087
4025.29,0.43682
4002.15,0.43468
3979,0.44064
3955.86,0.45061
3932.71,0.46176
3909.57,0.47368
3886.42,0.48208
3863.28,0.49208
3840.13,0.50268
3816.99,0.50653
3793.84,0.50642
3770.7,0.50470
3747.55,0.49874
3724.41,0.48339
3701.26,0.45516
3678.12,0.39702
3654.97,0.31396
3631.83,0.24733
3608.68,0.19094
3585.54,0.14467
3562.39,0.11468
3539.25,0.09577
3516.1,0.08334
3492.96,0.07466
3469.81,0.06837
3446.67,0.06679
3423.52,0.06538
3400.38,0.06614
3377.23,0.06667
3354.09,0.06840
3330.94,0.07277
3307.8,0.07843
3284.65,0.08442
3261.51,0.09344
3238.36,0.10449
3215.22,0.11682
3192.07,0.13171
3168.93,0.14597
3145.78,0.16143
3122.64,0.17583
3099.49,0.18964
3076.35,0.19847
3053.2,0.20894
3030.06,0.21373
3006.91,0.20111
2983.77,0.17719
2960.62,0.13967
2937.48,0.11986
2914.33,0.11719
2891.19,0.12190
2868.04,0.13269
2844.9,0.15486
2821.75,0.19609
2798.61,0.22627
2775.46,0.23908
2752.32,0.24439
2729.17,0.24816
2706.03,0.25994
2682.88,0.27380
2659.74,0.28286
2636.59,0.29103
2613.45,0.30075
2590.3,0.30867
2567.16,0.31353
2544.02,0.31565
2520.87,0.32354
2497.73,0.33578
2474.58,0.34817
2451.44,0.35846
2428.29,0.37220
2405.15,0.38692
2382,0.39961
2358.86,0.41107
2335.71,0.41861
2312.57,0.42226
2289.42,0.42189
2266.28,0.41920
2243.13,0.41590
2219.99,0.41567
2196.84,0.41278
2173.7,0.39949
2150.55,0.39012
2127.41,0.38814
2104.26,0.39362
2081.12,0.39509
2057.97,0.38979
2034.83,0.39695
2011.68,0.41170
1988.54,0.42166
1965.39,0.42892
1942.25,0.44082
1919.1,0.44766
1895.96,0.44554
1872.81,0.44057
1849.67,0.43448
1826.52,0.41899
1803.38,0.36055
1780.23,0.27029
1757.09,0.20216
1733.94,0.17540
1710.8,0.21457
1687.65,0.21135
1664.51,0.15873
1641.36,0.16472
1618.22,0.15280
1595.07,0.13640
1571.93,0.19909
1548.78,0.21764
1525.64,0.14020
1502.49,0.09915
1479.35,0.11426
1456.2,0.08561
1433.06,0.08136
1409.91,0.09403
1386.77,0.08589
1363.62,0.08133
1340.48,0.08396
1317.33,0.08210
1294.19,0.08406
1271.04,0.07133
1247.9,0.08194
1224.75,0.08276
1201.61,0.08909
1178.46,0.08080
1155.32,0.07532
1132.17,0.06680
1109.03,0.06948
1085.88,0.07303
1062.74,0.09341
1039.59,0.10298
1016.45,0.12208
993.304,0.13981
970.159,0.18328
947.014,0.22369
923.869,0.24825
900.724,0.22450
877.579,0.24843
854.434,0.26429
831.289,0.27044
808.144,0.24515
784.999,0.25771
761.854,0.23685
738.709,0.21600
715.565,0.18891
692.42,0.17101
669.275,0.14228
646.13,0.14123
622.985,0.12518
599.84,0.12987

File: Cedar_Shingle_IS_S_221017_R8.dpt
7497.03,0.88771
7473.89,0.89591
7450.74,0.88110
7427.6,0.86410
7404.45,0.85641
7381.31,0.85753
7358.16,0.84650
7335.02,0.84092
7311.87,0.83749
7288.73,0.83506
7265.58,0.82598
7242.44,0.82657
7219.29,0.82840
7196.15,0.81401
7173,0.82030
7149.86,0.81311
7126.71,0.79833
7103.57,0.77829
7080.42,0.76409
7057.28,0.74345
7034.13,0.73005
7010.99,0.71059
6987.84,0.70031
6964.7,0.69204
6941.55,0.69562
6918.41,0.68963
6895.26,0.69001
6872.12,0.69137
6848.97,0.68922
6825.83,0.68924
6802.68,0.69241
6779.54,0.69062
6756.39,0.68931
6733.25,0.69278
6710.1,0.69029
6686.96,0.70043
6663.82,0.70025
6640.67,0.70446
6617.53,0.70439
6594.38,0.70813
6571.24,0.71564
6548.09,0.71452
6524.95,0.71535
6501.8,0.71412
6478.66,0.72070
6455.51,0.72266
6432.37,0.72469
6409.22,0.72353
6386.08,0.72227
6362.93,0.73012
6339.79,0.72758
6316.64,0.73305
6293.5,0.73199
6270.35,0.73426
6247.21,0.74277
6224.06,0.74849
6200.92,0.75529
6177.77,0.76006
6154.63,0.76425
6131.48,0.76737
6108.34,0.76888
6085.19,0.76973
6062.05,0.76772
6038.9,0.76506
6015.76,0.75899
5992.61,0.75310
5969.47,0.74642
5946.32,0.74673
5923.18,0.74474
5900.03,0.73995
5876.89,0.73784
5853.74,0.74043
5830.6,0.74034
5807.45,0.73390
5784.31,0.73783
5761.16,0.74051
5738.02,0.74231
5714.87,0.74151
5691.73,0.73904
5668.58,0.74141
5645.44,0.74144
5622.29,0.73993
5599.15,0.74256
5576,0.74275
5552.86,0.74616
5529.71,0.74572
5506.57,0.74762
5483.42,0.74981
5460.28,0.75223
5437.13,0.75447
5413.99,0.76025
5390.84,0.76021
5367.7,0.76258
5344.55,0.75906
5321.41,0.75164
5298.26,0.73279
5275.12,0.70189
5251.97,0.66470
5228.83,0.63977
5205.68,0.62993
5182.54,0.62697
5159.39,0.63344
5136.25,0.64446
5113.1,0.65553
5089.96,0.66704
5066.81,0.67481
5043.67,0.68141
5020.52,0.68765
4997.38,0.68779
4974.23,0.68198
4951.09,0.66964
4927.94,0.64984
4904.8,0.63022
4881.65,0.61043
4858.51,0.59199
4835.36,0.57910
4812.22,0.56829
4789.07,0.56228
4765.93,0.56015
4742.78,0.55918
4719.64,0.56178
4696.49,0.56522
4673.35,0.56732
4650.2,0.57728
4627.06,0.58530
4603.92,0.59757
4580.77,0.60729
4557.63,0.61357
4534.48,0.61809
4511.34,0.61930
4488.19,0.60997
4465.05,0.58782
4441.9,0.56151
4418.76,0.53309
4395.61,0.51973
4372.47,0.52682
4349.32,0.53140
4326.18,0.52665
4303.03,0.51933
4279.89,0.51351
4256.74,0.51842
4233.6,0.52197
4210.45,0.52108
4187.31,0.52383
4164.16,0.52962
4141.02,0.52683
4117.87,0.51369
4094.73,0.49510
4071.58,0.47396
4048.44,0.45094
4025.29,0.43769
4002.15,0.43600
3979,0.44194
3955.86,0.45143
3932.71,0.46286
3909.57,0.47367
3886.42,0.48361
3863.28,0.49316
3840.13,0.50401
3816.99,0.50790
3793.84,0.50714
3770.7,0.50560
3747.55,0.49971
3724.41,0.48489
3701.26,0.45683
3678.12,0.39830
3654.97,0.31634
3631.83,0.24896
3608.68,0.19192
3585.54,0.14558
3562.39,0.11480
3539.25,0.09584
3516.1,0.08297
3492.96,0.07466
3469.81,0.06892
3446.67,0.06587
3423.52,0.06651
3400.38,0.06602
3377.23,0.06653
3354.09,0.06857
3330.94,0.07293
3307.8,0.07898
3284.65,0.08416
3261.51,0.09352
3238.36,0.10419
3215.22,0.11785
3192.07,0.13229
3168.93,0.14679
3145.78,0.16191
3122.64,0.17684
3099.49,0.19053
3076.35,0.19993
3053.2,0.21006
3030.06,0.21426
3006.91,0.20109
2983.77,0.17748
2960.62,0.13972
2937.48,0.12004
2914.33,0.11723
2891.19,0.12213
2868.04,0.13289
2844.9,0.15473
2821.75,0.19633
2798.61,0.22702
2775.46,0.23953
2752.32,0.24542
2729.17,0.24873
2706.03,0.26077
2682.88,0.27447
2659.74,0.28318
2636.59,0.29124
2613.45,0.30119
2590.3,0.30925
2567.16,0.31416
2544.02,0.31663
2520.87,0.32428
2497.73,0.33682
2474.58,0.34896
2451.44,0.35933
2428.29,0.37313
2405.15,0.38775
2382,0.40074
2358.86,0.41154
2335.71,0.41960
2312.57,0.42308
2289.42,0.42298
2266.28,0.42033
2243.13,0.41627
2219.99,0.41655
2196.84,0.41405
2173.7,0.40063
2150.55,0.39091
2127.41,0.38907
2104.26,0.39447
2081.12,0.39628
2057.97,0.39063
2034.83,0.39775
2011.68,0.41315
1988.54,0.42174
1965.39,0.43021
1942.25,0.44238
1919.1,0.44852
1895.96,0.44630
1872.81,0.44185
1849.67,0.43544
1826.52,0.42011
1803.38,0.36115
1780.23,0.27050
1757.09,0.20244
1733.94,0.17587
1710.8,0.21533
1687.65,0.21203
1664.51,0.15949
1641.36,0.16565
1618.22,0.15322
1595.07,0.13696
1571.93,0.19952
1548.78,0.21769
1525.64,0.14032
1502.49,0.09903
1479.35,0.11435
1456.2,0.08550
1433.06,0.08208
1409.91,0.09408
1386.77,0.08607
1363.62,0.08173
1340.48,0.08374
1317.33,0.08140
1294.19,0.08425
1271.04,0.07213
1247.9,0.08197
1224.75,0.08250
1201.61,0.08960
1178.46,0.08092
1155.32,0.07523
1132.17,0.06709
1109.03,0.06939
1085.88,0.07263
1062.74,0.09313
1039.59,0.10269
1016.45,0.12233
993.304,0.13908
970.159,0.18322
947.014,0.22375
923.869,0.24916
900.724,0.22461
877.579,0.24933
854.434,0.26439
831.289,0.27063
808.144,0.24464
784.999,0.25879
761.854,0.23694
738.709,0.21568
715.565,0.18886
692.42,0.17019
669.275,0.14228
646.13,0.14265
622.985,0.12285
599.84,0.12951

File: Cedar_Shingle_IS_T_221017_R6.dpt
7497.03,0.02206
7473.89,0.02481
7450.74,0.02864
7427.6,0.02258
7404.45,0.01434
7381.31,0.02761
7358.16,0.03195
7335.02,0.02340
7311.87,0.02465
7288.73,0.01984
7265.58,0.02074
7242.44,0.02412
7219.29,0.02112
7196.15,0.03079
7173,0.02314
7149.86,0.01948
7126.71,0.02378
7103.57,0.02716
7080.42,0.02316
7057.28,0.02366
7034.13,0.02265
7010.99,0.01925
6987.84,0.02460
6964.7,0.02055
6941.55,0.02080
6918.41,0.02457
6895.26,0.02040
6872.12,0.02531
6848.97,0.02224
6825.83,0.02347
6802.68,0.02603
6779.54,0.02436
6756.39,0.02338
6733.25,0.01750
6710.1,0.02515
6686.96,0.02456
6663.82,0.02347
6640.67,0.02240
6617.53,0.02471
6594.38,0.02351
6571.24,0.02161
6548.09,0.02595
6524.95,0.02254
6501.8,0.02658
6478.66,0.02334
6455.51,0.02359
6432.37,0.02162
6409.22,0.02305
6386.08,0.02148
6362.93,0.02055
6339.79,0.02516
6316.64,0.02488
6293.5,0.02249
6270.35,0.02174
6247.21,0.02243
6224.06,0.02228
6200.92,0.02187
6177.77,0.01728
6154.63,0.02064
6131.48,0.02219
6108.34,0.02393
6085.19,0.02147
6062.05,0.02088
6038.9,0.02243
6015.76,0.02417
5992.61,0.02282
5969.47,0.02320
5946.32,0.02210
5923.18,0.02473
5900.03,0.02220
5876.89,0.02159
5853.74,0.02312
5830.6,0.02208
5807.45,0.02168
5784.31,0.02220
5761.16,0.02173
5738.02,0.02271
5714.87,0.02154
5691.73,0.02318
5668.58,0.02317
5645.44,0.02112
5622.29,0.02332
5599.15,0.02055
5576,0.02239
5552.86,0.02189
5529.71,0.02268
5506.57,0.02223
5483.42,0.02220
5460.28,0.02238
5437.13,0.02223
5413.99,0.02187
5390.84,0.02047
5367.7,0.02256
5344.55,0.02252
5321.41,0.02431
5298.26,0.02232
5275.12,0.02283
5251.97,0.02137
5228.83,0.02223
5205.68,0.02264
5182.54,0.02154
5159.39,0.02136
5136.25,0.02237
5113.1,0.02249
5089.96,0.02192
5066.81,0.02366
5043.67,0.02183
5020.52,0.02292
4997.38,0.02318
4974.23,0.02278
4951.09,0.02369
4927.94,0.02328
4904.8,0.02257
4881.65,0.02303
4858.51,0.02343
4835.36,0.02261
4812.22,0.02232
4789.07,0.02280
4765.93,0.02245
4742.78,0.02325
4719.64,0.02189
4696.49,0.02293
4673.35,0.02312
4650.2,0.02312
4627.06,0.02295
4603.92,0.02345
4580.77,0.02314
4557.63,0.02301
4534.48,0.02329
4511.34,0.02259
4488.19,0.02197
4465.05,0.02353
4441.9,0.02192
4418.76,0.02397
4395.61,0.02272
4372.47,0.02362
4349.32,0.02249
4326.18,0.02300
4303.03,0.02366
4279.89,0.02313
4256.74,0.02353
4233.6,0.02303
4210.45,0.02344
4187.31,0.02329
4164.16,0.02318
4141.02,0.02323
4117.87,0.02408
4094.73,0.02316
4071.58,0.02347
4048.44,0.02364
4025.29,0.02255
4002.15,0.02276
3979,0.02309
3955.86,0.02343
3932.71,0.02363
3909.57,0.02373
3886.42,0.02374
3863.28,0.02339
3840.13,0.02355
3816.99,0.02421
3793.84,0.02371
3770.7,0.02348
3747.55,0.02395
3724.41,0.02347
3701.26,0.02282
3678.12,0.02318
3654.97,0.02292
3631.83,0.02288
3608.68,0.02236
3585.54,0.02300
3562.39,0.02307
3539.25,0.02186
3516.1,0.02120
3492.96,0.02172
3469.81,0.02204
3446.67,0.02156
3423.52,0.02099
3400.38,0.02110
3377.23,0.02034
3354.09,0.02147
3330.94,0.02063
3307.8,0.02112
3284.65,0.02127
3261.51,0.02217
3238.36,0.02196
3215.22,0.02081
3192.07,0.02195
3168.93,0.02211
3145.78,0.02200
3122.64,0.02132
3099.49,0.02206
3076.35,0.02127
3053.2,0.02139
3030.06,0.02167
3006.91,0.02184
2983.77,0.02016
2960.62,0.02015
2937.48,0.02044
2914.33,0.02077
2891.19,0.02136
2868.04,0.02118
2844.9,0.02222
2821.75,0.02231
2798.61,0.02190
2775.46,0.02213
2752.32,0.02220
2729.17,0.02223
2706.03,0.02209
2682.88,0.02212
2659.74,0.02205
2636.59,0.02223
2613.45,0.02238
2590.3,0.02174
2567.16,0.02233
2544.02,0.02174
2520.87,0.02216
2497.73,0.02195
2474.58,0.02220
2451.44,0.02240
2428.29,0.02219
2405.15,0.02176
2382,0.02225
2358.86,0.02217
2335.71,0.02222
2312.57,0.02194
2289.42,0.02198
2266.28,0.02194
2243.13,0.02186
2219.99,0.02224
2196.84,0.02201
2173.7,0.02187
2150.55,0.02226
2127.41,0.02196
2104.26,0.02212
2081.12,0.02187
2057.97,0.02193
2034.83,0.02187
2011.68,0.02184
1988.54,0.02146
1965.39,0.02170
1942.25,0.02178
1919.1,0.02129
1895.96,0.02163
1872.81,0.02155
1849.67,0.02108
1826.52,0.02095
1803.38,0.02062
1780.23,0.01975
1757.09,0.01836
1733.94,0.02037
1710.8,0.02124
1687.65,0.01975
1664.51,0.01922
1641.36,0.01883
1618.22,0.01946
1595.07,0.01938
1571.93,0.01882
1548.78,0.01863
1525.64,0.01885
1502.49,0.01946
1479.35,0.01894
1456.2,0.01889
1433.06,0.01899
1409.91,0.01882
1386.77,0.01807
1363.62,0.01866
1340.48,0.01782
1317.33,0.01743
1294.19,0.01848
1271.04,0.01998
1247.9,0.02064
1224.75,0.01978
1201.61,0.01879
1178.46,0.01809
1155.32,0.01811
1132.17,0.01874
1109.03,0.01914
1085.88,0.01881
1062.74,0.02028
1039.59,0.02012
1016.45,0.01972
993.304,0.02221
970.159,0.02064
947.014,0.02026
923.869,0.01925
900.724,0.01928
877.579,0.01921
854.434,0.01889
831.289,0.01937
808.144,0.01842
784.999,0.01906
761.854,0.01861
738.709,0.01917
715.565,0.01896
692.42,0.01708
669.275,0.01819
646.13,0.01670
622.985,0.01672
599.84,0.01484