Folder: fsri_materials_database/01_Data/Polyisocyanurate_Foam_Board/Cone (part 2)

File: Polyisocyanurate_Foam_Board_HRRPUA_75.csv
Time after Ignition,Polyisocyanurate_Foam_Board_R1,Polyisocyanurate_Foam_Board_R2,Polyisocyanurate_Foam_Board_R3,Polyisocyanurate_Foam_Board_R4,Mean,Std. Dev.
0.0,12.3,18.8,9.4,18.5,14.7,4.7
0.5,20.7,25.0,24.4,32.8,25.7,5.1
1.0,27.0,37.3,37.0,44.2,36.3,7.1
1.5,32.0,52.9,65.0,60.9,52.7,14.7
2.0,41.8,63.9,88.1,80.5,68.6,20.5
2.5,49.6,88.6,106.8,104.4,87.4,26.4
3.0,60.4,106.0,126.6,129.8,105.7,32.0
3.5,67.1,135.3,149.2,147.7,124.8,39.0
4.0,75.4,161.3,188.8,173.8,149.8,50.9
4.5,83.0,191.0,195.6,197.7,166.8,55.9
5.0,92.3,219.8,223.7,229.7,191.4,66.2
5.5,101.0,244.4,244.9,244.4,208.7,71.8
6.0,108.5,262.9,266.1,263.9,225.3,77.9
6.5,118.8,282.1,293.6,280.4,243.7,83.5
7.0,133.9,303.3,303.2,300.1,260.1,84.2
7.5,146.3,323.1,311.7,303.3,271.1,83.6
8.0,161.4,331.9,323.3,315.9,283.1,81.4
8.5,171.7,332.8,336.2,322.7,290.8,79.7
9.0,179.0,347.2,343.3,330.8,300.1,81.0
9.5,184.9,354.2,339.8,331.4,302.6,79.0
10.0,196.9,351.9,349.7,336.2,308.7,74.8
10.5,204.7,353.9,345.0,329.1,308.2,69.8
11.0,210.6,352.7,342.5,325.8,307.9,65.8
11.5,218.4,343.5,335.2,318.0,303.8,57.9
12.0,230.9,341.2,326.3,310.5,302.2,49.2
12.5,225.9,330.3,319.7,295.7,292.9,47.0
13.0,233.6,319.2,314.0,287.5,288.6,39.2
13.5,238.3,319.6,303.2,275.6,284.1,35.6
14.0,242.4,302.5,288.7,265.3,274.7,26.5
14.5,247.8,302.1,279.8,256.6,271.6,24.4
15.0,243.2,296.5,273.7,251.7,266.3,23.9
15.5,252.2,285.9,261.0,242.6,260.4,18.6
16.0,250.0,280.9,256.5,234.5,255.5,19.3
16.5,253.0,269.9,247.0,228.2,249.5,17.2
17.0,248.5,261.5,238.6,218.4,241.7,18.2
17.5,255.1,253.0,229.2,213.1,237.6,20.1
18.0,252.3,242.5,222.8,209.3,231.7,19.4
18.5,251.0,233.7,214.8,204.4,226.0,20.7
19.0,253.0,230.1,207.6,200.4,222.8,23.8
19.5,253.3,220.9,204.8,195.3,218.5,25.4
20.0,253.6,215.2,195.4,192.4,214.2,28.2
20.5,248.8,205.2,195.1,186.3,208.9,27.7
21.0,251.3,200.7,189.2,182.8,206.0,31.1
21.5,247.6,197.8,188.1,180.5,203.5,30.2
22.0,243.8,195.2,182.6,175.8,199.3,30.7
22.5,242.8,187.9,180.0,172.3,195.7,32.0
23.0,239.0,184.4,175.2,168.7,191.8,32.1
23.5,235.6,181.1,173.7,167.5,189.5,31.2
24.0,233.0,178.0,171.7,162.9,186.4,31.7
24.5,229.1,174.8,171.4,161.4,184.2,30.5
25.0,222.3,172.4,169.3,159.9,181.0,28.0
25.5,219.5,170.7,169.0,157.7,179.2,27.5
26.0,213.0,165.3,165.9,155.7,175.0,25.8
26.5,208.4,164.3,167.7,153.7,173.5,24.0
27.0,204.2,160.9,163.1,151.0,169.8,23.5
27.5,203.5,159.5,165.3,149.5,169.4,23.6
28.0,194.5,156.4,162.5,146.5,165.0,20.8
28.5,191.3,154.2,161.0,147.8,163.6,19.2
29.0,190.3,155.7,159.4,143.7,162.3,19.8
29.5,183.8,153.4,161.9,143.3,160.6,17.2
30.0,183.1,152.1,160.9,143.3,159.9,17.1
30.5,179.5,149.2,159.2,141.9,157.4,16.3
31.0,176.5,153.6,159.4,141.0,157.6,14.8
31.5,169.4,150.7,157.4,139.7,154.3,12.5
32.0,167.8,150.6,156.2,135.8,152.6,13.3
32.5,167.1,148.6,158.4,138.3,153.1,12.4
33.0,161.8,147.2,157.2,139.7,151.5,9.9
33.5,159.2,148.9,156.0,137.1,150.3,9.8
34.0,156.0,146.2,155.8,136.2,148.5,9.4
34.5,154.8,144.9,153.5,135.7,147.2,8.9
35.0,153.6,150.3,154.1,135.4,148.3,8.8
35.5,151.6,147.3,154.6,133.9,146.8,9.1
36.0,149.8,147.2,155.5,136.0,147.1,8.2
36.5,147.7,147.7,154.4,134.7,146.1,8.2
37.0,146.8,147.9,153.4,133.4,145.4,8.5
37.5,144.0,149.6,152.7,134.2,145.1,8.1
38.0,142.6,150.0,154.0,132.1,144.7,9.6
38.5,142.5,147.9,154.3,134.2,144.7,8.5
39.0,137.9,148.6,152.5,132.3,142.9,9.4
39.5,137.0,146.9,152.7,134.4,142.7,8.6
40.0,137.1,149.3,153.6,134.6,143.7,9.3
40.5,134.2,149.1,151.3,134.6,142.3,9.1
41.0,133.0,150.7,152.3,134.7,142.7,10.2
41.5,132.2,146.9,153.2,134.7,141.7,10.0
42.0,130.4,149.0,152.5,135.6,141.9,10.5
42.5,130.3,148.1,153.6,133.8,141.5,11.2
43.0,129.5,148.5,152.1,132.5,140.6,11.3
43.5,128.0,147.1,150.3,131.5,139.2,11.1
44.0,126.9,147.2,150.0,132.7,139.2,11.2
44.5,128.0,148.2,148.7,132.3,139.3,10.7
45.0,125.6,147.5,153.1,131.3,139.4,13.1
45.5,125.6,147.8,151.8,133.0,139.5,12.3
46.0,127.8,146.8,151.8,132.9,139.8,11.3
46.5,122.1,148.0,153.9,134.8,139.7,14.2
47.0,122.4,151.8,149.7,135.1,139.7,13.7
47.5,125.1,148.3,149.7,139.3,140.6,11.3
48.0,122.3,148.5,149.5,138.5,139.7,12.6
48.5,122.8,150.9,149.7,140.2,140.9,13.0
49.0,124.8,155.1,145.9,141.4,141.8,12.7
49.5,124.5,151.4,146.5,139.9,140.6,11.7
50.0,123.8,150.8,146.4,141.3,140.6,11.8
50.5,123.8,154.5,145.3,142.0,141.4,12.9
51.0,125.0,156.2,143.6,142.7,141.8,12.8
51.5,124.3,153.1,144.7,144.2,141.6,12.2
52.0,123.9,152.8,140.7,142.4,139.9,12.0
52.5,126.2,149.4,142.9,141.4,140.0,9.8
53.0,125.5,149.7,143.3,136.6,138.8,10.3
53.5,126.0,147.0,140.9,133.0,136.7,9.1
54.0,127.1,142.7,140.3,132.0,135.5,7.3
54.5,126.5,142.1,136.8,130.2,133.9,6.9
55.0,127.9,137.1,136.3,127.0,132.1,5.4
55.5,128.9,136.2,134.9,125.7,131.4,5.0
56.0,127.3,131.9,132.8,120.7,128.2,5.6
56.5,130.7,129.2,130.0,119.9,127.5,5.1
57.0,127.9,125.7,127.6,117.2,124.6,5.0
57.5,128.2,123.0,124.5,115.1,122.7,5.5
58.0,129.6,119.3,121.1,111.1,120.3,7.6
58.5,131.0,116.5,120.4,110.1,119.5,8.8
59.0,130.1,112.9,117.7,108.8,117.4,9.2
59.5,127.4,110.0,114.2,107.2,114.7,8.9
60.0,129.3,106.8,112.3,103.1,112.8,11.6
60.5,125.8,104.5,107.9,100.9,109.8,11.1
61.0,124.6,101.4,104.7,97.8,107.1,12.0
61.5,122.0,99.9,103.2,97.0,105.5,11.3
62.0,120.8,99.1,99.9,95.2,103.7,11.6
62.5,120.2,96.0,98.1,92.8,101.8,12.4
63.0,117.6,94.4,95.3,93.0,100.1,11.7
63.5,115.1,93.4,91.3,90.9,97.7,11.7
64.0,111.7,90.6,90.3,89.6,95.6,10.8
64.5,111.0,87.3,89.5,89.4,94.3,11.2
65.0,109.3,88.4,87.6,87.7,93.3,10.7
65.5,107.2,85.3,85.6,86.8,91.2,10.7
66.0,105.3,81.7,84.6,85.1,89.2,10.8
66.5,103.0,80.2,84.6,83.9,87.9,10.2
67.0,103.3,77.9,82.4,82.1,86.4,11.4
67.5,99.1,75.9,80.8,80.4,84.1,10.3
68.0,100.2,75.0,78.3,77.6,82.8,11.7
68.5,96.6,73.6,76.1,75.7,80.5,10.8
69.0,96.1,70.5,76.9,73.7,79.3,11.5
69.5,93.2,69.7,74.3,71.7,77.2,10.8
70.0,91.8,67.6,71.8,70.1,75.3,11.1
70.5,89.0,66.6,70.8,68.9,73.8,10.3
71.0,87.1,66.7,69.1,67.6,72.6,9.7
71.5,84.9,63.7,67.5,66.5,70.6,9.7
72.0,82.7,63.1,66.4,65.0,69.3,9.0
72.5,80.0,63.0,65.0,63.3,67.8,8.1
73.0,78.6,60.0,64.7,62.4,66.4,8.3
73.5,75.8,59.4,61.6,61.4,64.6,7.6
74.0,74.7,58.5,62.1,58.8,63.6,7.6
74.5,73.4,57.2,61.6,58.0,62.6,7.5
75.0,70.0,55.6,59.0,56.4,60.2,6.7
75.5,68.5,54.6,58.3,55.0,59.1,6.5
76.0,66.9,52.8,57.4,54.0,57.8,6.4
76.5,65.2,52.7,55.4,53.4,56.7,5.8
77.0,63.9,51.6,54.3,52.2,55.5,5.7
77.5,63.1,50.1,53.5,51.7,54.6,5.8
78.0,60.3,48.5,52.6,50.4,53.0,5.2
78.5,59.0,47.6,51.9,49.8,52.1,4.9
79.0,58.3,46.3,50.7,49.4,51.2,5.1
79.5,57.0,45.7,50.1,48.2,50.2,4.9
80.0,55.7,43.9,49.3,48.5,49.3,4.8
80.5,53.9,42.7,48.3,47.9,48.2,4.6
81.0,52.4,41.8,47.6,46.3,47.0,4.4
81.5,52.6,40.6,47.1,46.0,46.6,4.9
82.0,51.0,39.2,46.1,44.9,45.3,4.8
82.5,50.8,39.0,45.5,43.5,44.7,4.9
83.0,49.7,38.3,44.7,42.6,43.8,4.7
83.5,48.9,37.5,44.9,43.5,43.7,4.7
84.0,48.4,37.0,44.4,42.4,43.1,4.7
84.5,47.3,36.1,44.3,43.1,42.7,4.7
85.0,46.3,35.4,42.7,42.2,41.7,4.5
85.5,46.8,35.7,42.4,41.7,41.7,4.6
86.0,45.9,34.4,42.1,41.8,41.0,4.8
86.5,44.9,34.0,42.0,42.1,40.7,4.7
87.0,44.8,33.2,41.4,41.7,40.3,5.0
87.5,44.4,33.0,41.0,40.5,39.7,4.8
88.0,42.9,32.6,41.0,40.8,39.3,4.5
88.5,43.5,32.1,40.1,40.0,38.9,4.8
89.0,42.5,32.0,39.8,40.1,38.6,4.6
89.5,42.1,31.6,39.3,39.5,38.1,4.5
90.0,41.6,31.7,39.4,39.4,38.0,4.3
90.5,41.6,31.5,39.0,38.4,37.6,4.3
91.0,40.5,31.1,39.1,38.2,37.2,4.2
91.5,39.4,30.7,38.3,38.6,36.8,4.1
92.0,39.7,,38.1,38.8,38.8,0.8
92.5,38.7,,37.8,37.8,38.1,0.5
93.0,38.3,,38.0,37.0,37.8,0.7
93.5,37.5,,38.0,37.3,37.6,0.3
94.0,37.0,,37.0,37.6,37.2,0.3
94.5,36.8,,37.0,37.3,37.0,0.3
95.0,35.8,,36.9,37.4,36.7,0.8
95.5,35.6,,36.8,37.7,36.7,1.0
96.0,35.1,,36.8,36.3,36.1,0.9
96.5,35.0,,36.3,35.7,35.6,0.6
97.0,34.2,,36.7,35.7,35.5,1.3
97.5,34.1,,36.4,34.9,35.1,1.2
98.0,33.7,,36.5,34.7,35.0,1.4
98.5,33.3,,36.3,34.7,34.8,1.5
99.0,33.0,,36.0,34.7,34.6,1.5
99.5,32.7,,36.1,34.5,34.4,1.7
100.0,31.8,,35.6,33.6,33.7,1.9
100.5,31.8,,35.9,34.4,34.0,2.0
101.0,31.7,,34.7,35.0,33.8,1.8
101.5,31.5,,35.2,33.9,33.5,1.9
102.0,31.6,,35.4,33.9,33.6,1.9
102.5,30.9,,35.0,34.1,33.3,2.2
103.0,30.0,,35.6,33.9,33.1,2.9
103.5,30.2,,34.9,33.8,32.9,2.5
104.0,29.9,,35.6,33.6,33.0,2.9
104.5,29.3,,35.6,33.2,32.7,3.2
105.0,29.3,,35.6,33.1,32.7,3.2
105.5,29.2,,35.5,32.8,32.5,3.2
106.0,29.0,,35.7,32.6,32.4,3.3
106.5,28.5,,35.5,32.6,32.2,3.5
107.0,28.3,,35.0,32.1,31.8,3.4
107.5,27.9,,34.9,32.4,31.7,3.6
108.0,27.8,,35.0,31.9,31.6,3.6
108.5,27.3,,35.4,31.9,31.5,4.1
109.0,27.5,,35.2,31.9,31.5,3.9
109.5,27.4,,34.8,31.5,31.2,3.7
110.0,27.0,,35.4,31.5,31.3,4.2
110.5,27.2,,35.2,30.9,31.1,4.0
111.0,26.6,,35.0,30.9,30.8,4.2
111.5,26.8,,35.2,30.5,30.8,4.2
112.0,26.5,,35.2,30.0,30.6,4.4
112.5,26.5,,35.2,30.0,30.6,4.4
113.0,26.6,,35.4,29.9,30.6,4.5
113.5,26.7,,35.1,30.3,30.7,4.2
114.0,26.5,,35.3,30.2,30.7,4.4
114.5,26.5,,36.0,29.9,30.8,4.8
115.0,26.9,,35.2,30.1,30.7,4.2
115.5,27.0,,35.5,29.8,30.8,4.3
116.0,26.5,,34.8,29.7,30.3,4.2
116.5,26.4,,34.9,29.5,30.3,4.3
117.0,25.9,,34.6,29.2,29.9,4.4
117.5,25.8,,34.4,29.1,29.8,4.4
118.0,25.5,,34.9,28.8,29.7,4.8
118.5,25.1,,34.7,28.9,29.6,4.8
119.0,25.2,,34.5,28.8,29.5,4.7
119.5,24.8,,33.9,28.5,29.1,4.6
120.0,25.0,,34.3,28.5,29.3,4.7
120.5,25.2,,34.3,28.1,29.2,4.7
121.0,25.0,,34.2,28.8,29.3,4.6
121.5,24.8,,34.4,28.7,29.3,4.8
122.0,25.0,,33.9,28.6,29.2,4.5
122.5,25.1,,34.2,28.5,29.3,4.6
123.0,25.2,,34.0,28.0,29.1,4.5
123.5,25.2,,34.3,28.3,29.2,4.6
124.0,24.9,,34.2,28.3,29.1,4.7
124.5,24.6,,33.9,28.6,29.1,4.7
125.0,24.8,,34.2,28.2,29.1,4.7
125.5,24.5,,34.6,28.2,29.1,5.1
126.0,24.9,,34.4,28.0,29.1,4.8
126.5,24.7,,33.6,27.9,28.8,4.5
127.0,24.9,,34.4,28.1,29.1,4.8
127.5,25.0,,34.1,28.4,29.2,4.6
128.0,24.8,,33.9,28.5,29.1,4.6
128.5,24.9,,34.8,28.3,29.3,5.0
129.0,25.2,,34.4,28.2,29.3,4.7
129.5,24.7,,34.2,28.2,29.0,4.8
130.0,25.3,,34.5,28.4,29.4,4.7
130.5,24.9,,34.5,28.7,29.4,4.8
131.0,24.8,,35.0,28.5,29.5,5.2
131.5,24.9,,34.3,29.0,29.4,4.7
132.0,25.3,,34.5,29.1,29.6,4.6
132.5,25.2,,34.2,29.0,29.5,4.5
133.0,24.9,,34.4,29.0,29.4,4.8
133.5,24.9,,34.6,29.7,29.7,4.8
134.0,24.8,,34.4,29.3,29.5,4.8