Folder: fsri_materials_database/01_Data/Wood_Stud/Cone (part 2)

File: Wood_Stud_HRRPUA_75.csv
Time after Ignition,Wood_Stud_R1,Wood_Stud_R2,Wood_Stud_R3,Mean,Std. Dev.
0.0,56.0,45.3,25.2,42.2,15.6
6.5,334.6,299.7,226.3,286.8,55.3
13.0,346.8,306.0,298.9,317.2,25.8
19.5,302.0,256.4,270.4,276.3,23.4
26.0,258.1,232.1,227.2,239.1,16.6
32.5,242.2,227.5,198.7,222.8,22.1
39.0,232.4,220.5,184.4,212.5,25.0
45.5,210.6,209.6,175.7,198.6,19.9
52.0,191.2,198.8,166.1,185.4,17.1
58.5,180.5,183.5,160.2,174.7,12.7
65.0,175.5,173.3,153.4,167.4,12.2
71.5,176.2,165.2,147.4,162.9,14.5
78.0,165.0,157.3,139.0,153.7,13.4
84.5,164.0,153.3,139.4,152.2,12.3
91.0,156.4,149.7,134.2,146.8,11.4
97.5,155.7,148.8,133.7,146.1,11.3
104.0,149.5,144.8,130.2,141.5,10.1
110.5,149.6,144.7,128.2,140.8,11.2
117.0,154.6,141.4,125.8,140.6,14.4
123.5,147.6,139.1,121.2,136.0,13.5
130.0,147.9,137.8,118.5,134.7,14.9
136.5,146.0,135.2,116.0,132.4,15.2
143.0,146.8,131.9,114.8,131.2,16.0
149.5,143.6,130.1,111.6,128.4,16.0
156.0,141.3,127.6,109.4,126.1,16.0
162.5,138.2,128.7,108.2,125.1,15.3
169.0,139.4,127.9,106.4,124.6,16.7
175.5,132.7,128.8,105.8,122.4,14.5
182.0,129.4,125.7,106.1,120.4,12.5
188.5,127.5,126.9,106.1,120.2,12.2
195.0,124.3,124.9,103.3,117.5,12.3
201.5,122.0,124.5,104.1,116.9,11.1
208.0,122.1,123.7,102.6,116.1,11.8
214.5,120.5,121.9,101.7,114.7,11.3
221.0,120.1,120.4,100.3,113.6,11.5
227.5,120.4,116.7,103.2,113.4,9.1
234.0,117.9,115.9,100.5,111.4,9.6
240.5,117.9,113.1,101.5,110.9,8.4
247.0,116.8,116.5,101.9,111.7,8.5
253.5,115.5,112.0,102.2,109.9,6.9
260.0,112.4,116.6,105.2,111.4,5.7
266.5,111.1,116.5,102.9,110.1,6.9
273.0,108.8,120.8,101.3,110.3,9.8
279.5,110.8,119.2,101.5,110.5,8.9
286.0,108.4,117.9,100.0,108.7,9.0
292.5,107.5,117.8,100.7,108.7,8.6
299.0,108.7,115.9,100.7,108.5,7.6
305.5,111.4,115.0,100.9,109.1,7.4
312.0,109.2,116.2,97.5,107.6,9.4
318.5,106.5,114.3,99.7,106.9,7.3
325.0,108.2,114.3,98.7,107.0,7.8
331.5,105.9,114.1,97.8,106.0,8.1
338.0,107.8,113.3,96.9,106.0,8.4
344.5,105.6,113.0,97.5,105.4,7.8
351.0,105.7,115.1,95.2,105.3,9.9
357.5,102.1,113.3,94.2,103.2,9.6
364.0,101.0,111.9,96.6,103.2,7.9
370.5,98.2,113.4,94.9,102.2,9.9
377.0,97.7,111.1,96.1,101.7,8.2
383.5,96.7,109.0,93.3,99.7,8.3
390.0,96.1,107.8,93.7,99.2,7.5
396.5,97.9,106.8,93.4,99.4,6.8
403.0,97.5,105.1,95.3,99.3,5.1
409.5,99.0,106.2,94.0,99.7,6.2
416.0,100.5,106.6,92.8,99.9,6.9
422.5,99.9,106.4,92.6,99.6,6.9
429.0,100.5,107.8,94.0,100.8,6.9
435.5,100.6,108.9,93.1,100.9,7.9
442.0,102.3,107.9,91.6,100.6,8.3
448.5,103.4,106.6,90.6,100.2,8.5
455.0,102.3,105.5,92.2,100.0,6.9
461.5,100.0,109.2,89.7,99.6,9.8
468.0,98.1,106.7,90.3,98.4,8.2
474.5,98.2,107.7,89.0,98.3,9.4
481.0,95.8,104.2,88.6,96.2,7.8
487.5,95.1,104.7,89.0,96.3,7.9
494.0,94.2,104.3,88.6,95.7,8.0
500.5,93.4,101.8,88.3,94.5,6.8
507.0,92.0,100.3,88.5,93.6,6.1
513.5,92.4,100.4,88.9,93.9,5.9
520.0,94.4,101.1,88.0,94.5,6.6
526.5,94.5,101.8,89.0,95.1,6.4
533.0,95.0,99.8,88.3,94.4,5.8
539.5,94.6,97.7,87.5,93.3,5.2
546.0,95.1,99.6,86.5,93.7,6.7
552.5,97.0,98.1,83.5,92.9,8.1
559.0,98.2,99.2,85.4,94.2,7.7
565.5,98.8,101.4,84.4,94.9,9.2
572.0,98.7,101.6,84.1,94.8,9.4
578.5,100.1,101.5,83.4,95.0,10.1
585.0,99.1,101.5,82.7,94.4,10.3
591.5,98.8,98.7,84.9,94.1,8.0
598.0,97.8,98.7,83.9,93.5,8.3
604.5,97.9,98.0,84.8,93.6,7.6
611.0,96.9,96.8,82.3,92.0,8.4
617.5,95.5,97.6,80.5,91.2,9.3
624.0,93.5,96.5,82.2,90.8,7.5
630.5,93.7,95.5,79.9,89.7,8.5
637.0,93.7,96.6,80.4,90.2,8.7
643.5,95.2,95.7,80.4,90.4,8.7
650.0,94.5,95.4,81.2,90.4,7.9
656.5,94.7,94.2,80.5,89.8,8.0
663.0,93.0,94.8,79.8,89.2,8.2
669.5,95.6,94.7,81.5,90.6,7.9
676.0,95.3,92.6,79.8,89.3,8.3
682.5,93.2,93.5,79.9,88.9,7.7
689.0,93.4,92.7,79.7,88.6,7.7
695.5,94.1,93.3,81.6,89.7,7.0
702.0,92.7,94.3,80.8,89.3,7.4
708.5,93.2,94.9,80.1,89.4,8.1
715.0,92.5,93.7,79.9,88.7,7.6
721.5,91.0,93.2,81.1,88.5,6.4
728.0,92.1,93.6,80.7,88.8,7.1
734.5,93.6,93.3,80.6,89.2,7.4
741.0,91.1,91.7,80.9,87.9,6.1
747.5,91.3,90.0,79.3,86.8,6.6
754.0,92.3,89.9,79.6,87.3,6.7
760.5,90.4,89.1,80.8,86.8,5.2
767.0,89.4,90.4,81.1,86.9,5.1
773.5,89.9,89.1,80.8,86.6,5.0
780.0,88.3,89.2,79.9,85.8,5.1
786.5,88.3,89.2,79.9,85.8,5.1
793.0,88.9,88.3,79.9,85.7,5.0
799.5,88.2,87.7,79.7,85.2,4.7
806.0,89.8,86.8,81.2,85.9,4.4
812.5,89.5,88.5,80.1,86.0,5.2
819.0,89.6,84.9,80.0,84.8,4.8
825.5,88.2,86.9,78.8,84.6,5.1
832.0,87.2,84.5,78.5,83.4,4.4
838.5,89.0,86.0,78.0,84.3,5.6
845.0,87.2,86.3,77.4,83.7,5.4
851.5,88.3,86.6,78.5,84.5,5.2
858.0,86.7,85.1,79.5,83.8,3.8
864.5,88.5,83.4,80.6,84.2,4.0
871.0,87.8,86.3,81.2,85.1,3.5
877.5,88.6,85.1,81.6,85.1,3.5
884.0,90.3,86.0,81.8,86.0,4.2
890.5,88.2,87.3,82.6,86.1,3.0
897.0,88.4,85.4,82.6,85.5,2.9
903.5,86.6,85.1,79.7,83.8,3.6
910.0,88.5,86.2,79.8,84.8,4.5
916.5,89.0,87.2,79.8,85.3,4.9
923.0,86.0,86.2,80.5,84.2,3.3
929.5,87.7,87.2,79.3,84.7,4.7
936.0,86.0,88.1,79.0,84.4,4.8
942.5,85.5,86.0,79.7,83.7,3.5
949.0,84.6,88.5,79.4,84.2,4.6
955.5,85.2,87.4,80.7,84.4,3.5
962.0,83.6,87.2,81.0,83.9,3.1
968.5,83.5,87.7,80.3,83.8,3.7
975.0,83.2,88.2,80.4,83.9,3.9
981.5,83.7,89.7,81.7,85.0,4.2
988.0,85.4,87.9,79.9,84.4,4.1
994.5,85.9,88.9,82.3,85.7,3.3
1001.0,85.2,88.5,80.6,84.8,4.0
1007.5,84.0,88.0,77.9,83.3,5.1
1014.0,84.3,87.8,78.4,83.5,4.7
1020.5,85.0,89.1,78.2,84.1,5.5
1027.0,86.3,89.2,79.0,84.8,5.2
1033.5,88.3,87.7,79.1,85.1,5.2
1040.0,87.4,89.2,79.8,85.5,5.0
1046.5,87.3,89.4,79.9,85.5,5.0
1053.0,88.7,88.9,79.8,85.8,5.2
1059.5,90.2,93.3,77.9,87.1,8.1
1066.0,90.0,89.2,78.1,85.8,6.7
1072.5,88.3,92.3,78.5,86.4,7.1
1079.0,90.6,91.1,76.8,86.2,8.1
1085.5,89.7,90.5,77.3,85.8,7.4
1092.0,89.4,92.3,75.6,85.8,8.9
1098.5,91.1,91.0,76.5,86.2,8.4
1105.0,92.3,89.2,75.6,85.7,8.9
1111.5,92.1,89.8,77.0,86.3,8.2
1118.0,93.8,90.8,74.1,86.2,10.6
1124.5,93.1,91.8,75.6,86.8,9.8
1131.0,92.1,91.7,75.1,86.3,9.7
1137.5,92.7,92.3,76.1,87.0,9.5
1144.0,92.4,92.4,74.9,86.6,10.1
1150.5,90.5,93.5,75.1,86.4,9.8
1157.0,90.7,92.9,75.3,86.3,9.6
1163.5,91.1,95.3,74.7,87.1,10.9
1170.0,92.7,96.6,75.2,88.2,11.4
1176.5,91.5,96.4,72.4,86.8,12.7
1183.0,92.6,96.5,74.0,87.7,12.0
1189.5,93.9,97.4,75.0,88.8,12.0
1196.0,93.1,96.2,76.6,88.7,10.6
1202.5,94.7,98.9,77.8,90.5,11.2
1209.0,94.0,96.1,76.5,88.9,10.8
1215.5,93.5,99.1,77.4,90.0,11.3
1222.0,94.8,98.4,76.1,89.8,12.0
1228.5,96.3,99.7,75.7,90.6,13.0
1235.0,97.1,101.1,75.1,91.1,14.0
1241.5,102.0,101.4,77.4,93.6,14.0
1248.0,100.7,100.2,78.6,93.2,12.7
1254.5,99.1,101.7,80.0,93.6,11.8
1261.0,101.9,101.4,79.7,94.4,12.7
1267.5,101.2,100.4,79.1,93.6,12.5
1274.0,102.7,101.6,78.6,94.3,13.6
1280.5,104.0,99.5,78.1,93.9,13.8
1287.0,104.1,101.4,79.1,94.9,13.7
1293.5,106.0,102.9,79.7,96.2,14.4
1300.0,107.9,103.8,79.2,97.0,15.5
1306.5,109.2,103.0,79.4,97.2,15.7
1313.0,106.9,103.6,79.1,96.5,15.2
1319.5,107.4,104.2,78.4,96.7,15.9
1326.0,107.1,107.4,78.7,97.7,16.4
1332.5,107.0,109.0,79.8,98.6,16.3
1339.0,106.7,106.6,80.9,98.0,14.9
1345.5,108.4,107.6,79.2,98.4,16.6
1352.0,108.4,108.0,78.7,98.4,17.0
1358.5,110.7,107.5,80.8,99.7,16.4
1365.0,111.3,110.6,82.2,101.3,16.6
1371.5,110.6,109.0,80.8,100.1,16.7
1378.0,111.7,110.1,81.6,101.1,16.9
1384.5,112.7,111.3,80.2,101.4,18.4
1391.0,114.6,111.1,81.6,102.5,18.1
1397.5,116.5,113.5,82.9,104.3,18.6
1404.0,116.7,114.0,82.5,104.4,19.0
1410.5,118.8,116.1,82.5,105.8,20.2
1417.0,121.0,116.0,84.4,107.1,19.9
1423.5,123.4,116.3,85.5,108.4,20.1
1430.0,126.2,116.7,84.0,109.0,22.1
1436.5,127.4,118.3,84.3,110.0,22.7
1443.0,129.0,116.3,83.5,109.6,23.5
1449.5,130.0,120.2,82.8,111.0,24.9
1456.0,132.7,120.0,84.8,112.5,24.8
1462.5,133.1,125.5,85.5,114.7,25.6
1469.0,135.3,123.7,85.2,114.7,26.2
1475.5,136.7,125.4,83.0,115.1,28.3
1482.0,136.9,127.1,83.1,115.7,28.6
1488.5,142.5,130.3,82.2,118.3,31.9
1495.0,143.6,129.2,83.1,118.6,31.6
1501.5,141.8,130.9,84.5,119.1,30.4
1508.0,147.0,131.6,83.0,120.6,33.4
1514.5,151.6,132.7,86.4,123.5,33.5
1521.0,151.2,135.2,85.8,124.1,34.1
1527.5,155.4,131.7,85.7,124.3,35.5
1534.0,154.3,133.6,87.0,125.0,34.4
1540.5,156.0,137.4,85.1,126.1,36.7
1547.0,157.8,138.7,86.3,127.6,37.0
1553.5,159.8,137.7,87.0,128.2,37.4
1560.0,161.3,138.3,87.3,129.0,37.9
1566.5,155.9,139.1,88.2,127.7,35.2
1573.0,156.6,142.2,90.2,129.7,35.0
1579.5,162.4,143.9,88.6,131.6,38.4
1586.0,157.7,145.1,90.2,131.0,35.9
1592.5,155.5,147.7,90.1,131.1,35.7
1599.0,150.1,149.3,90.3,129.9,34.3
1605.5,145.3,152.1,92.3,129.9,32.8
1612.0,140.0,156.6,90.7,129.1,34.3
1618.5,133.3,160.0,91.9,128.4,34.3
1625.0,126.6,157.6,91.2,125.1,33.2
1631.5,123.2,161.2,93.3,125.9,34.0
1638.0,120.9,159.6,93.7,124.7,33.1
1644.5,115.7,160.0,92.8,122.8,34.1
1651.0,108.3,153.7,94.3,118.8,31.1
1657.5,104.4,156.3,94.2,118.3,33.3
1664.0,100.1,151.6,94.6,115.4,31.4
1670.5,93.2,149.1,95.0,112.4,31.8
1677.0,90.8,147.2,96.2,111.4,31.1
1683.5,88.0,144.2,96.5,109.5,30.3
1690.0,88.0,140.5,99.0,109.2,27.7
1696.5,86.2,143.2,99.0,109.5,29.9
1703.0,83.9,139.2,98.1,107.1,28.7
1709.5,82.3,137.0,101.1,106.8,27.8
1716.0,79.9,136.3,98.9,105.1,28.7
1722.5,78.2,130.5,100.6,103.1,26.3
1729.0,74.7,130.6,102.9,102.7,28.0
1735.5,72.2,127.1,102.7,100.7,27.5
1742.0,69.9,120.9,103.7,98.2,25.9
1748.5,69.7,115.9,103.3,96.3,23.9
1755.0,67.9,114.2,105.5,95.8,24.6
1761.5,67.9,108.6,108.0,94.8,23.3
1768.0,67.2,101.8,105.6,91.5,21.1
1774.5,67.3,97.8,110.8,91.9,22.3
1781.0,66.8,95.4,109.9,90.7,21.9
1787.5,65.7,92.0,109.9,89.2,22.2
1794.0,63.5,89.7,111.0,88.1,23.8
1800.5,62.1,88.5,111.0,87.2,24.4
1807.0,63.0,86.5,111.3,86.9,24.1
1813.5,62.7,83.9,112.4,86.3,24.9
1820.0,61.9,82.7,114.2,86.3,26.3
1826.5,60.3,82.4,116.3,86.3,28.2
1833.0,60.7,80.6,115.8,85.7,27.9
1839.5,59.2,78.0,116.6,84.6,29.3
1846.0,59.8,78.1,116.9,85.0,29.2
1852.5,59.7,77.1,117.4,84.7,29.6
1859.0,59.6,78.1,118.7,85.4,30.2
1865.5,60.0,75.6,120.7,85.4,31.6
1872.0,59.5,74.2,120.1,84.6,31.7
1878.5,58.4,72.9,122.6,84.6,33.7
1885.0,57.7,71.9,122.5,84.0,34.0
1891.5,58.2,70.8,121.9,83.6,33.7
1898.0,57.7,69.9,124.0,83.9,35.3
1904.5,56.7,70.0,124.7,83.8,36.0
1909.75,57.8,72.0,126.8,85.6,36.4