Folder: fsri_materials_database/01_Data/Wood_Stud/Cone

Note: README.md
# Materials and Products Database
### Repository of materials and products properties and fire test data to improve fire modeling and fire investigation.

This project was supported in part by Award No. 2019-DU-BX-0018, awarded by the National Institute of Justice, Office of Justice Programs, U.S. Department of Justice. The opinions, findings, and conclusions or recommendations expressed in this publication / program / exhibition are those of the author(s) and do not necessarily reflect those of the Department of Justice.

***
***

__Cite this database:__ "McKinnon, M., Weinschenk, C., Dow, N., DiDomizio, M., and Madrzykowski, D. Materials and Products Database (Version 1.0.0), Fire Safety Research Institute, UL Research Institutes. Columbia, MD 21045, 2023."

__Cite the Technical Reference Guide:__ "McKinnon, M., Weinschenk, C., and Madrzykowski, D. Materials and Products Database - Technical Reference Guide, Fire Safety Research Institute, UL Research Institutes. Columbia, MD 21045, 2023."

__Cite the User Guide:__ "McKinnon, M., and Weinschenk, C. Materials and Products Database - User Guide, Fire Safety Research Institute, UL Research Institutes. Columbia, MD 21045, 2023."

***
***

## Database Structure

## 01_Data/
Raw data generated from each apparatus are included here in plain-text format. The data is organized first by material, next by the short name of test apparatus used, and where applicable additional filtering by test settings.

### Test Apparatus and Data File Structure
- __Cone Calorimeter__ (Cone)
    + Data file structure includes the material, the short name for the apparatus, heat flux setting and scan/scalar, date of test, and replicate number. Scan is for the raw output data and scalar is for the initial conditions and high-level test parameters. 
        * Example: __MDF_Cone_HF25scalar_210323_R1__ stands for the first replicate of scalar data generated from a medium density fiber board test in cone calorimeter exposed to 25 kW/m<sup>2</sup> on March 23, 2021.
    + A _Cone_Notes.csv_ is generated for each material from the __plot_Cone_data.py__ script. For materials whose experiments deviated from typical behavior relevant pictures are included in the respective material directory.
- __Fourier Transform Infrared Spectrometer__ (FTIR)
    + The FTIR directory contains subdirectories for the Attenuated Total Reflectance method (ATR) and the Integrating Sphere (IS)
    + Data file structure for the ATR experiment files includes the material, the abbreviated name for the apparatus, date of test, and replicate number. 
        * Example: __MDF_ATR_210323_R5__ stands for the fifth replicate of data collected with the ATR accessory conducted on June 8, 2021.
    + Data file structure for the IS experiment files includes the material, the abbreviated name for the apparatus, the measurand, whether the test is a sample measurement or standard reference, date of test, and replicate number.
        * Example: __OSB_IS_REFLECT_MEAS_2

File: Wood_Stud_HRRPUA_25.csv
Time after Ignition,Wood_Stud_R1,Wood_Stud_R2,Wood_Stud_R3,Mean,Std. Dev.
0.0,12.7,37.1,283.6,111.1,149.8
6.5,241.9,282.2,217.5,247.2,32.7
13.0,259.0,264.6,167.3,230.3,54.6
19.5,206.2,211.1,139.5,185.6,40.0
26.0,168.6,180.8,126.7,158.7,28.4
32.5,143.8,161.7,116.1,140.5,23.0
39.0,133.6,149.9,104.7,129.4,22.9
45.5,118.2,139.4,97.2,118.3,21.1
52.0,110.9,127.7,93.0,110.5,17.4
58.5,107.4,116.7,90.7,104.9,13.2
65.0,100.3,112.2,89.3,100.6,11.4
71.5,96.0,109.1,87.4,97.5,10.9
78.0,92.5,105.9,89.1,95.8,8.9
84.5,85.8,103.1,87.2,92.0,9.6
91.0,83.7,102.3,88.4,91.5,9.7
97.5,81.5,99.0,86.5,89.0,9.0
104.0,78.6,96.7,82.4,85.9,9.5
110.5,77.7,96.5,81.0,85.1,10.0
117.0,74.4,98.1,78.9,83.8,12.6
123.5,73.2,94.5,77.8,81.9,11.2
130.0,70.2,93.8,78.0,80.7,12.0
136.5,70.1,92.9,76.6,79.9,11.8
143.0,67.3,92.2,77.7,79.1,12.5
149.5,65.5,90.3,77.9,77.9,12.4
156.0,65.1,89.4,75.0,76.5,12.2
162.5,63.5,89.8,75.6,76.3,13.1
169.0,62.2,89.0,75.5,75.6,13.4
175.5,61.6,89.4,76.7,75.9,13.9
182.0,60.7,88.9,77.8,75.8,14.2
188.5,61.8,90.8,77.7,76.8,14.5
195.0,59.1,90.0,76.9,75.4,15.5
201.5,57.6,87.4,77.0,74.0,15.1
208.0,57.7,89.3,76.9,74.6,15.9
214.5,57.5,85.1,75.1,72.5,14.0
221.0,58.6,84.8,73.2,72.2,13.2
227.5,57.2,86.5,72.1,72.0,14.7
234.0,55.6,86.4,70.9,70.9,15.4
240.5,54.2,85.9,70.7,70.3,15.8
247.0,54.0,88.3,70.2,70.8,17.2
253.5,54.7,87.5,70.9,71.1,16.4
260.0,53.2,85.2,71.3,69.9,16.0
266.5,54.5,86.0,70.2,70.2,15.7
273.0,55.3,86.5,70.7,70.8,15.6
279.5,55.2,87.4,69.4,70.7,16.1
286.0,55.1,83.7,68.4,69.1,14.3
292.5,54.3,82.2,68.0,68.2,14.0
299.0,54.8,83.9,69.3,69.3,14.5
305.5,53.9,83.5,68.8,68.7,14.8
312.0,54.6,83.3,70.0,69.3,14.3
318.5,56.2,82.7,69.7,69.5,13.3
325.0,56.5,79.1,69.5,68.4,11.3
331.5,55.1,79.7,71.5,68.7,12.5
338.0,55.5,79.7,70.7,68.6,12.2
344.5,55.9,77.1,70.8,67.9,10.9
351.0,55.8,75.5,70.2,67.2,10.2
357.5,55.0,76.1,69.7,66.9,10.8
364.0,54.7,76.3,68.9,66.6,10.9
370.5,53.0,76.0,69.2,66.1,11.8
377.0,52.2,76.7,69.6,66.2,12.6
383.5,51.8,74.7,68.1,64.9,11.8
390.0,52.1,75.5,67.4,65.0,11.8
396.5,54.9,75.8,66.1,65.6,10.5
403.0,56.1,74.1,65.7,65.3,9.0
409.5,54.7,73.4,66.3,64.8,9.4
416.0,53.6,72.5,65.4,63.8,9.6
422.5,52.9,75.4,63.8,64.0,11.3
429.0,54.7,73.7,65.0,64.5,9.5
435.5,57.7,75.2,62.9,65.3,9.0
442.0,54.6,74.3,64.1,64.3,9.8
448.5,53.5,75.7,64.6,64.6,11.1
455.0,52.4,78.2,66.1,65.6,12.9
461.5,52.1,77.8,66.0,65.3,12.9
468.0,49.2,76.4,64.5,63.4,13.7
474.5,49.2,75.1,66.0,63.5,13.1
481.0,49.5,74.3,65.6,63.1,12.6
487.5,50.3,72.1,66.5,63.0,11.3
494.0,51.1,72.1,67.8,63.7,11.1
500.5,53.4,73.4,66.6,64.5,10.1
507.0,53.5,71.2,65.7,63.5,9.1
513.5,51.9,74.3,66.5,64.2,11.4
520.0,53.7,78.0,68.8,66.9,12.3
526.5,55.1,78.3,67.8,67.1,11.6
533.0,52.6,77.7,68.4,66.2,12.7
539.5,51.7,78.2,67.6,65.8,13.3
546.0,54.5,79.6,68.0,67.3,12.6
552.5,52.5,81.0,65.4,66.3,14.3
559.0,51.1,81.4,66.0,66.2,15.1
565.5,49.1,81.2,65.9,65.4,16.1
572.0,47.8,83.0,67.0,65.9,17.6
578.5,44.9,81.2,66.2,64.1,18.3
585.0,43.7,81.2,65.7,63.5,18.9
591.5,43.0,82.7,65.7,63.8,19.9
598.0,46.1,83.0,65.4,64.8,18.5
604.5,45.0,83.8,63.3,64.0,19.4
611.0,46.7,83.2,63.3,64.4,18.3
617.5,46.6,81.3,63.9,63.9,17.3
624.0,46.3,80.3,63.3,63.3,17.0
630.5,47.4,79.5,61.0,62.6,16.1
637.0,47.7,79.9,57.9,61.8,16.4
643.5,49.0,82.9,58.2,63.4,17.6
650.0,47.1,78.9,58.0,61.3,16.2
656.5,46.3,78.3,59.5,61.4,16.1
663.0,46.3,78.1,57.3,60.5,16.2
669.5,47.5,80.0,58.2,61.9,16.5
676.0,48.4,79.3,56.9,61.5,15.9
682.5,48.4,78.1,57.3,61.3,15.2
689.0,48.9,78.6,56.8,61.4,15.4
695.5,48.0,78.2,57.3,61.2,15.5
702.0,50.0,77.0,60.0,62.3,13.7
708.5,48.2,78.3,59.2,61.9,15.2
715.0,48.4,75.2,59.3,61.0,13.5
721.5,48.6,75.3,58.2,60.7,13.5
728.0,47.6,76.8,59.6,61.4,14.7
734.5,48.1,77.3,58.3,61.3,14.8
741.0,46.2,77.4,58.2,60.6,15.7
747.5,47.0,74.9,59.0,60.3,14.0
754.0,46.8,75.6,58.0,60.1,14.5
760.5,45.5,75.2,58.9,59.9,14.9
767.0,44.4,76.1,58.7,59.7,15.9
773.5,43.3,74.3,56.1,57.9,15.6
780.0,44.0,73.8,53.3,57.1,15.3
786.5,45.2,75.8,53.9,58.3,15.7
793.0,45.3,78.2,52.9,58.8,17.2
799.5,45.5,80.5,53.3,59.7,18.4
806.0,46.4,80.1,52.3,59.6,18.0
812.5,46.5,79.6,51.7,59.3,17.8
819.0,47.2,79.8,52.4,59.8,17.5
825.5,46.6,77.3,51.8,58.6,16.4
832.0,43.4,74.9,51.3,56.5,16.4
838.5,42.9,73.6,51.1,55.9,15.9
845.0,46.0,76.4,52.5,58.3,16.0
851.5,47.8,78.2,51.6,59.2,16.6
858.0,47.4,78.2,49.5,58.4,17.2
864.5,45.7,77.1,48.8,57.2,17.3
871.0,43.6,76.5,51.1,57.1,17.3
877.5,43.9,74.0,50.5,56.1,15.8
884.0,42.8,75.3,52.5,56.9,16.7
890.5,42.1,76.5,51.0,56.5,17.9
897.0,40.4,77.4,51.3,56.4,19.0
903.5,40.3,75.7,50.8,55.6,18.2
910.0,42.4,75.4,51.6,56.5,17.1
916.5,42.6,77.7,51.4,57.3,18.3
923.0,40.9,77.1,51.0,56.3,18.6
929.5,40.1,75.8,51.3,55.7,18.3
936.0,41.2,75.8,51.3,56.1,17.8
942.5,42.1,77.9,50.0,56.7,18.8
949.0,42.2,77.4,51.4,57.0,18.3
955.5,41.0,75.2,50.6,55.6,17.6
962.0,39.9,74.8,50.1,54.9,18.0
968.5,39.7,73.1,49.4,54.1,17.2
975.0,40.8,71.4,50.3,54.2,15.7
981.5,40.6,71.0,48.7,53.5,15.8
988.0,40.8,72.8,49.6,54.4,16.5
994.5,41.5,71.2,49.8,54.2,15.3
1001.0,42.0,69.9,47.8,53.2,14.7
1007.5,41.9,68.4,46.7,52.4,14.1
1014.0,42.5,67.6,46.3,52.2,13.5
1020.5,40.6,64.6,46.8,50.7,12.5
1027.0,40.9,62.5,47.2,50.2,11.1
1033.5,41.5,61.4,45.9,49.6,10.4
1040.0,40.9,61.9,45.9,49.5,11.0
1046.5,42.5,62.1,44.5,49.7,10.8
1053.0,43.0,62.3,42.9,49.4,11.2
1059.5,42.3,62.0,44.0,49.4,10.9
1066.0,42.4,62.0,45.2,49.9,10.6
1072.5,42.6,61.6,44.7,49.6,10.4
1079.0,43.5,60.8,42.7,49.0,10.2
1085.5,44.7,59.6,43.9,49.4,8.8
1092.0,45.6,62.2,42.5,50.1,10.6
1098.5,45.6,61.8,42.2,49.8,10.5
1105.0,45.2,61.0,41.5,49.2,10.3
1111.5,46.7,61.3,42.3,50.1,10.0
1118.0,46.2,61.0,41.6,49.6,10.1
1124.5,46.0,58.6,41.3,48.7,8.9
1131.0,45.3,58.2,39.9,47.8,9.4
1137.5,44.9,59.3,41.8,48.7,9.3
1144.0,46.2,59.8,41.1,49.0,9.6
1150.5,47.1,59.5,40.5,49.0,9.6
1157.0,45.6,60.5,40.1,48.7,10.5
1163.5,45.7,59.0,39.6,48.1,9.9
1170.0,44.8,59.2,38.6,47.5,10.6
1176.5,45.8,60.8,39.2,48.6,11.1
1183.0,44.9,60.1,38.9,47.9,10.9
1189.5,45.0,58.7,39.7,47.8,9.8
1196.0,46.7,59.6,38.4,48.2,10.7
1202.5,47.0,59.3,39.7,48.7,9.9
1209.0,47.4,59.4,40.3,49.1,9.7
1215.5,48.2,56.3,43.1,49.2,6.7
1222.0,48.6,58.0,43.4,50.0,7.4
1228.5,49.1,58.9,43.0,50.3,8.0
1235.0,49.2,59.0,44.7,51.0,7.3
1241.5,47.5,57.5,44.9,50.0,6.7
1248.0,47.4,55.1,44.7,49.0,5.4
1254.5,49.2,55.5,42.7,49.1,6.4
1261.0,48.0,56.8,42.1,49.0,7.4
1267.5,46.8,57.5,40.3,48.2,8.7
1274.0,47.1,56.4,40.8,48.1,7.9
1280.5,48.1,56.5,42.7,49.1,7.0
1287.0,47.9,56.7,44.5,49.7,6.3
1293.5,48.3,55.5,46.3,50.1,4.8
1300.0,49.3,59.5,45.8,51.5,7.1
1306.5,47.4,58.4,45.6,50.5,6.9
1313.0,50.0,59.7,45.1,51.6,7.4
1319.5,50.3,60.2,45.2,51.9,7.6
1326.0,50.5,60.9,47.5,53.0,7.1
1332.5,48.8,63.0,50.1,54.0,7.8
1339.0,48.7,64.3,49.9,54.3,8.7
1345.5,48.7,63.6,48.0,53.5,8.8
1352.0,48.4,62.8,46.3,52.5,9.0
1358.5,47.1,61.9,45.2,51.4,9.1
1365.0,45.9,60.9,45.7,50.8,8.7
1371.5,47.4,62.0,47.2,52.2,8.5
1378.0,49.1,62.1,48.6,53.3,7.7
1384.5,48.9,62.3,48.6,53.3,7.8
1391.0,47.7,64.7,48.2,53.5,9.6
1397.5,46.6,64.0,46.7,52.5,10.0
1404.0,46.1,66.4,46.9,53.1,11.5
1410.5,47.5,65.6,45.4,52.8,11.1
1417.0,45.1,66.1,44.7,52.0,12.3
1423.5,45.6,65.9,45.7,52.4,11.7
1430.0,47.6,64.8,45.9,52.8,10.5
1436.5,47.3,62.7,45.9,52.0,9.3
1443.0,44.0,61.9,45.7,50.5,9.9
1449.5,42.9,62.3,44.9,50.1,10.7
1456.0,43.8,61.9,45.1,50.2,10.1
1462.5,45.9,61.0,44.9,50.6,9.0
1469.0,44.1,60.5,44.3,49.6,9.4
1475.5,45.0,59.2,43.4,49.2,8.7
1482.0,45.2,59.6,44.6,49.8,8.5
1488.5,44.8,60.9,44.9,50.2,9.2
1495.0,42.9,60.0,44.5,49.1,9.5
1501.5,42.3,61.1,45.0,49.5,10.2
1508.0,42.8,61.2,44.0,49.3,10.3
1514.5,41.8,61.5,45.5,49.6,10.5
1521.0,40.9,60.8,44.6,48.7,10.6
1527.5,39.9,60.6,44.3,48.3,10.9
1534.0,40.3,61.3,42.9,48.2,11.5
1540.5,37.8,59.9,42.4,46.7,11.7
1547.0,37.1,60.3,42.4,46.6,12.1
1553.5,37.6,60.3,42.6,46.9,11.9
1560.0,36.2,61.2,43.1,46.8,12.9
1566.5,38.0,61.6,42.4,47.3,12.6
1573.0,37.8,61.2,43.1,47.4,12.3
1579.5,38.4,62.3,42.6,47.8,12.8
1586.0,38.5,60.9,40.9,46.8,12.3
1592.5,38.3,61.0,39.3,46.2,12.8
1599.0,39.0,61.8,40.2,47.0,12.8
1605.5,38.1,62.5,40.0,46.9,13.5
1612.0,37.0,63.6,41.1,47.2,14.3
1618.5,36.3,62.2,40.2,46.3,14.0
1625.0,37.1,63.6,39.5,46.7,14.7
1631.5,37.4,62.8,39.5,46.5,14.1
1638.0,35.7,63.2,39.6,46.2,14.9
1644.5,35.4,63.2,39.2,45.9,15.1
1651.0,35.8,65.3,39.6,46.9,16.0
1657.5,36.9,65.3,39.4,47.2,15.7
1664.0,35.5,65.5,39.5,46.8,16.3
1670.5,35.0,66.1,38.8,46.6,16.9
1677.0,33.0,66.4,39.7,46.4,17.7
1683.5,33.2,65.4,40.3,46.3,16.9
1690.0,34.1,63.3,40.4,45.9,15.4
1696.5,36.4,63.3,39.9,46.5,14.6
1703.0,36.2,63.6,39.2,46.3,15.1
1709.5,35.7,63.1,40.5,46.4,14.6
1716.0,35.1,63.2,39.9,46.1,15.0
1722.5,33.9,63.5,41.8,46.4,15.3
1729.0,33.2,64.1,40.1,45.8,16.2
1735.5,32.4,68.1,41.3,47.2,18.6
1742.0,32.5,65.6,41.3,46.5,17.2
1748.5,32.7,63.6,40.5,45.6,16.1
1755.0,34.5,63.0,41.5,46.3,14.9
1761.5,33.8,63.0,40.0,45.6,15.4
1768.0,34.0,64.0,39.6,45.9,16.0
1774.5,34.2,63.6,40.5,46.1,15.5
1781.0,34.6,65.7,40.6,47.0,16.5
1787.5,34.0,63.7,41.0,46.2,15.5
1794.0,33.4,66.1,41.1,46.8,17.1
1800.5,33.9,66.4,41.8,47.4,16.9
1807.0,33.7,67.9,42.0,47.8,17.9
1813.5,34.3,67.7,42.6,48.2,17.4
1820.0,32.2,69.2,42.1,47.8,19.2
1826.5,33.5,67.5,41.9,47.6,17.7
1833.0,32.7,66.3,41.2,46.7,17.4
1839.5,32.5,67.6,41.2,47.1,18.3
1846.0,32.4,67.9,40.5,47.0,18.6
1852.5,31.9,69.8,40.1,47.3,20.0
1859.0,33.1,69.5,39.1,47.3,19.5
1865.5,34.0,69.1,39.3,47.5,19.0
1872.0,33.6,70.6,43.5,49.2,19.2
1878.5,32.2,71.4,46.4,50.0,19.8
1885.0,32.3,70.3,47.8,50.2,19.1
1891.5,31.9,70.4,44.7,49.0,19.6
1898.0,26.7,70.4,44.3,47.1,21.9
1904.5,25.6,70.7,42.6,46.3,22.8
1911.0,26.7,67.6,43.6,46.0,20.5
1917.5,26.8,68.5,45.2,46.8,20.9
1924.0,27.7,70.4,44.0,47.4,21.5
1928.5,27.4,71.3,44.5,47.7,22.1

File: Wood_Stud_HRRPUA_50.csv
Time after Ignition,Wood_Stud_R1,Wood_Stud_R2,Wood_Stud_R3,Mean,Std. Dev.
0.0,25.6,25.7,25.4,25.6,0.2
8.25,264.9,270.1,232.8,255.9,20.2
16.5,244.0,260.4,222.4,242.3,19.1
24.75,200.1,205.0,181.2,195.4,12.5
33.0,182.9,185.1,160.0,176.0,13.9
41.25,164.7,174.6,156.5,165.3,9.0
49.5,156.9,163.0,144.1,154.6,9.6
57.75,149.1,154.6,140.3,148.0,7.2
66.0,135.9,149.3,134.0,139.7,8.3
74.25,131.1,140.4,129.4,133.6,5.9
82.5,124.1,135.2,119.9,126.4,7.9
90.75,120.2,132.5,116.1,122.9,8.5
99.0,118.6,127.7,113.0,119.8,7.4
107.25,117.2,122.3,109.9,116.5,6.3
115.5,114.8,119.4,104.6,112.9,7.6
123.75,111.3,119.9,102.2,111.1,8.8
132.0,113.1,117.7,100.4,110.4,9.0
140.25,111.9,115.0,98.2,108.4,8.9
148.5,110.0,113.2,96.1,106.4,9.1
156.75,108.0,113.6,93.4,105.0,10.4
165.0,105.9,113.6,93.5,104.3,10.1
173.25,104.2,112.2,90.0,102.1,11.3
181.5,101.3,110.1,89.1,100.2,10.5
189.75,101.5,107.9,87.4,98.9,10.5
198.0,101.4,104.0,89.1,98.2,8.0
206.25,101.4,105.6,87.6,98.2,9.4
214.5,103.5,104.6,87.7,98.6,9.4
222.75,102.2,102.2,88.0,97.5,8.2
231.0,104.1,103.2,88.4,98.6,8.8
239.25,104.0,101.9,87.9,97.9,8.8
247.5,100.0,101.3,88.4,96.6,7.1
255.75,100.1,99.7,87.0,95.6,7.4
264.0,97.2,99.0,87.1,94.4,6.4
272.25,95.1,98.4,87.8,93.8,5.4
280.5,96.1,97.7,86.0,93.2,6.4
288.75,98.2,95.9,85.2,93.1,6.9
297.0,96.4,95.4,86.2,92.7,5.6
305.25,96.3,95.6,84.4,92.1,6.7
313.5,96.1,94.7,85.0,91.9,6.1
321.75,96.5,93.8,83.8,91.4,6.7
330.0,96.4,91.4,83.3,90.4,6.6
338.25,95.6,91.0,84.9,90.5,5.4
346.5,95.9,90.3,83.5,89.9,6.2
354.75,97.5,90.4,83.6,90.5,7.0
363.0,96.7,91.8,83.7,90.7,6.6
371.25,94.0,92.8,81.9,89.6,6.7
379.5,94.5,91.6,84.5,90.2,5.1
387.75,94.8,94.4,85.3,91.5,5.4
396.0,95.7,93.6,82.9,90.7,6.9
404.25,95.5,94.1,84.0,91.2,6.2
412.5,95.9,95.4,84.6,92.0,6.4
420.75,95.4,94.3,84.4,91.4,6.1
429.0,95.5,94.3,85.2,91.7,5.6
437.25,94.4,92.5,84.7,90.5,5.1
445.5,94.2,92.6,84.0,90.3,5.5
453.75,90.9,92.7,83.6,89.1,4.8
462.0,92.6,90.8,84.8,89.4,4.1
470.25,93.1,91.5,85.9,90.2,3.8
478.5,92.8,89.4,83.5,88.6,4.7
486.75,91.3,89.5,82.9,87.9,4.4
495.0,92.8,90.5,83.6,89.0,4.8
503.25,91.2,90.4,80.3,87.3,6.1
511.5,93.2,87.7,82.7,87.9,5.3
519.75,91.8,91.8,83.1,88.9,5.1
528.0,93.1,89.7,80.9,87.9,6.3
536.25,92.4,89.1,81.6,87.7,5.5
544.5,90.8,88.8,82.1,87.3,4.6
552.75,91.2,87.4,82.9,87.2,4.2
561.0,91.2,88.5,82.5,87.4,4.4
569.25,88.0,88.2,83.4,86.5,2.7
577.5,88.2,87.6,81.0,85.6,4.0
585.75,87.4,88.2,82.7,86.1,2.9
594.0,86.9,88.5,80.6,85.3,4.1
602.25,87.9,86.4,83.2,85.8,2.4
610.5,89.8,87.1,81.6,86.2,4.2
618.75,89.0,86.5,80.8,85.4,4.2
627.0,89.0,86.0,79.0,84.7,5.1
635.25,90.0,87.2,80.7,86.0,4.8
643.5,92.1,87.6,78.5,86.1,6.9
651.75,90.5,86.9,77.0,84.8,7.0
660.0,91.3,89.7,77.8,86.2,7.4
668.25,91.6,89.0,77.5,86.0,7.5
676.5,90.6,91.0,78.4,86.7,7.2
684.75,90.2,91.2,77.9,86.4,7.4
693.0,91.0,91.5,77.3,86.6,8.1
701.25,87.3,92.3,76.6,85.4,8.0
709.5,87.4,90.9,76.9,85.1,7.3
717.75,87.6,90.9,75.3,84.6,8.2
726.0,87.9,90.6,75.0,84.5,8.3
734.25,87.3,89.5,74.3,83.7,8.2
742.5,85.3,88.1,73.9,82.4,7.5
750.75,87.5,89.3,72.9,83.3,9.0
759.0,85.5,84.9,74.4,81.6,6.2
767.25,83.8,85.9,73.8,81.2,6.4
775.5,84.8,85.9,75.2,82.0,5.9
783.75,85.0,85.4,74.9,81.8,5.9
792.0,86.6,85.8,73.9,82.1,7.1
800.25,86.0,83.3,74.2,81.2,6.2
808.5,86.2,84.7,73.4,81.4,7.0
816.75,87.2,84.4,72.5,81.4,7.8
825.0,85.9,85.5,73.9,81.7,6.8
833.25,87.2,88.0,74.8,83.3,7.4
841.5,84.6,88.1,73.6,82.1,7.5
849.75,85.4,87.5,75.6,82.8,6.4
858.0,85.7,84.9,75.0,81.9,5.9
866.25,82.4,87.3,73.1,80.9,7.3
874.5,82.0,85.6,74.7,80.8,5.5
882.75,81.2,84.8,75.6,80.5,4.7
891.0,82.3,82.5,75.6,80.1,3.9
899.25,81.9,82.3,75.2,79.8,4.0
907.5,80.8,82.5,75.9,79.7,3.4
915.75,79.0,81.0,75.1,78.4,3.0
924.0,78.6,81.1,76.1,78.6,2.5
932.25,77.5,81.0,76.8,78.4,2.2
940.5,78.0,78.5,77.1,77.9,0.7
948.75,77.6,79.2,77.1,78.0,1.1
957.0,78.1,80.5,77.2,78.6,1.7
965.25,79.3,79.1,76.6,78.4,1.5
973.5,78.0,80.2,77.5,78.5,1.4
981.75,77.1,81.1,75.7,78.0,2.8
990.0,77.4,80.2,76.4,78.0,2.0
998.25,77.1,82.4,77.0,78.8,3.1
1006.5,75.8,80.2,76.0,77.3,2.5
1014.75,75.9,79.7,76.8,77.5,2.0
1023.0,75.7,81.9,76.4,78.0,3.4
1031.25,77.5,80.6,76.4,78.2,2.2
1039.5,77.2,81.3,75.6,78.0,3.0
1047.75,77.1,81.7,76.3,78.4,2.9
1056.0,78.3,83.2,76.2,79.2,3.6
1064.25,77.1,81.8,76.5,78.5,2.9
1072.5,75.1,82.9,76.9,78.3,4.1
1080.75,73.2,80.6,76.9,76.9,3.7
1089.0,75.7,80.1,74.6,76.8,2.9
1097.25,77.2,80.0,76.2,77.8,2.0
1105.5,77.1,80.0,77.5,78.2,1.6
1113.75,78.3,78.9,76.7,78.0,1.1
1122.0,77.5,78.9,76.6,77.6,1.1
1130.25,76.6,79.3,78.6,78.2,1.4
1138.5,75.1,77.4,77.9,76.8,1.5
1146.75,74.9,78.1,76.5,76.5,1.6
1155.0,73.8,78.4,76.0,76.1,2.3
1163.25,74.5,77.6,77.3,76.5,1.7
1171.5,74.3,77.7,75.5,75.8,1.8
1179.75,74.8,78.0,77.3,76.7,1.7
1188.0,73.3,78.2,77.7,76.4,2.7
1196.25,75.0,77.8,77.3,76.7,1.5
1204.5,73.9,78.8,78.2,77.0,2.6
1212.75,74.6,80.5,77.7,77.6,2.9
1221.0,73.8,80.0,78.6,77.5,3.3
1229.25,74.6,79.0,79.0,77.6,2.5
1237.5,73.9,78.5,77.4,76.6,2.4
1245.75,72.7,78.6,78.7,76.7,3.5
1254.0,74.5,79.8,79.9,78.1,3.1
1262.25,74.7,78.1,77.5,76.8,1.8
1270.5,74.0,78.3,76.7,76.4,2.2
1278.75,75.2,78.0,77.9,77.0,1.6
1287.0,76.0,77.6,77.6,77.1,0.9
1295.25,75.8,79.2,75.3,76.8,2.1
1303.5,75.7,79.5,76.5,77.3,2.0
1311.75,75.3,79.8,77.6,77.6,2.3
1320.0,75.0,81.1,78.4,78.1,3.1
1328.25,75.1,80.4,78.1,77.9,2.7
1336.5,74.1,79.4,77.2,76.9,2.7
1344.75,75.9,78.7,76.7,77.1,1.5
1353.0,76.6,79.1,76.3,77.3,1.5
1361.25,74.8,79.5,76.7,77.0,2.3
1369.5,75.4,80.9,78.5,78.3,2.8
1377.75,76.6,80.1,76.3,77.7,2.1
1386.0,75.8,80.5,74.9,77.1,3.0
1394.25,78.1,83.4,77.2,79.6,3.3
1402.5,77.1,83.7,76.4,79.1,4.1
1410.75,78.7,82.2,75.9,78.9,3.2
1419.0,79.6,83.9,74.8,79.4,4.6
1427.25,79.8,83.8,73.6,79.1,5.1
1435.5,78.6,81.8,74.3,78.3,3.8
1443.75,79.8,84.6,73.5,79.3,5.6
1452.0,80.0,85.6,75.1,80.2,5.3
1460.25,81.3,85.9,75.1,80.8,5.4
1468.5,81.1,84.5,73.9,79.8,5.4
1476.75,82.7,87.2,74.9,81.6,6.3
1485.0,82.0,87.0,74.6,81.2,6.2
1493.25,80.8,87.5,73.1,80.5,7.2
1501.5,81.8,87.5,74.4,81.2,6.6
1509.75,83.2,89.8,74.4,82.4,7.7
1518.0,85.2,89.0,74.2,82.8,7.7
1526.25,84.4,88.7,75.1,82.7,7.0
1534.5,83.9,90.4,74.0,82.8,8.3
1542.75,84.6,88.8,73.9,82.4,7.6
1551.0,84.8,91.1,73.9,83.3,8.7
1559.25,85.3,89.6,75.2,83.4,7.4
1567.5,86.4,92.0,73.7,84.0,9.4
1575.75,83.4,91.2,74.9,83.2,8.2
1584.0,85.4,92.1,74.6,84.0,8.8
1592.25,84.1,91.6,75.4,83.7,8.1
1600.5,84.5,92.6,75.9,84.3,8.3
1608.75,83.6,93.7,76.5,84.6,8.6
1617.0,84.5,92.5,75.8,84.2,8.4
1625.25,86.0,93.5,74.9,84.8,9.3
1633.5,87.4,94.5,75.0,85.6,9.9
1641.75,86.9,98.1,78.2,87.7,10.0
1650.0,86.2,99.6,79.7,88.5,10.1
1658.25,86.6,99.4,78.8,88.3,10.4
1666.5,87.4,101.7,81.0,90.0,10.6
1674.75,89.3,104.4,80.2,91.3,12.2
1683.0,89.9,102.9,79.9,90.9,11.5
1691.25,92.1,105.1,80.4,92.5,12.3
1699.5,93.6,108.8,80.9,94.5,14.0
1707.75,93.8,109.3,82.2,95.1,13.6
1716.0,95.2,112.8,81.7,96.5,15.6
1724.25,95.3,114.5,82.3,97.4,16.2
1732.5,94.2,118.4,84.0,98.8,17.7
1740.75,98.6,117.6,86.1,100.8,15.9
1749.0,98.6,120.9,86.0,101.8,17.7
1757.25,98.0,119.5,87.1,101.5,16.5
1765.5,99.7,121.7,90.3,103.9,16.1
1773.75,98.9,121.0,90.3,103.4,15.8
1782.0,99.2,119.7,90.2,103.0,15.1
1790.25,100.6,120.5,94.4,105.1,13.6
1798.5,101.3,118.4,94.9,104.9,12.1
1806.75,104.5,122.9,96.8,108.1,13.4
1815.0,104.2,118.5,95.9,106.2,11.4
1823.25,106.0,120.5,96.3,107.6,12.2
1831.5,105.9,120.4,99.7,108.7,10.6
1839.75,109.2,117.9,101.3,109.5,8.3
1848.0,111.5,120.9,104.2,112.2,8.3
1856.25,115.5,122.3,104.1,113.9,9.2
1864.5,115.7,125.0,105.5,115.4,9.8
1872.75,117.1,124.2,106.2,115.8,9.1
1881.0,117.9,125.4,109.6,117.6,7.9
1889.25,121.0,123.0,112.3,118.8,5.7
1897.5,121.7,125.4,109.5,118.9,8.3
1905.75,121.6,124.8,111.8,119.4,6.8
1914.0,125.0,125.7,113.1,121.3,7.1
1922.25,129.4,128.7,114.3,124.1,8.5
1930.5,136.1,128.0,118.9,127.7,8.6
1938.75,142.4,129.4,118.7,130.2,11.9
1947.0,143.5,126.8,124.2,131.5,10.4
1955.25,144.4,129.0,124.4,132.6,10.5
1963.5,146.8,131.8,126.4,135.0,10.6
1971.75,142.5,130.6,133.3,135.5,6.2
1980.0,138.1,124.6,130.6,131.1,6.8
1988.25,135.3,120.6,132.9,129.6,7.9
1996.5,127.8,113.1,135.5,125.5,11.4
2004.75,125.2,104.1,137.5,122.3,16.9
2013.0,123.3,99.3,141.6,121.4,21.2
2021.25,118.8,94.1,142.9,118.6,24.4
2029.5,118.1,89.6,144.1,117.3,27.3
2037.75,112.3,84.2,144.7,113.7,30.3
2046.0,111.4,80.0,146.2,112.6,33.1
2054.25,109.7,75.1,144.7,109.9,34.8
2062.5,112.7,72.7,148.6,111.3,38.0
2070.75,110.0,67.6,143.5,107.0,38.0
2079.0,107.6,66.6,140.1,104.8,36.8
2087.25,107.0,63.0,137.9,102.6,37.7
2095.5,107.1,62.5,132.9,100.9,35.6
2103.75,107.8,58.9,128.0,98.2,35.5
2112.0,108.1,58.1,121.3,95.8,33.3
2120.25,105.5,57.8,120.0,94.4,32.5
2128.5,106.6,57.9,115.6,93.3,31.0
2136.75,107.6,57.9,107.4,91.0,28.6
2145.0,105.1,56.8,105.1,89.0,27.9
2153.25,103.0,55.1,97.3,85.2,26.2
2161.5,99.1,54.0,90.5,81.2,23.9
2169.75,96.1,53.0,84.0,77.7,22.3
2178.0,93.0,52.9,79.1,75.0,20.4
2186.25,90.1,54.3,74.3,72.9,17.9
2194.5,86.0,52.5,71.4,70.0,16.8
2202.75,85.3,52.4,65.6,67.8,16.6
2211.0,83.3,49.9,63.1,65.4,16.9
2219.25,81.1,51.1,60.6,64.3,15.3
2227.5,78.1,49.2,56.3,61.2,15.0
2235.75,76.4,,54.9,65.6,15.2
2244.0,76.1,,54.4,65.2,15.4
2252.25,72.8,,53.6,63.2,13.6
2260.5,72.6,,50.9,61.8,15.3
2268.75,68.3,,49.6,59.0,13.3
2277.0,64.7,,52.8,58.8,8.4
2285.25,62.3,,56.0,59.1,4.5
2293.5,60.2,,53.0,56.6,5.1
2301.75,58.2,,50.0,54.1,5.8
2310.0,56.4,,49.0,52.7,5.3
2318.25,55.7,,50.4,53.0,3.8
2326.5,54.0,,50.4,52.2,2.5
2334.75,53.9,,50.8,52.4,2.2
2343.0,52.9,,51.0,51.9,1.4
2351.25,50.8,,49.5,50.2,0.9
2359.5,51.0,,51.2,51.1,0.1
2367.75,51.9,,49.3,50.6,1.9
2376.0,52.1,,49.4,50.8,1.9
2384.25,50.0,,49.5,49.8,0.4
2392.5,48.8,,49.0,48.9,0.1
2400.75,50.6,,48.7,49.6,1.4
2409.0,48.0,,47.9,47.9,0.1
2417.25,47.8,,47.0,47.4,0.6
2425.5,47.3,,46.4,46.9,0.6
2433.75,46.6,,,46.6,
2442.0,47.3,,,47.3,
2450.25,48.4,,,48.4,
2458.5,50.4,,,50.4,
2459.25,50.3,,,50.3,