Folder: fsri_materials_database/01_Data/Camelback_Sofa/Furniture_Calorimeter (part 2)

File: Camelback_Sofa_R3.csv
Time (s),Convective HRR,TCPlume1,TCPlume2,TCPlume3,DPPlume1,DPPlume2,DPPlume3,HF1,HF2,HF3,HF4,HF5,HF6,RAD2,RAD1,Load Cell,Heat Release Rate,Total Heat Released
-121,0.0,-2.15452,-1.25563,14.6341,-0.0568413,-0.112662,-0.0898806,0.127041,-0.77138,-0.386795,-0.2946,0.818646,-0.00117851,0.115037,2.88169,45.1343,0.0,0.0
-92,0.0,-2.6254,-2.07317,14.5897,0.0419031,0.046837,0.0620303,-0.675323,0.127315,-0.386795,-0.2946,0.0687413,-0.00117851,0.447131,1.92317,45.3211,0.0,0.0
-63,0.0,-2.32203,-1.96353,13.9351,-0.0340542,-0.0443053,0.0316481,0.929404,-0.77138,0.42751,-0.2946,0.443694,0.140243,0.281084,0.00613451,45.3211,0.0,0.0
-34,0.0,-3.34732,-2.67778,13.994,-0.0416499,-0.0443053,-0.0291163,-0.675323,0.127315,1.24181,0.567643,0.443694,-0.1426,0.613177,0.964651,45.3211,0.0,0.0
-5,0.0,-3.90868,-2.88918,14.053,0.00392446,0.0772178,-0.0898806,0.929404,0.127315,0.42751,-1.15684,0.0687413,-0.00117851,0.447131,0.964651,45.4665,0.0,0.0
24,0.0,-3.72078,-2.58555,13.8942,0.0267116,0.046837,0.0924125,0.127041,0.127315,0.42751,-0.2946,0.0687413,0.140243,0.447131,0.964651,45.508,0.0,0.0
53,0.0,-3.74409,-2.95756,13.299,-0.0264584,-0.120257,0.0772214,0.127041,0.127315,-1.2011,-1.15684,0.443694,-0.00117851,0.613177,0.00613451,45.3419,0.0,0.0
82,0.0,-3.60638,-3.47952,13.7777,0.0646902,0.0544322,0.016457,0.929404,0.127315,-0.386795,-1.15684,-0.306211,-0.00117851,0.447131,2.88169,45.4873,20.2248,0.223714
111,2.03866,-2.65999,-3.19232,13.7548,-0.0416499,-0.0367101,-0.0594984,0.929404,-0.77138,-0.386795,0.567643,0.0687413,0.140243,0.281084,1.92317,45.4873,40.4214,1.20559
140,17.0418,-0.487792,-2.83343,14.6036,1.19645,0.0392418,0.0392437,1.73177,1.92471,0.42751,0.567643,-0.306211,0.140243,0.613177,1.92317,45.4873,82.629,2.82476
169,59.9153,1.09912,-2.54669,16.4098,0.0267116,0.122789,0.0544347,1.73177,0.127315,1.24181,-0.2946,0.0687413,0.140243,0.447131,3.8402,45.155,134.325,6.18679
198,98.8249,8.23395,2.08204,18.5177,0.892624,0.0316466,0.0392437,4.13886,2.8234,2.05612,2.29213,0.818646,0.847352,0.613177,3.8402,44.9889,237.214,11.661
227,144.169,13.0685,3.36652,20.8932,0.452072,1.07219,0.396234,4.94122,2.8234,2.05612,3.15437,0.818646,1.1302,0.945271,5.75724,44.5113,406.947,20.2269
256,312.686,31.5922,18.6054,26.763,0.657157,0.927879,0.0696258,8.95304,4.62079,5.31334,4.01661,1.9435,1.55446,1.7755,6.71575,43.6599,650.36,36.7583
285,423.983,51.0066,35.2927,43.1821,2.8903,3.93557,0.312683,16.9767,9.11427,9.38486,6.60334,3.81827,2.68584,2.93783,12.4669,42.497,929.333,59.1814
314,558.288,101.707,88.4261,87.6136,5.13104,4.33052,0.54055,29.8145,13.6077,15.085,10.9146,6.81788,3.95863,3.93411,19.1765,41.0018,1062.05,88.6977
343,755.258,130.902,140.666,153.282,1.40913,2.84946,8.89565,47.4665,22.5947,22.4137,16.9503,13.942,9.47408,8.91552,43.1394,39.029,1789.49,130.313
372,883.483,143.768,166.028,212.404,3.09538,8.10533,1.4748,46.6641,21.696,19.9708,14.3635,13.1921,9.6155,8.74947,42.1809,36.724,1342.06,175.046
401,703.513,110.275,135.248,208.585,5.16902,5.29511,2.79643,40.2452,15.4051,15.8993,13.5013,9.8175,6.22138,5.76063,36.4298,35.0419,914.887,205.122
430,627.831,99.1672,120.77,193.927,3.38402,4.75585,1.12541,31.4192,10.013,11.8278,9.19007,6.44293,4.66574,4.5983,28.7616,33.5883,736.375,230.832
459,533.476,77.9579,96.2622,172.689,3.92332,7.27746,5.69033,23.3956,9.11427,10.1992,7.46559,5.31807,3.81721,3.60202,22.052,32.4046,627.087,251.114
488,449.659,62.2154,76.6079,147.467,6.84767,1.10257,2.99391,16.1743,7.31688,6.12764,6.60334,3.81827,2.68584,2.77179,15.3424,31.4286,494.812,268.225
517,382.53,55.7078,67.4088,129.113,2.16871,3.03175,1.99889,12.1625,5.51949,5.31334,3.15437,3.44331,2.12015,2.1076,10.5498,30.7433,351.722,281.182
546,286.282,46.421,56.1136,111.114,3.422,0.669643,-0.067094,9.7554,2.8234,4.49903,4.01661,2.69341,1.69588,1.27736,9.5913,30.0581,318.603,290.971
575,226.847,33.0047,42.2783,97.0636,1.76613,1.54309,3.75347,7.34831,4.62079,3.68473,3.15437,2.31846,1.27162,1.27736,6.71575,29.3728,290.023,298.989
604,220.367,31.3041,39.362,85.9802,1.26481,0.145574,0.229132,6.54595,2.8234,3.68473,2.29213,1.9435,0.988774,1.11132,6.71575,28.9159,228.974,306.109
633,223.931,30.3585,36.7427,79.6991,0.383711,1.06459,0.692461,5.74359,2.8234,2.87042,2.29213,1.9435,0.988774,1.11132,5.75724,28.2306,199.424,312.112
662,205.853,31.1364,36.6566,74.7371,1.90286,4.71028,0.912731,7.34831,3.7221,2.05612,1.42989,1.1936,0.988774,0.945271,6.71575,27.7115,217.01,318.366
691,237.383,35.6297,39.3761,73.0077,0.991369,4.80902,1.17858,8.15068,3.7221,2.05612,3.15437,2.31846,1.1302,1.11132,6.71575,27.2339,266.925,325.318
720,234.826,39.1778,44.4359,75.9409,2.23707,0.419001,0.715247,8.15068,2.8234,4.49903,3.15437,1.56855,1.1302,1.11132,5.75724,26.5901,254.925,333.257
749,228.438,36.8837,39.8808,72.5874,2.74598,5.25714,0.776012,8.15068,2.8234,5.31334,4.01661,1.9435,1.1302,1.27736,5.75724,25.7387,295.143,341.683
778,240.78,41.2045,44.0791,74.3052,1.18126,5.0065,0.312683,9.7554,5.51949,4.49903,3.15437,1.9435,1.1302,1.11132,6.71575,25.0742,287.568,350.011
807,244.406,43.7647,44.8159,74.7027,2.79155,4.39129,3.25975,9.7554,3.7221,4.49903,4.01661,1.9435,1.1302,1.60946,6.71575,24.2643,297.36,358.2
836,295.179,50.3494,56.8915,86.4317,2.31302,0.844332,1.04945,12.1625,4.62079,4.49903,4.87886,1.9435,1.41304,1.60946,9.5913,23.4337,395.889,368.734
865,319.576,52.6601,59.5617,93.1426,0.657157,4.93814,1.14819,13.7672,5.51949,5.31334,6.60334,3.06836,1.8373,2.1076,11.5083,22.6238,460.043,380.757
894,330.424,54.6096,63.5988,98.9954,3.68025,5.97108,4.78646,12.1625,2.8234,4.49903,4.87886,2.69341,1.69588,1.7755,9.5913,21.4194,383.285,392.574
923,267.994,46.1692,54.3889,93.4201,4.60693,2.93301,2.75085,9.7554,3.7221,4.49903,2.29213,2.31846,1.55446,1.60946,7.67427,20.4018,269.39,401.016
952,254.985,46.3433,57.2887,94.7343,2.8827,5.02169,5.83464,8.95304,3.7221,2.87042,4.01661,2.69341,1.1302,1.44341,7.67427,19.7788,264.531,408.644
981,216.796,38.1913,46.942,88.3284,0.292562,5.24195,4.64974,8.15068,2.8234,3.68473,4.01661,1.56855,1.1302,1.11132,8.63279,19.2597,238.849,415.987
1010,208.887,39.3738,48.3384,87.6192,3.56632,2.84187,4.19401,8.15068,2.8234,3.68473,2.29213,1.56855,1.27162,1.27736,7.67427,18.5744,206.484,421.942
1039,165.845,27.7466,33.6592,74.4779,1.94083,1.45195,1.17858,7.34831,3.7221,3.68473,3.15437,1.56855,1.27162,1.11132,7.67427,18.0968,149.31,426.665
1068,158.564,29.5643,37.1869,73.8275,2.21428,2.7963,4.51302,6.54595,4.62079,2.05612,3.15437,1.9435,0.847352,0.945271,5.75724,17.4323,161.958,431.437
1097,143.054,26.0963,33.6312,68.5085,1.70537,0.684833,2.3255,4.94122,1.92471,3.68473,2.29213,1.1936,0.988774,0.945271,4.79872,16.4147,148.849,435.899
1126,146.868,24.2658,29.972,65.9963,1.44711,3.16846,0.662078,6.54595,1.92471,2.87042,2.29213,1.1936,1.1302,1.11132,4.79872,16.4563,162.013,440.408
1155,149.961,26.521,32.8531,64.7736,1.80411,1.71778,4.2092,4.94122,2.8234,3.68473,2.29213,1.56855,0.847352,0.779224,6.71575,15.8956,145.294,444.633
1184,134.356,20.9915,25.6956,59.4012,1.75094,2.12032,3.16861,7.34831,1.92471,2.05612,2.29213,1.1936,1.1302,1.11132,4.79872,15.4387,157.825,448.747
1213,141.922,22.2957,28.5021,59.2323,1.66739,2.40894,2.21917,4.94122,3.7221,2.05612,2.29213,1.9435,0.988774,0.779224,3.8402,15.1065,142.033,453.026
1242,128.8,24.3226,30.4798,58.1853,2.48773,2.9406,4.0421,4.94122,0.127315,2.05612,1.42989,1.1936,0.847352,0.945271,5.75724,14.7534,110.31,456.674
1271,136.163,22.2729,26.632,55.4534,1.96362,0.570905,1.4748,5.74359,2.8234,2.87042,2.29213,1.56855,0.847352,0.779224,5.75724,14.4627,104.966,460.003
1300,117.689,23.4676,28.1612,56.9479,0.90022,1.11016,0.631696,3.3365,1.02601,2.05612,3.15437,0.818646,0.847352,0.945271,2.88169,13.9436,108.566,463.11
1329,134.536,22.0227,28.9839,57.3473,0.512838,2.20387,2.18878,4.94122,1.92471,1.24181,2.29213,1.1936,0.988774,0.945271,3.8402,13.5075,144.199,466.552
1358,113.144,20.7871,24.8875,55.0776,1.31039,1.54309,0.593718,4.13886,1.92471,2.87042,3.15437,1.1936,0.847352,0.945271,5.75724,13.1337,141.049,470.344
1387,133.602,21.5775,26.6943,54.5555,2.48013,1.2165,3.10025,4.94122,1.92471,2.87042,1.42989,1.1936,0.564509,1.11132,3.8402,12.7807,114.723,474.449
1416,133.487,22.4376,29.3962,55.9455,3.75621,2.96339,2.56856,5.74359,1.92471,2.05612,1.42989,1.56855,0.70593,1.11132,5.75724,12.2615,101.238,477.511
1445,121.157,21.5058,28.5833,57.4712,3.14096,2.69756,1.4748,4.94122,1.02601,2.87042,3.15437,1.56855,0.564509,0.945271,4.79872,11.7631,97.3512,480.568
1474,138.246,19.9011,25.2145,54.5485,0.862241,1.79373,2.56856,3.3365,1.92471,2.05612,2.29213,0.818646,0.847352,0.945271,2.88169,11.3063,136.715,483.988
1503,133.383,22.0082,26.0664,54.6427,1.21924,2.13551,2.90276,4.13886,1.92471,2.05612,1.42989,0.818646,0.847352,0.945271,4.79872,10.7456,139.817,487.849
1532,119.023,18.3914,23.0683,54.9636,0.816667,1.26207,2.18119,4.94122,2.8234,2.05612,1.42989,1.1936,0.70593,1.11132,3.8402,10.621,136.802,491.511
1561,136.456,16.701,23.6192,55.2422,1.88007,2.81149,2.95593,4.13886,2.8234,3.68473,2.29213,0.818646,0.70593,0.945271,5.75724,9.81111,89.5269,494.776
1590,125.363,15.4657,21.3297,52.8645,1.14328,0.981045,3.5256,4.94122,1.92471,2.87042,2.29213,1.1936,0.847352,0.945271,3.8402,9.64498,92.233,497.051
1619,111.258,17.1618,23.699,54.73,1.90286,2.43932,2.11283,4.94122,1.02601,1.24181,3.15437,1.9435,0.988774,0.945271,5.75724,9.27119,84.924,499.785
1648,109.567,13.6348,18.8992,50.9792,1.17367,1.48992,3.23697,4.94122,1.92471,0.42751,2.29213,1.1936,0.847352,0.613177,4.79872,8.98046,83.9144,502.248
1677,106.804,14.5604,19.1757,49.9541,1.76613,0.532929,1.94573,4.13886,2.8234,2.87042,2.29213,1.9435,0.70593,1.11132,2.88169,8.7728,92.1394,504.585
1706,102.884,15.6429,19.9887,50.2652,0.809071,0.532929,1.01907,4.94122,1.92471,2.05612,3.15437,1.1936,0.564509,0.945271,4.79872,8.48207,58.904,506.642
1735,90.7008,12.9956,17.9203,48.1392,1.62181,0.844332,0.943114,4.13886,1.02601,2.05612,2.29213,0.818646,0.70593,0.779224,5.75724,8.14982,43.8466,508.136
1764,81.7434,13.0604,18.175,48.4614,1.31039,4.14064,1.53557,2.53413,1.92471,2.05612,1.42989,1.56855,0.847352,0.945271,4.79872,7.79679,0.0,510.08
1779,83.4757,13.3381,17.5772,47.8421,0.885028,1.08738,1.97611,4.94122,1.92471,2.87042,2.29213,1.1936,0.847352,0.779224,5.75724,7.77603,0.0,510.08