Folder: fsri_materials_database/01_Data/Camelback_Sofa/Furniture_Calorimeter

Note: README.md
# Materials and Products Database
### Repository of materials and products properties and fire test data to improve fire modeling and fire investigation.

This project was supported in part by Award No. 2019-DU-BX-0018, awarded by the National Institute of Justice, Office of Justice Programs, U.S. Department of Justice. The opinions, findings, and conclusions or recommendations expressed in this publication / program / exhibition are those of the author(s) and do not necessarily reflect those of the Department of Justice.

***
***

__Cite this database:__ "McKinnon, M., Weinschenk, C., Dow, N., DiDomizio, M., and Madrzykowski, D. Materials and Products Database (Version 1.0.0), Fire Safety Research Institute, UL Research Institutes. Columbia, MD 21045, 2023."

__Cite the Technical Reference Guide:__ "McKinnon, M., Weinschenk, C., and Madrzykowski, D. Materials and Products Database - Technical Reference Guide, Fire Safety Research Institute, UL Research Institutes. Columbia, MD 21045, 2023."

__Cite the User Guide:__ "McKinnon, M., and Weinschenk, C. Materials and Products Database - User Guide, Fire Safety Research Institute, UL Research Institutes. Columbia, MD 21045, 2023."

***
***

## Database Structure

## 01_Data/
Raw data generated from each apparatus are included here in plain-text format. The data is organized first by material, next by the short name of test apparatus used, and where applicable additional filtering by test settings.

### Test Apparatus and Data File Structure
- __Cone Calorimeter__ (Cone)
    + Data file structure includes the material, the short name for the apparatus, heat flux setting and scan/scalar, date of test, and replicate number. Scan is for the raw output data and scalar is for the initial conditions and high-level test parameters. 
        * Example: __MDF_Cone_HF25scalar_210323_R1__ stands for the first replicate of scalar data generated from a medium density fiber board test in cone calorimeter exposed to 25 kW/m<sup>2</sup> on March 23, 2021.
    + A _Cone_Notes.csv_ is generated for each material from the __plot_Cone_data.py__ script. For materials whose experiments deviated from typical behavior relevant pictures are included in the respective material directory.
- __Fourier Transform Infrared Spectrometer__ (FTIR)
    + The FTIR directory contains subdirectories for the Attenuated Total Reflectance method (ATR) and the Integrating Sphere (IS)
    + Data file structure for the ATR experiment files includes the material, the abbreviated name for the apparatus, date of test, and replicate number. 
        * Example: __MDF_ATR_210323_R5__ stands for the fifth replicate of data collected with the ATR accessory conducted on June 8, 2021.
    + Data file structure for the IS experiment files includes the material, the abbreviated name for the apparatus, the measurand, whether the test is a sample measurement or standard reference, date of test, and replicate number.
        * Example: __OSB_IS_REFLECT_MEAS_2

File: Camelback_Sofa_R1.csv
Time (s),Convective HRR,TCPlume1,TCPlume2,TCPlume3,DPPlume1,DPPlume2,DPPlume3,HF1,HF2,HF3,HF4,HF5,HF6,RAD2,RAD1,Load Cell,Heat Release Rate,Total Heat Released
-119,0.0,-6.99851,-5.93275,7.97246,-0.00411971,-0.0424816,-0.0688749,-0.21079,-1.11956,-0.0207027,0.0219214,-0.359065,-0.172583,0.613177,2.88169,34.2528,0.0,0.0
-93,0.0,-6.77553,-6.29584,7.42533,0.0186675,0.0182799,-0.0081105,0.591573,1.57652,-0.0207027,-0.840321,0.0158878,-0.172583,0.447131,2.88169,34.2528,0.0,0.0
-67,0.0,-7.53059,-6.1122,8.25573,-0.0117154,0.0258751,-0.0308971,1.39394,-0.220866,-0.0207027,0.0219214,0.765793,0.110261,0.447131,2.88169,34.232,0.0,0.0
-41,0.0,-6.53105,-6.32497,7.66468,0.10222,0.0410655,0.0526539,-0.21079,-0.220866,-0.0207027,-1.70256,0.39084,-0.172583,0.779224,4.79872,34.232,0.0,0.0
-15,0.0,-6.61505,-6.40893,7.7355,-0.00411971,-0.0348864,0.0222717,-0.21079,0.67783,0.793602,-1.70256,-0.359065,-0.172583,0.945271,2.88169,34.232,0.0,0.0
11,0.0,-6.27504,-6.53782,7.76236,0.0186675,0.0866367,-0.106853,1.39394,-0.220866,0.793602,0.0219214,-0.359065,-0.0311607,0.613177,2.88169,34.2528,0.0,0.0
37,0.0,-6.90039,-6.30338,7.68583,0.0110717,-0.0880527,-0.0764704,0.591573,-0.220866,0.793602,0.0219214,0.39084,-0.0311607,0.945271,0.964651,34.232,0.0,0.0
63,7.97756,-5.77915,-5.61236,8.28661,0.0110717,0.0866367,-0.0460882,0.591573,1.57652,0.793602,0.0219214,-0.359065,0.110261,0.945271,2.88169,34.1075,60.7462,0.632945
89,50.4638,0.103154,-3.51646,10.3077,0.504794,0.0714463,0.0222717,4.60339,1.57652,1.60791,0.884164,0.765793,0.675948,1.60946,4.79872,34.0659,217.823,3.91113
115,151.614,6.61313,0.448865,14.9227,0.43118,0.8221,0.0336092,8.06856,5.43434,5.50957,4.56452,1.31579,1.70795,1.98568,7.87154,33.5627,509.596,12.8927
141,293.834,26.5277,15.4275,23.4581,1.69732,0.755013,0.151396,15.0341,7.86739,9.75095,6.05762,3.01551,2.51443,2.77179,11.5083,32.7577,997.51,30.8312
167,600.67,67.1955,51.8283,58.0123,6.65733,0.815775,1.39707,27.8719,15.057,17.0797,13.8178,6.76503,4.63576,4.76435,21.0935,31.3871,1494.68,63.2227
193,944.886,156.832,157.076,147.874,4.95589,13.1656,5.04293,52.7452,25.8413,27.6656,22.4402,13.5142,9.16125,9.24761,41.2224,29.1028,2523.58,112.31
219,1516.32,274.74,360.518,425.651,9.04239,15.8922,8.05076,74.409,30.3348,32.5515,28.4759,21.3882,15.101,14.5611,67.1023,25.7802,2779.23,183.837
245,1506.28,194.126,249.564,364.627,3.01898,9.3072,5.99237,38.3027,16.8543,17.0797,16.4045,13.5142,10.0098,9.41366,41.2224,22.7692,1411.52,238.463
271,863.199,113.671,146.209,273.452,2.95821,4.87161,3.50103,14.2318,6.9687,6.49373,6.05762,4.51532,3.22154,3.10388,15.3424,21.4194,628.182,264.2
297,545.769,65.6027,92.8051,211.849,1.24917,1.81834,0.872973,8.61521,3.37392,3.23651,5.19538,1.89065,1.80732,1.94155,10.5498,20.6302,393.574,277.522
323,333.075,47.935,67.8698,169.623,0.512389,4.74249,0.721062,5.40575,2.47522,1.60791,1.74641,1.5157,0.958792,1.60946,6.71575,19.945,265.782,285.76
349,282.858,37.6205,55.615,137.96,2.23662,2.35,0.8274,3.80103,1.57652,2.42221,1.74641,1.5157,0.81737,1.11132,5.75724,19.6335,198.643,291.753
375,232.271,29.0884,42.7538,115.649,0.823814,0.815775,0.857782,2.1963,2.47522,0.793602,1.74641,0.765793,0.675948,1.11132,4.79872,19.322,158.597,296.656
401,181.845,23.065,34.8609,97.4068,2.13787,2.57786,1.66291,2.99866,-0.220866,-0.0207027,1.74641,0.39084,0.534526,1.11132,5.75724,18.7198,121.457,300.482
427,140.233,19.7468,30.3061,83.7303,0.528978,0.846677,0.097895,3.36737,0.607132,0.793601,0.962336,0.181504,0.511091,1.04861,3.50147,18.6305,102.904,303.571
453,150.09,16.8626,25.2546,72.7449,1.12764,1.43858,1.18439,2.99866,-0.220866,1.60791,0.884164,0.765793,0.534526,0.945271,4.79872,18.4706,81.6785,306.059
479,122.695,14.4477,20.6202,63.335,0.284518,1.81074,1.6857,2.99866,1.57652,1.60791,0.884164,0.765793,0.251683,0.779224,4.79872,18.3252,70.7851,308.254
505,100.782,11.1831,16.4948,56.3613,0.337688,0.451206,0.834995,2.1963,1.57652,0.793602,1.74641,0.39084,0.251683,1.11132,3.8402,17.9722,98.5705,310.532
531,108.39,10.3272,15.9845,50.9952,0.390858,0.792989,0.379262,2.1963,0.67783,0.793602,0.884164,1.14074,0.110261,0.779224,3.8402,17.9722,97.2309,313.062
557,95.3676,7.46523,13.6654,46.0761,1.53781,0.230945,0.128609,1.39394,1.57652,0.793602,1.74641,0.765793,0.251683,0.779224,3.8402,17.7853,71.3204,315.269
583,96.4889,8.12122,11.6102,40.8778,0.93775,1.18034,0.698275,-1.01315,-0.220866,-0.0207027,0.0219214,0.0158878,0.251683,0.779224,4.79872,17.6399,56.0197,316.948
609,86.9213,7.38465,9.19316,36.5388,0.178178,0.375254,0.409645,1.39394,0.67783,1.60791,2.60865,0.39084,0.251683,0.613177,2.88169,17.4946,51.0004,318.264
635,84.1793,7.12253,8.74002,33.9611,0.383262,0.405635,0.629915,1.39394,-0.220866,0.793602,0.0219214,0.765793,0.393105,0.779224,2.88169,17.3077,67.0053,319.743
661,76.9632,6.09502,7.44523,31.1892,0.0946247,0.0866367,0.181778,0.591573,-0.220866,-0.0207027,-0.840321,0.0158878,0.110261,0.945271,2.88169,17.1623,73.8991,321.456
687,73.4885,4.77812,6.39661,29.3308,0.269326,0.322088,0.189374,1.39394,1.57652,1.60791,0.0219214,0.39084,-0.0311607,0.613177,3.8402,16.9962,53.1444,323.19
713,69.6922,4.24785,5.17748,26.8487,0.482007,0.139803,0.166587,2.1963,1.57652,-0.0207027,0.884164,0.765793,0.534526,1.11132,4.79872,17.0169,40.2766,324.318
739,65.1124,2.60722,3.99638,25.2681,0.0566461,-0.0272912,-0.0688749,0.591573,0.67783,-0.0207027,-1.70256,0.39084,0.110261,0.945271,3.8402,16.7885,53.3607,325.453
765,64.4029,3.07237,4.92091,24.2151,0.314901,1.38541,0.295711,2.1963,0.67783,0.793602,0.884164,0.0158878,0.110261,0.613177,2.88169,16.7885,67.1915,327.226
791,63.2507,3.42836,5.42996,23.8858,0.535177,0.230945,0.394453,2.1963,0.67783,0.793602,1.74641,0.39084,0.251683,0.779224,4.79872,16.6432,54.2283,328.824
817,60.6289,2.52086,3.98659,22.4203,0.679495,0.352468,0.569151,0.591573,0.67783,0.793602,1.74641,-0.359065,0.110261,0.613177,2.88169,16.477,38.6382,330.014
843,63.8891,2.79457,4.98769,21.7058,0.747857,1.93227,0.174183,0.591573,-0.220866,-0.835007,0.884164,0.39084,-0.0311607,0.779224,4.79872,16.477,40.4628,331.003
869,59.4819,1.65736,4.15683,21.0344,0.656708,0.253731,0.356476,1.39394,0.67783,-0.0207027,1.74641,0.39084,0.110261,0.447131,3.8402,16.2901,48.8444,332.107
895,57.5962,1.47163,2.78416,19.6736,0.482007,0.215755,0.166587,1.39394,1.57652,-0.0207027,0.884164,0.39084,0.251683,0.779224,3.8402,16.2901,58.885,333.62
921,48.7505,1.77222,2.319,19.0221,0.474411,1.02844,0.607129,1.39394,1.57652,-0.0207027,1.74641,0.39084,0.110261,0.613177,0.964651,16.1448,63.7892,335.272
947,54.2978,0.25803,2.68069,19.305,0.125008,0.481586,0.234947,2.1963,-0.220866,-0.0207027,0.0219214,0.39084,0.251683,0.779224,2.88169,16.124,38.7287,336.628
973,56.2829,0.296307,1.26406,17.2898,0.208561,0.306897,0.424836,-1.01315,0.67783,-0.835007,0.0219214,0.0158878,0.110261,0.613177,2.88169,15.9994,26.4673,337.364
999,45.6349,0.673397,0.760676,16.4087,0.178178,-0.0348864,0.113418,2.1963,1.57652,2.42221,1.74641,0.39084,0.110261,0.779224,2.88169,15.9786,30.6429,338.085
1025,44.3083,-0.350145,0.963482,16.5342,0.428837,0.299302,0.0298672,0.591573,0.67783,0.793602,-0.840321,0.0158878,-0.0311607,0.613177,2.88169,15.854,36.9965,338.96
1051,41.3266,1.11158,1.04575,16.8064,0.223752,0.451206,0.1438,0.591573,-0.220866,0.793602,0.0219214,0.0158878,0.110261,0.779224,3.8402,15.771,62.2668,340.306
1077,47.2177,0.192869,0.356681,16.121,-0.0269069,-0.0424816,-0.015706,1.39394,-0.220866,-0.0207027,1.74641,-0.359065,0.251683,0.613177,3.8402,15.8125,47.453,341.694
1103,42.0354,-1.07607,-0.372151,15.321,-0.0117154,-0.0728623,0.00708059,1.39394,-0.220866,-0.835007,-0.840321,0.39084,0.110261,0.779224,3.8402,15.6671,25.7131,342.585
1129,39.6363,-1.46186,-0.911154,14.6348,0.0794332,-0.0121008,1.04767,2.1963,0.67783,0.793602,0.884164,0.0158878,0.251683,0.779224,2.88169,15.6464,31.1762,343.265
1155,38.6762,-1.49472,0.209264,15.479,0.307305,0.276516,0.128609,0.591573,-0.220866,-0.0207027,0.0219214,0.0158878,-0.0311607,0.447131,2.88169,15.6464,63.4028,344.388
1181,45.1538,0.0568527,0.833136,15.2236,0.390858,0.519562,0.272925,-1.01315,-0.220866,-0.0207027,0.884164,0.0158878,0.110261,0.613177,4.79872,15.4595,62.3323,345.998
1207,37.5434,-0.0581851,0.833136,15.6809,0.140199,0.337278,0.257734,1.39394,-0.220866,-0.0207027,0.884164,0.0158878,-0.0311607,1.11132,3.8402,15.4803,35.6568,347.19
1233,36.0803,-1.10889,-0.212616,15.2885,0.489602,0.253731,0.128609,1.39394,-0.220866,-0.0207027,0.0219214,0.39084,0.110261,0.447131,3.8402,15.2934,35.2931,347.984
1259,40.617,-1.52184,-0.816897,14.4993,0.087029,0.117017,0.151396,1.39394,0.67783,-0.835007,0.0219214,0.39084,0.110261,0.613177,1.92317,15.3141,47.4736,349.032
1285,36.8178,0.154593,0.0504606,14.8636,0.519985,0.770204,0.128609,-0.21079,-0.220866,0.793602,0.884164,0.0158878,0.110261,0.613177,4.79872,11.6593,52.9474,350.421
1311,36.8504,-0.981764,-0.662844,14.4231,0.231348,0.519562,0.637511,0.591573,-0.220866,0.793602,0.0219214,0.39084,0.110261,0.613177,2.88169,15.1688,71.9691,352.023
1337,41.1266,-0.717814,0.712595,14.3793,0.147795,0.0942318,0.174183,0.591573,-0.220866,-0.0207027,-0.840321,0.39084,0.110261,0.779224,2.88169,15.1272,57.2361,353.723
1363,40.8351,0.0511578,1.05714,15.0274,0.193369,0.352468,0.341285,0.591573,0.67783,-0.0207027,0.884164,-0.359065,-0.0311607,0.779224,2.88169,14.9611,54.1757,355.287
1389,38.5221,-0.44265,0.412046,14.5375,0.200965,0.132208,-0.0916615,-0.21079,-0.220866,-0.0207027,0.884164,0.765793,-0.0311607,0.945271,2.88169,14.9611,61.2361,356.728
1415,39.9602,-1.05886,0.0292699,14.69,0.413645,-0.00450562,0.00708059,2.1963,-0.220866,0.793602,0.0219214,-0.359065,0.251683,0.945271,2.88169,14.878,60.9941,358.443
1441,35.7711,-0.800573,0.515494,14.8693,-0.0117154,0.192969,0.4856,0.591573,0.67783,-0.0207027,0.0219214,0.0158878,0.110261,0.779224,2.88169,14.795,37.9,359.854
1467,30.2458,-0.712084,-0.124305,15.1093,0.474411,0.717037,0.0754405,0.591573,-0.220866,0.793602,-0.840321,-0.359065,0.110261,0.613177,3.8402,14.8157,50.8484,360.931
1484,34.0221,-2.84287,-0.0147538,14.6843,0.140199,0.534753,0.00708059,0.591573,-1.11956,-0.835007,0.884164,0.0158878,-0.172583,0.779224,3.8402,14.795,0.0,360.997

File: Camelback_Sofa_R2.csv
Time (s),Convective HRR,TCPlume1,TCPlume2,TCPlume3,DPPlume1,DPPlume2,DPPlume3,HF1,HF2,HF3,HF4,HF5,HF6,RAD2,RAD1,Load Cell,Heat Release Rate,Total Heat Released
-120,0.0,-4.86408,-5.00916,7.65417,-0.0171063,-0.0862277,-0.0100848,-0.256217,-1.02708,-0.773247,0.927454,0.0693189,-0.175886,0.613177,2.88169,38.1984,0.0,0.0
-95,0.0,-6.20177,-5.60556,8.06368,-0.00191489,0.0125097,-0.0100848,-0.256217,-0.128385,-1.58755,-0.797031,0.444271,0.248379,0.779224,2.88169,38.2399,0.0,0.0
-70,0.0,-5.59471,-5.27202,7.89353,0.028468,0.0201049,0.0127018,0.546147,-0.128385,0.0410574,0.927454,0.0693189,-0.0344641,0.613177,3.8402,38.2607,0.0,0.0
-45,0.0,-4.93785,-5.12192,7.50517,-0.0626807,0.0201049,0.172208,0.546147,-0.128385,-0.773247,-0.797031,0.0693189,0.106958,0.447131,2.88169,38.0115,0.0,0.0
-20,0.0,-5.95172,-5.5898,7.77304,0.028468,0.0808664,-0.0480626,-0.256217,-0.128385,0.0410574,0.927454,0.0693189,0.248379,0.613177,2.88169,38.1984,0.0,0.0
5,0.0,-5.99657,-5.5566,7.69081,0.0664466,0.00491453,-0.0784448,1.34851,-0.128385,-0.773247,-0.797031,-0.305633,0.106958,0.447131,3.8402,38.2607,0.0,0.0
30,0.0,-5.90274,-5.77493,7.40012,0.0360637,-0.0938229,-0.0708492,-0.256217,0.77031,0.0410574,-0.797031,-0.305633,0.106958,0.779224,2.88169,38.2191,0.0,0.0
55,0.0,-4.53277,-5.45703,8.05634,-0.00951061,-0.0786325,-0.040467,-0.256217,-0.128385,-0.773247,0.0652116,0.444271,0.106958,0.613177,3.8402,38.2399,24.7763,0.116505
80,17.2473,-4.50545,-4.76721,8.7718,0.0664466,0.0504857,0.0202973,0.546147,0.77031,0.0410574,1.7897,0.444271,0.248379,0.779224,3.8402,38.0738,76.9441,1.53129
105,47.7261,-0.183271,-1.86862,10.5957,0.332297,0.240365,0.0202973,2.95324,1.66901,2.48397,0.927454,0.444271,0.389801,0.779224,4.79872,38.0738,149.894,4.56195
130,99.831,4.98006,-0.332056,13.8357,1.33493,-0.116608,0.0582751,6.16269,2.5677,4.11258,1.7897,1.56913,0.955488,1.27736,5.75724,37.7,320.281,10.4347
155,196.341,12.119,2.95032,18.1664,0.165191,0.0201049,0.0127018,8.56978,4.36509,4.11258,4.37643,1.94408,1.37975,1.44341,7.67427,37.2016,436.983,19.1824
180,258.85,18.057,8.0735,22.7911,4.27448,0.40746,0.377288,10.9769,7.06118,6.55549,5.23867,3.06894,1.6626,2.60574,9.5913,36.7447,526.402,31.451
205,346.853,45.5441,31.1476,37.6497,1.04629,6.25576,0.415266,16.5934,9.75726,10.627,6.10091,3.81884,2.51113,2.93783,13.4254,35.8518,763.63,48.7626
230,511.765,68.6459,60.8742,59.2467,1.95019,5.26079,1.47105,25.4194,13.352,13.0699,7.8254,5.6936,3.78392,4.10016,20.135,34.8966,1015.59,71.6469
255,801.954,114.332,123.705,123.714,4.28207,4.49367,5.89165,31.036,16.0481,15.5128,11.2744,7.19341,4.77388,5.26249,25.8861,33.4014,1274.47,100.617
280,782.868,146.981,171.057,193.15,4.73782,6.0203,4.72954,39.0596,15.1494,16.3271,12.9989,9.44313,5.76383,6.42481,32.5957,31.7401,1442.31,135.116
305,847.843,142.569,164.59,215.993,4.31246,5.43547,7.54748,41.4667,17.8455,17.9558,15.5856,10.9429,7.88516,7.75319,39.3053,29.7258,1390.62,170.934
330,862.226,135.335,160.904,222.91,4.4112,8.63305,7.99562,34.2454,12.4534,16.3271,12.1366,9.06818,6.75378,6.59086,34.5127,28.0645,1462.35,205.994
355,880.035,134.363,164.754,229.396,3.78076,9.60523,3.53703,31.8383,11.5547,12.2556,11.2744,8.31827,6.18809,5.76063,30.6787,26.424,1364.53,238.852
380,778.299,105.322,133.079,200.861,4.44918,2.93666,3.57501,16.5934,7.06118,6.55549,7.8254,4.9437,3.6425,3.76807,18.218,24.9911,722.929,264.749
405,536.995,71.44,92.7363,165.57,5.39864,5.82283,4.14468,10.1745,5.26379,4.92688,3.51418,3.06894,1.80402,2.1076,11.5083,23.9321,464.663,279.164
430,368.749,51.8912,66.9152,136.091,1.50204,3.22527,1.63055,6.96505,3.4664,2.48397,3.51418,2.69399,1.23833,1.60946,8.63279,23.4752,314.604,288.395
455,315.698,40.678,54.2133,114.776,2.2844,1.79738,0.141826,5.36033,1.66901,1.66967,3.51418,1.56913,1.09691,1.27736,6.71575,22.7484,260.353,296.288
480,241.242,31.4136,45.0878,99.8556,2.1021,0.703672,3.54463,3.7556,1.66901,1.66967,2.65194,1.56913,0.672645,1.11132,7.67427,22.4369,209.809,302.262
505,176.243,25.9264,35.3731,85.9544,1.08427,0.620125,1.74449,3.7556,0.77031,1.66967,1.7897,0.819224,0.531223,0.945271,4.79872,22.0839,178.619,306.989
530,173.373,21.8086,30.3896,74.5505,1.12225,0.506197,0.415266,2.95324,0.77031,0.855362,2.65194,1.56913,0.248379,0.945271,5.75724,21.7931,155.272,311.64
555,138.069,19.0614,25.4371,65.1434,1.2134,0.468221,0.54439,1.34851,-1.02708,0.0410574,0.0652116,0.819224,0.389801,0.945271,3.8402,21.5024,144.562,315.07
580,119.096,14.3593,19.887,56.8489,0.476616,0.278341,0.643132,2.15087,-1.02708,0.855362,0.0652116,1.19418,0.248379,0.945271,1.92317,21.2948,100.576,317.802
605,117.755,11.6179,17.0802,50.3219,0.385467,0.316317,0.377288,1.34851,-0.128385,0.855362,1.7897,0.444271,0.389801,0.945271,3.8402,21.2117,103.464,320.541
630,103.109,10.8158,15.2527,45.9885,0.651317,0.726458,0.308928,2.15087,0.77031,0.855362,0.0652116,0.444271,0.248379,0.779224,2.88169,20.9833,128.92,323.461
655,107.249,11.1823,15.4277,43.2254,1.06908,0.582149,0.103848,-0.256217,-0.128385,1.66967,0.927454,0.819224,0.248379,0.613177,2.88169,20.7964,116.44,326.555
680,87.1634,9.61002,12.6767,38.6754,0.41585,0.164414,0.47603,2.15087,-0.128385,1.66967,0.0652116,0.819224,0.248379,0.945271,3.8402,20.6302,119.74,329.477
705,93.2965,8.3214,10.8934,35.547,0.41585,0.855576,0.308928,0.546147,0.77031,0.0410574,1.7897,0.444271,0.389801,0.779224,4.79872,20.298,99.4852,332.104
730,80.7238,8.25061,11.7776,33.9044,1.11466,0.734053,0.863403,1.34851,0.77031,0.855362,0.927454,0.444271,0.248379,0.945271,4.79872,20.2772,72.6957,334.149
755,81.587,7.77044,9.04346,31.0684,0.355084,0.863171,-0.040467,1.34851,0.77031,1.66967,1.7897,0.444271,0.531223,0.945271,1.92317,20.0903,96.4254,336.08
780,90.4423,6.93445,7.63405,28.8164,0.985529,0.908742,0.529199,1.34851,-0.128385,0.855362,0.0652116,0.819224,-0.0344641,0.613177,3.8402,19.945,81.6319,338.235
805,71.5504,7.24055,8.16958,27.7611,1.0387,0.521387,0.703896,2.15087,0.77031,0.855362,1.7897,0.0693189,0.248379,0.613177,3.8402,19.8204,93.096,340.439
830,72.9431,6.75452,7.45415,26.6784,0.46902,0.604934,1.01531,-0.256217,-0.128385,-0.773247,0.0652116,0.444271,0.389801,0.613177,5.75724,19.6127,69.5209,342.515
855,80.0833,6.60146,6.80369,25.5455,0.590552,1.31129,0.551986,1.34851,-0.128385,0.855362,0.0652116,0.0693189,0.248379,0.945271,2.88169,19.6335,62.213,344.091
880,70.1578,6.45977,7.3125,24.9142,0.552573,0.847981,0.232973,0.546147,1.66901,0.855362,1.7897,0.444271,-0.0344641,0.779224,3.8402,19.4881,45.6612,345.472
905,60.0694,5.055,5.83142,23.4122,0.377871,0.650506,0.179804,2.15087,-0.128385,1.66967,0.927454,0.444271,0.248379,0.779224,3.8402,19.2597,60.1081,346.799
930,59.2236,5.13156,5.06585,21.442,0.248744,0.209985,0.043084,1.34851,0.77031,1.66967,0.0652116,-0.305633,-0.0344641,0.779224,4.79872,19.1143,62.7871,348.347
955,61.4995,4.52475,4.65044,21.22,0.476616,0.339103,0.688705,1.34851,-1.92578,0.0410574,0.927454,0.0693189,0.248379,0.613177,3.8402,18.9897,71.9554,349.822
980,56.9642,2.22756,4.727,20.9166,0.62853,0.794814,0.40767,1.34851,0.77031,0.0410574,0.927454,0.444271,0.248379,0.613177,3.8402,18.9897,64.6845,351.193
1005,58.8812,4.10362,5.14811,19.6259,0.339893,0.247961,0.27095,0.546147,0.77031,0.0410574,0.927454,0.0693189,0.248379,0.613177,2.88169,18.8028,66.249,352.971
1030,64.4393,3.85271,4.20811,19.6428,0.286723,0.597339,0.0506795,2.15087,-1.02708,0.855362,0.0652116,0.0693189,0.248379,0.779224,2.88169,18.6367,62.7895,354.552
1055,57.5682,2.95502,4.34416,19.5879,0.643722,0.453031,0.134231,-1.05858,-0.128385,2.48397,-0.797031,0.444271,0.106958,0.613177,3.8402,18.6159,58.0813,356.221
1080,50.1799,2.09672,3.39029,18.4413,0.188317,0.212049,0.4795,0.612634,1.7762,1.77624,-0.136506,0.441377,-0.0539189,0.551839,3.25807,18.4491,37.0636,357.381
1105,51.0218,-0.0908908,3.48065,18.883,0.301914,0.415055,0.111444,0.546147,-0.128385,0.0410574,0.0652116,1.19418,0.248379,0.779224,3.8402,18.3252,35.5402,358.323
1130,52.0837,2.43608,3.02119,17.9325,0.385467,0.0884616,0.521603,0.546147,1.66901,-0.773247,0.0652116,0.0693189,0.106958,0.779224,4.79872,18.2837,40.438,359.332
1155,46.8718,2.16238,3.16864,17.9649,0.119617,-0.0482518,0.0127018,1.34851,-0.128385,0.855362,-0.797031,0.0693189,-0.175886,0.779224,3.8402,18.1175,58.0137,360.591
1180,52.103,2.88984,3.3218,17.7366,0.248744,-0.0786325,0.0886572,1.34851,0.77031,0.0410574,2.65194,0.0693189,0.248379,0.613177,4.79872,16.124,55.7028,361.903
1205,50.15,1.89437,3.24522,17.4323,0.271531,0.969504,0.40767,0.546147,0.77031,0.855362,0.927454,0.0693189,0.106958,0.613177,2.88169,17.7853,28.2708,363.037
1230,40.4622,1.5441,2.74177,17.1603,0.241148,0.0125097,0.210186,2.15087,0.77031,1.66967,0.0652116,0.0693189,0.106958,0.945271,4.79872,17.6399,29.2166,363.777
1255,46.6403,1.67035,2.48514,17.0193,0.25634,0.597339,0.240568,0.546147,-0.128385,0.0410574,-0.797031,-0.305633,0.248379,0.779224,4.79872,17.4115,23.0447,364.505
1280,40.5549,0.849307,2.81265,17.0024,0.613339,0.415055,0.111444,2.15087,0.77031,0.0410574,0.0652116,-0.305633,0.106958,0.945271,1.92317,17.453,23.54,365.077
1305,38.8384,0.975544,2.32629,16.4046,0.491807,0.293532,0.643132,1.34851,-0.128385,0.0410574,0.927454,0.444271,0.106958,0.613177,3.8402,17.4738,16.5934,365.558
1330,34.4752,0.324786,2.01999,16.3284,0.241148,0.194794,0.40767,1.34851,-0.128385,0.0410574,-0.797031,-0.305633,0.248379,0.613177,2.88169,17.3284,5.45773,365.948
1355,31.4332,0.504786,1.20458,15.86,0.127212,0.126438,0.0962528,-0.256217,0.77031,-0.773247,0.0652116,0.444271,0.248379,0.613177,2.88169,17.3077,0.0,365.959
1380,28.3212,0.20426,1.05714,16.0562,0.157595,0.187199,0.043084,0.546147,-0.128385,0.855362,0.927454,0.0693189,0.106958,0.447131,0.964651,17.3077,14.5432,366.048
1405,31.5496,0.466507,0.706899,15.7077,0.46902,0.42265,0.232973,1.34851,-1.02708,0.0410574,0.927454,0.444271,0.106958,0.779224,3.8402,17.3284,10.0803,366.417
1430,33.058,-0.613765,0.586359,15.4353,0.332297,0.83279,0.529199,0.546147,-1.02708,0.855362,0.927454,0.444271,0.106958,0.447131,2.88169,17.1623,0.0,366.514
1455,31.4896,-0.0369162,0.39496,15.1304,-0.00951061,0.0580809,0.149422,1.34851,0.77031,1.66967,0.0652116,0.444271,-0.0344641,0.779224,1.92317,17.1623,4.67187,366.559
1480,24.0373,-1.11463,-0.14146,14.7111,0.157595,0.172009,0.696301,-1.05858,-1.92578,-0.773247,0.927454,0.819224,0.106958,0.613177,4.79872,16.9962,0.0,366.664
1485,23.74,-1.11463,0.0504606,15.0542,0.142404,0.134033,0.0582751,1.34851,0.77031,0.855362,-0.797031,0.444271,0.248379,0.779224,4.79872,16.9546,0.0,366.664