Folder: fsri_materials_database/01_Data/Engineered_Wood_Table/Cone (part 5)

File: Engineered_Wood_Table_Cone_HF50Scan_230626_R3.csv
Names,Time,Stack TC,Smoke TC,Exh Press,Smoke Comp,Smoke Meas,CO Meter,CO2 Meter,O2 Meter,Sample Mass,Ext Coeff,Start Test,Flame Verif
Chan Gain,,500,500,1,1,1,1,1,1,1,1,1.0,1.0
Offset,,0,0,0.208865,0,0,0,0,0,0,0,0.0,0.0
Gain,,1,1,25.011,13.0519,31.1647,1,1,1,1.00091,1.03162,1.0,1.0
Units,sec,C,C,Pa,%,%,%,%,%,g,/m,,
Baseline,,49.3083,51.8765,161.962,100.145,100.315,0.00069168,0.0486972,20.9377,-443.468,-0.0152892,,
164,40.75,60.399,74.3571,138.392,100.608,95.1631,0.00466724,0.454559,20.696,429.579,0.503504,0.0,0.0
328,81.75,78.787,92.189,150.147,101.444,99.2138,0.00542049,0.484043,20.4004,421.702,0.201148,0.0,0.0
492,122.75,77.6389,85.5388,150.944,101.008,99.7777,0.00306609,0.326095,20.5946,416.277,0.110933,0.0,0.0
656,163.75,75.3244,82.2832,149.679,100.765,100.607,0.00219723,0.278281,20.6569,411.873,0.0142328,0.0,0.0
820,204.75,73.4853,79.468,147.62,100.763,100.311,0.00184344,0.253974,20.6933,407.929,0.040662,0.0,0.0
984,245.75,72.8155,78.6211,150.962,101.335,100.548,0.00181537,0.241225,20.7082,404.376,0.0705109,0.0,0.0
1148,286.75,72.5872,77.2001,149.055,100.897,100.746,0.00178699,0.226153,20.726,400.803,0.0135844,0.0,0.0
1312,327.75,71.9538,76.4829,150.041,101.496,101.435,0.00176643,0.216518,20.7395,397.61,0.00544396,0.0,0.0
1476,368.75,71.0462,75.8684,150.867,101.703,101.201,0.00174839,0.206754,20.7497,394.547,0.0448236,0.0,0.0
1640,409.75,70.6855,75.2472,154.347,99.9776,100.068,0.00138167,0.196171,20.7617,391.675,-0.00816507,0.0,0.0
1804,450.75,69.8488,73.8448,154.592,100.497,100.565,0.00179573,0.188149,20.7769,388.962,-0.00614456,0.0,0.0
1968,491.75,69.1043,73.1692,154.889,101.013,100.908,0.00150807,0.179308,20.7827,386.49,0.00942671,0.0,0.0
2132,532.75,68.5005,72.578,150.264,101.002,100.773,0.00148636,0.173283,20.7913,383.988,0.0205476,0.0,0.0
2296,573.75,68.4349,71.2934,152.165,100.602,99.753,0.00187458,0.16795,20.7986,381.576,0.0767031,0.0,0.0
2460,614.75,67.0731,70.7577,153.797,99.8306,98.9665,0.00157732,0.164217,20.8046,379.283,0.07867,0.0,0.0
2624,655.75,67.0632,70.4763,148.284,100.274,99.442,0.00162654,0.159972,20.8087,377.051,0.075352,0.0,0.0
2788,696.75,66.415,70.1196,152.296,101.624,101.093,0.00204911,0.157603,20.8104,374.849,0.0473845,0.0,0.0
2952,737.75,66.1187,69.7203,156.31,101.006,100.657,0.00167462,0.154976,20.8166,372.838,0.0312796,0.0,0.0
3116,778.75,66.1654,69.4057,155.193,100.904,100.779,0.00201522,0.154359,20.8178,370.746,0.0111659,0.0,0.0
3280,819.75,65.8641,69.3626,155.836,101.006,101.101,0.00218477,0.15496,20.8154,368.764,-0.00847712,0.0,0.0
3444,860.75,66.0143,69.423,156.981,99.8752,99.889,0.00179119,0.155236,20.8196,366.592,-0.00125199,0.0,0.0
3608,901.75,65.9759,69.2822,152.846,99.7386,99.7188,0.00201192,0.157439,20.8144,364.47,0.00179704,0.0,0.0
3772,942.75,65.6039,69.4718,153.901,100.64,100.635,0.00185325,0.160257,20.8145,362.438,0.000441203,0.0,0.0
3936,983.75,65.4732,69.7234,151.389,100.722,100.579,0.00159156,0.159909,20.8124,360.306,0.0127786,0.0,0.0
4100,1024.75,65.6787,69.5922,155.123,100.928,100.469,0.00145945,0.161201,20.8089,358.084,0.0411925,0.0,0.0
4264,1065.75,66.5311,70.4658,151.231,100.902,100.585,0.00151756,0.16351,20.8088,355.822,0.028426,0.0,0.0
4428,1106.75,66.563,71.2696,150.438,101.69,101.568,0.00196408,0.165139,20.8067,353.53,0.0108512,0.0,0.0
4592,1147.75,66.9563,71.3067,153.679,101.045,100.512,0.00151365,0.168782,20.8046,351.158,0.0478319,0.0,0.0
4756,1188.75,67.7513,72.1316,154.234,100.638,100.213,0.00154961,0.173411,20.7986,348.526,0.0382636,0.0,0.0
4920,1229.75,67.9416,72.6448,150.033,100.893,100.117,0.00182472,0.178972,20.7941,345.873,0.0698354,0.0,0.0
5084,1270.75,68.9868,73.4313,154.214,101.535,101.081,0.00150441,0.186963,20.7842,343.121,0.0406126,0.0,0.0
5248,1311.75,69.4555,74.436,150.153,101.55,100.786,0.00162007,0.192485,20.7758,340.218,0.0683602,0.0,0.0
5412,1352.75,70.3132,74.8893,156.859,100.976,100.263,0.00169401,0.199297,20.7695,337.115,0.0641216,0.0,0.0
5576,1393.75,70.5028,75.9189,152.215,101.574,101.156,0.00168287,0.204293,20.7575,334.143,0.0372957,0.0,0.0
5740,1434.75,70.8677,76.1181,152.27,101.081,100.263,0.00174871,0.202426,20.7577,331.14,0.0735759,0.0,0.0
5904,1475.75,72.1487,77.1844,146.6,99.7621,99.0007,0.00214531,0.215791,20.7472,328.037,0.0693269,0.0,0.0
6068,1516.75,73.0149,78.9689,146.953,100.68,99.9756,0.00217352,0.230014,20.73,324.604,0.0635207,0.0,0.0
6232,1557.75,73.8078,78.7699,150.935,100.688,99.8719,0.00199736,0.226091,20.7307,321.211,0.0736241,0.0,0.0
6396,1598.75,73.6959,79.0201,149.258,100.859,100.706,0.00215007,0.217794,20.7388,317.938,0.0137427,0.0,0.0
6560,1639.75,73.853,78.5093,149.901,101.595,101.135,0.00242853,0.211033,20.7441,314.955,0.0410486,0.0,0.0
6724,1680.75,73.2466,77.6568,147.732,100.612,100.578,0.00171545,0.205515,20.7541,312.103,0.00306748,0.0,0.0
6888,1721.75,73.2768,78.0725,146.531,100.082,99.3269,0.00204173,0.20402,20.7558,309.33,0.0685604,0.0,0.0
7052,1762.75,72.9358,77.5375,150.461,100.295,100.016,0.00202946,0.198892,20.7588,306.558,0.0251681,0.0,0.0
7216,1803.75,72.5434,77.0654,150.68,101.142,100.814,0.0025063,0.200697,20.7577,303.895,0.0293433,0.0,0.0
7380,1844.75,72.7915,77.3733,152.676,101.599,101.623,0.00260652,0.199785,20.757,301.263,-0.00207632,0.0,0.0
7544,1885.75,72.2394,76.6441,148.251,101.136,100.869,0.00256176,0.19561,20.7601,298.771,0.0239793,0.0,0.0
7708,1926.75,72.2258,76.6925,151.137,101.581,101.413,0.00276994,0.194381,20.762,296.178,0.0150276,0.0,0.0
7872,1967.75,71.8521,76.156,154.117,101.678,101.437,0.00251428,0.187838,20.7724,293.806,0.0214742,0.0,0.0
8036,2008.75,71.4434,75.4156,149.432,101.598,101.315,0.00296618,0.179716,20.782,291.484,0.0252983,0.0,0.0
8200,2049.75,70.9854,74.5797,144.909,100.665,100.685,0.00357406,0.170283,20.791,289.362,-0.00179902,0.0,0.0
8364,2090.75,70.3718,74.1339,150.763,99.8127,99.8804,0.00405597,0.164878,20.7992,287.37,-0.00614348,0.0,0.0
8528,2131.75,69.4155,72.6569,153.849,100.401,100.267,0.00404553,0.159679,20.8083,285.489,0.0120849,0.0,0.0
8692,2172.75,68.8421,72.1431,146.871,100.274,100.087,0.0043086,0.154332,20.813,283.567,0.0168626,0.0,0.0
8856,2213.75,68.1929,72.2687,150.132,99.919,99.9993,0.00475721,0.151285,20.8134,281.805,-0.00727217,0.0,0.0
9020,2254.75,68.0728,71.7247,152.37,99.7661,99.3545,0.00438726,0.148658,20.8191,280.044,0.0374074,0.0,0.0
9184,2295.75,67.4732,70.7157,151.647,100.569,100.267,0.00505992,0.147717,20.8185,278.412,0.0272936,0.0,0.0
9348,2336.75,67.0501,70.3771,155.456,101.611,100.814,0.00467783,0.14458,20.8264,276.761,0.0712633,0.0,0.0
9512,2377.75,66.9573,70.7762,152.472,100.812,100.836,0.00472724,0.143735,20.8216,275.119,-0.00214052,0.0,0.0
9676,2418.75,66.6677,70.5557,149.632,100.496,100.31,0.00462428,0.146055,20.8226,273.528,0.0167129,0.0,0.0
9840,2459.75,66.8674,70.5204,153.412,100.448,100.31,0.00475538,0.146138,20.819,271.806,0.0123725,0.0,0.0
10004,2500.75,66.5886,70.9539,152.014,99.87,99.7682,0.00502299,0.148245,20.8188,270.155,0.00922843,0.0,0.0
10168,2541.75,66.7004,70.4222,153.334,101.36,101.559,0.00494829,0.147828,20.8197,268.423,-0.0177474,0.0,0.0
10332,2582.75,66.7546,70.4999,157.627,101.079,100.533,0.00528808,0.152297,20.8174,266.702,0.0490155,0.0,0.0
10496,2623.75,66.6374,70.5984,150.131,99.8429,99.9432,0.00458098,0.155181,20.8124,264.84,-0.00908505,0.0,0.0
10660,2664.75,67.4987,71.1198,150.355,99.9461,99.7815,0.00437922,0.156815,20.8134,262.988,0.0149113,0.0,0.0
10824,2705.75,68.0383,72.2189,152.828,100.767,100.109,0.0042386,0.159473,20.8086,261.006,0.0592776,0.0,0.0
10988,2746.75,68.2615,72.508,150.831,100.583,100.651,0.00448465,0.163846,20.8054,258.965,-0.00613593,0.0,0.0
11152,2787.75,68.9099,72.7359,154.429,101.18,101.748,0.00356687,0.166094,20.8046,256.933,-0.0506839,0.0,0.0
11316,2828.75,69.3154,73.5864,152.362,101.191,101.35,0.00335389,0.172166,20.799,254.721,-0.0142104,0.0,0.0
11480,2869.75,69.5614,74.3414,152.647,101.194,101.297,0.00376254,0.17716,20.7919,252.409,-0.00920437,0.0,0.0
11644,2910.75,70.2642,75.0433,152.315,101.071,100.826,0.00324415,0.18299,20.7843,250.046,0.0219736,0.0,0.0
11808,2951.75,70.9509,75.6994,149.393,100.55,100.057,0.00272724,0.190021,20.7786,247.504,0.044405,0.0,0.0
11972,2992.75,71.5451,76.1227,151.766,100.687,100.735,0.00257358,0.195034,20.7716,244.862,-0.00430853,0.0,0.0
12136,3033.75,71.6596,76.7991,148.945,100.107,99.792,0.00224501,0.200974,20.7691,242.279,0.0285207,0.0,0.0
12300,3074.75,72.5588,77.6625,146.001,99.7517,99.7425,0.00252749,0.207962,20.7581,239.507,0.000831688,0.0,0.0
12464,3115.75,72.8413,77.8538,149.138,99.6948,99.6855,0.00198229,0.213091,20.7487,236.614,0.000842475,0.0,0.0
12628,3156.75,73.4222,78.579,145.98,99.7923,99.4173,0.00208072,0.21697,20.7472,233.722,0.0340754,0.0,0.0
12792,3197.75,73.7422,78.3514,150.117,100.233,99.89,0.00216625,0.219593,20.7434,230.729,0.0310485,0.0,0.0
12956,3238.75,74.3579,79.8759,152.677,100.405,100.125,0.0022551,0.21692,20.7425,227.716,0.0253133,0.0,0.0
13120,3279.75,74.0313,78.3159,152.62,100.638,100.164,0.00202525,0.213846,20.7422,224.874,0.0427312,0.0,0.0
13284,3320.75,73.7504,77.977,148.393,101.117,100.818,0.00201563,0.205642,20.7528,222.131,0.0267913,0.0,0.0
13448,3361.75,73.238,78.3794,150.033,101.587,101.294,0.00222531,0.204031,20.7563,219.409,0.026175,0.0,0.0
13612,3402.75,73.3526,78.1165,154.346,101.554,101.099,0.00257935,0.206123,20.7542,216.876,0.0406287,0.0,0.0
13776,3443.75,72.7248,76.9425,147.365,101.286,100.607,0.00224013,0.196893,20.7663,214.464,0.0608647,0.0,0.0
13940,3484.75,72.1748,76.9945,152.921,99.9799,99.5771,0.00224136,0.19131,20.7762,212.012,0.0365404,0.0,0.0
14104,3525.75,72.9297,77.6538,151.214,99.9461,99.83,0.00182162,0.193097,20.7714,209.65,0.010514,0.0,0.0
14268,3566.75,72.771,77.7661,150.57,101.016,100.335,0.00239881,0.201632,20.7625,207.208,0.0612044,0.0,0.0
14432,3607.75,73.4698,78.7828,150.353,101.045,100.868,0.00211743,0.213184,20.7509,204.615,0.0158644,0.0,0.0
14596,3648.75,74.714,79.3331,148.741,101.639,101.687,0.00196395,0.223415,20.7339,201.813,-0.00432202,0.0,0.0
14760,3689.75,75.9085,81.3325,149.366,99.7704,99.5837,0.00175039,0.238819,20.7218,198.78,0.016952,0.0,0.0
14924,3730.75,77.3035,83.4405,148.071,100.602,100.239,0.00179726,0.256608,20.6955,195.467,0.0326857,0.0,0.0
15088,3771.75,78.4937,84.3185,145.702,100.894,99.9889,0.00172158,0.275202,20.6815,191.854,0.0815559,0.0,0.0
15252,3812.75,79.1467,85.0343,152.273,101.579,99.7787,0.00197178,0.288829,20.6574,188.05,0.161803,0.0,0.0
15416,3853.75,80.44,86.718,143.289,100.826,99.1643,0.00224791,0.298009,20.644,184.187,0.150417,0.0,0.0
15525,3881,80.4841,86.7578,146.556,100.638,98.451,0.00239452,0.293617,20.6457,181.584,0.19882,0.0,0.0

File: Engineered_Wood_Table_Cone_HF75Scalar_230626_R1.csv
LABORATORY,FSRI
TEST IDENT,Eng_Wood_Tab_HF75_R1
OPERATOR,Marino
MATERIAL,Engineered Wood Table
ORIENTATION,Horizontal
HEAT FLUX,75
SURF AREA,0.01
C FACTOR,0.0411841
SPEC HOLDER DIFF,-566
SPECIMEN MASS,338.13
SCAN TIME,0.25
O2 DELAY TIME,11
CO DELAY TIME,11
CO2 DELAY TIME,8
FLOW FACTOR,1
SCAN COUNT,14439
TIME TO IGN,3.75
END OF TEST SCAN,13959
END OF TEST TIME,3489.75
TEST STATUS,1
PRE TEST CMT,Dimensions: 100.49 x 100.75 x 46.35 mm; with tie wires
POST TEST CMT,"Some burning occurred between the sample edge and foil due to volume shrinking. Test was after the average mass loss rate over 1 minute was less than 150 g/m^2 despite ongoing flaming combustion, in accordance with ASTM 1354. Sample charred and partly delamainted, and continued to smolder after end of test."

File: Engineered_Wood_Table_Cone_HF75Scalar_230626_R2.csv
LABORATORY,FSRI
TEST IDENT,Eng_Wood_Tab_HF75_R2
OPERATOR,Marino
MATERIAL,Engineered Wood Table
ORIENTATION,Horizontal
HEAT FLUX,75
SURF AREA,0.01
C FACTOR,0.0411841
SPEC HOLDER DIFF,-566
SPECIMEN MASS,335.83
SCAN TIME,0.25
O2 DELAY TIME,11
CO DELAY TIME,11
CO2 DELAY TIME,8
FLOW FACTOR,1
SCAN COUNT,14136
TIME TO IGN,3.75
END OF TEST SCAN,13656
END OF TEST TIME,3414
TEST STATUS,1
PRE TEST CMT,Dimensions: 100.52 x 100.74 x 46.32 mm; with tie wires
POST TEST CMT,"Some burning occurred between the sample edge and foil due to volume shrinking. Test was after the average mass loss rate over 1 minute was less than 150 g/m^2 despite ongoing flaming combustion, in accordance with ASTM 1354. Sample charred and partly delamainted, and continued to smolder after end of test."

File: Engineered_Wood_Table_Cone_HF75Scan_230626_R1.csv
Names,Time,Stack TC,Smoke TC,Exh Press,Smoke Comp,Smoke Meas,CO Meter,CO2 Meter,O2 Meter,Sample Mass,Ext Coeff,Start Test,Flame Verif
Chan Gain,,500,500,1,1,1,1,1,1,1,1,1.0,1.0
Offset,,0,0,0.135513,0,0,0,0,0,0,0,0.0,0.0
Gain,,1,1,25.011,12.9031,38.5876,1,1,1,1.00084,0.895081,1.0,1.0
Units,sec,C,C,Pa,%,%,%,%,%,g,/m,,
Baseline,,52.5107,55.3408,163.102,99.9875,99.9754,0.000970122,0.0541174,20.9356,-444.588,0.000963855,,
152,37.75,83.7651,108.086,130.149,100.42,91.7668,0.00798244,0.777521,20.1485,410.033,0.707523,0.0,0.0
304,75.75,93.3867,108.202,147.042,100.836,96.1616,0.00563453,0.55001,20.3292,402.076,0.372705,0.0,0.0
456,113.75,89.8887,99.0785,149.706,99.5657,96.9224,0.00448288,0.382032,20.5348,396.662,0.211265,0.0,0.0
608,151.75,87.6649,95.7129,146.061,99.359,96.3913,0.00361095,0.336318,20.5973,391.878,0.238088,0.0,0.0
760,189.75,85.9146,93.7165,144.633,100.203,97.8185,0.00247377,0.31136,20.6308,387.494,0.189115,0.0,0.0
912,227.75,85.2132,92.0249,144.766,100.283,98.571,0.00284933,0.294326,20.6504,383.351,0.135207,0.0,0.0
1064,265.75,85.0906,92.2536,147.304,100.2,98.823,0.00209339,0.284241,20.6605,379.457,0.108653,0.0,0.0
1216,303.75,85.1942,90.8321,144.232,100.667,99.5602,0.00235236,0.268763,20.6802,375.764,0.0868404,0.0,0.0
1368,341.75,84.05,89.8711,150.838,100.808,100.299,0.00224762,0.254472,20.6998,372.271,0.0397831,0.0,0.0
1520,379.75,82.6369,88.3333,147.654,100.834,100.274,0.00212919,0.240223,20.7134,369.049,0.043712,0.0,0.0
1672,417.75,81.7002,87.2371,147.773,100.111,99.4742,0.00181168,0.228066,20.7291,365.846,0.0501364,0.0,0.0
1824,455.75,81.2148,86.7605,147.556,99.0089,98.803,0.0016764,0.218912,20.7397,362.874,0.0163458,0.0,0.0
1976,493.75,80.3197,85.8328,151.193,99.7567,99.8122,0.00157159,0.210795,20.7494,360.011,-0.00436991,0.0,0.0
2128,531.75,80.4492,85.6781,148.198,100.263,99.9076,0.0014682,0.202574,20.7589,357.229,0.0278559,0.0,0.0
2280,569.75,79.8306,85.0978,151.132,99.8839,100.064,0.00135848,0.196543,20.7644,354.567,-0.0141634,0.0,0.0
2432,607.75,79.8946,84.1039,151.106,100.377,100.436,0.0016852,0.19416,20.7693,351.974,-0.00461949,0.0,0.0
2584,645.75,79.3104,84.1171,148.693,100.703,100.269,0.00129855,0.19194,20.7748,349.472,0.0339261,0.0,0.0
2736,683.75,79.8102,84.6367,148.156,99.6559,99.0939,0.00124484,0.196416,20.7708,346.97,0.0444035,0.0,0.0
2888,721.75,79.9455,85.4866,148.246,99.8138,99.4212,0.00182673,0.201902,20.7641,344.278,0.0309387,0.0,0.0
3040,759.75,80.3778,85.9134,153.68,99.7559,99.8899,0.00159273,0.204768,20.7631,341.556,-0.010543,0.0,0.0
3192,797.75,81.0598,85.9466,145.794,99.937,99.8063,0.00133814,0.208637,20.758,338.733,0.010276,0.0,0.0
3344,835.75,82.0826,87.9242,149.44,100.827,101.09,0.00154153,0.213654,20.7533,335.831,-0.0204812,0.0,0.0
3496,873.75,82.6437,88.5219,149.874,100.805,100.511,0.00146176,0.220054,20.7442,332.828,0.0229616,0.0,0.0
3648,911.75,83.468,89.9673,146.23,100.703,100.694,0.00146801,0.229085,20.7382,329.646,0.00070757,0.0,0.0
3800,949.75,83.8305,90.5009,147.183,100.334,99.4919,0.00152166,0.236928,20.7266,326.273,0.0662029,0.0,0.0
3952,987.75,85.0251,91.4784,145.554,100.718,99.8122,0.00186269,0.258288,20.7029,322.7,0.070921,0.0,0.0
4104,1025.75,85.4191,91.1241,147.067,100.415,100.2,0.00168593,0.242828,20.7114,319.157,0.0168315,0.0,0.0
4256,1063.75,84.5399,90.6713,151.913,99.0888,98.4038,0.00169152,0.229486,20.7335,315.864,0.0544701,0.0,0.0
4408,1101.75,86.3875,92.4755,145.938,100.206,98.7783,0.0017856,0.253003,20.7061,312.281,0.112639,0.0,0.0
4560,1139.75,86.6234,93.2745,147.487,99.6129,98.1412,0.00185758,0.257599,20.6979,308.638,0.116871,0.0,0.0
4712,1177.75,87.0088,93.0796,149.286,100.039,99.3459,0.00148976,0.24488,20.7088,305.245,0.0546207,0.0,0.0
4864,1215.75,86.2744,91.8182,146.64,100.798,100.154,0.00126647,0.230645,20.7229,302.203,0.0503634,0.0,0.0
5016,1253.75,85.2148,90.5286,146.183,99.2621,98.1812,0.0017501,0.217373,20.7387,299.42,0.0859656,0.0,0.0
5168,1291.75,84.6602,89.8106,147.793,99.8587,99.6238,0.00174458,0.208301,20.7519,296.718,0.0184891,0.0,0.0
5320,1329.75,83.6802,88.6886,146.547,100.386,99.7003,0.00162447,0.197697,20.7591,294.256,0.0538073,0.0,0.0
5472,1367.75,83.2883,88.5284,146.848,99.6401,98.9973,0.00141991,0.192061,20.7688,291.874,0.0508172,0.0,0.0
5624,1405.75,82.876,88.0276,147.96,99.8362,99.6732,0.00137097,0.18774,20.7718,289.652,0.0128274,0.0,0.0
5776,1443.75,82.6248,87.4537,152.936,99.6693,99.5237,0.00135513,0.1801,20.7835,287.48,0.0114761,0.0,0.0
5928,1481.75,81.6697,87.067,150.344,100.3,100.128,0.00136012,0.17358,20.7884,285.439,0.0134675,0.0,0.0
6080,1519.75,80.8144,85.5018,154.888,100.384,100.223,0.00147702,0.169601,20.7955,283.467,0.0125845,0.0,0.0
6232,1557.75,80.26,83.9109,148.896,100.38,100.057,0.00125063,0.166061,20.801,281.485,0.0253261,0.0,0.0
6384,1595.75,79.5376,84.2209,150.127,100.24,99.9853,0.00159708,0.162994,20.8063,279.524,0.0199924,0.0,0.0
6536,1633.75,79.19,84.3351,152.052,100.212,99.9217,0.00155832,0.163354,20.8054,277.632,0.0227973,0.0,0.0
6688,1671.75,79.3358,83.5529,149.07,99.7535,99.0668,0.00158938,0.161641,20.8083,275.721,0.0542405,0.0,0.0
6840,1709.75,78.9012,83.9484,148.054,100.278,99.7274,0.00136331,0.159964,20.8093,273.859,0.0432308,0.0,0.0
6992,1747.75,78.3176,83.5448,148.139,100.129,99.8593,0.00143372,0.158723,20.808,272.008,0.0211593,0.0,0.0
7144,1785.75,78.9849,83.63,153.695,100.869,100.508,0.00147876,0.161057,20.811,270.146,0.0281431,0.0,0.0
7296,1823.75,79.1772,83.5835,147.546,100.418,99.9971,0.001457,0.161345,20.8087,268.224,0.0329652,0.0,0.0
7448,1861.75,79.1331,84.167,149.876,99.3062,98.5816,0.00173006,0.161964,20.8115,266.283,0.0574997,0.0,0.0
7600,1899.75,79.5257,84.3937,148.709,99.1967,99.0491,0.00127718,0.164719,20.8067,264.431,0.0116929,0.0,0.0
7752,1937.75,79.8579,85.012,153.908,99.5511,99.6226,0.00129587,0.168518,20.8021,262.43,-0.0056357,0.0,0.0
7904,1975.75,79.7404,84.8377,150.546,100.662,100.191,0.00132477,0.169106,20.8011,260.368,0.0367597,0.0,0.0
8056,2013.75,80.0965,85.2798,148.125,100.629,99.5531,0.0016867,0.172653,20.7979,258.306,0.0844184,0.0,0.0
8208,2051.75,79.7735,84.6206,151.538,100.332,99.7875,0.00154334,0.172303,20.799,256.254,0.0427262,0.0,0.0
8360,2089.75,80.3979,85.7408,144.697,100.547,100.532,0.00127804,0.178309,20.7912,254.093,0.00119141,0.0,0.0
8512,2127.75,80.6032,86.0591,148.42,100.872,100.438,0.00151605,0.181735,20.792,251.901,0.0339103,0.0,0.0
8664,2165.75,80.7366,86.2568,150.51,100.588,99.9559,0.001486,0.183807,20.7851,249.649,0.0494612,0.0,0.0
8816,2203.75,81.2324,87.0837,148.979,99.6704,99.095,0.00166828,0.187684,20.7816,247.387,0.045458,0.0,0.0
8968,2241.75,81.3546,86.7189,150.446,99.207,98.6216,0.00160056,0.188475,20.7807,245.055,0.046462,0.0,0.0
9120,2279.75,81.7087,87.3736,145.74,99.6208,99.234,0.00140963,0.193314,20.7749,242.733,0.0305471,0.0,0.0
9272,2317.75,82.4793,87.8818,151.206,100.163,99.7922,0.00144635,0.192129,20.7768,240.391,0.0291251,0.0,0.0
9424,2355.75,82.3799,88.884,150.007,100.422,99.5484,0.00142033,0.198288,20.7707,237.949,0.0686119,0.0,0.0
9576,2393.75,83.1804,88.4226,146.469,100.205,99.8087,0.00146212,0.202385,20.7643,235.477,0.0311,0.0,0.0
9728,2431.75,83.7173,90.4265,146.482,100.384,99.8793,0.00173452,0.207097,20.76,232.865,0.0395996,0.0,0.0
9880,2469.75,84.4289,90.681,148.381,100.095,99.6674,0.00180783,0.207617,20.7572,230.333,0.0336111,0.0,0.0
10032,2507.75,84.0557,90.7113,147.768,99.1692,98.5722,0.00144504,0.212324,20.7521,227.67,0.0474073,0.0,0.0
10184,2545.75,84.5568,90.6294,150.254,99.4259,98.5121,0.00140552,0.217495,20.7483,224.968,0.072494,0.0,0.0
10336,2583.75,84.9357,91.3819,142.498,99.3204,98.3531,0.00153566,0.218637,20.7424,222.216,0.0768366,0.0,0.0
10488,2621.75,85.163,91.3486,145.793,99.2849,98.2012,0.0015013,0.22494,20.7389,219.484,0.0861711,0.0,0.0
10640,2659.75,86.0767,91.8111,146.082,99.216,98.6158,0.00164669,0.227635,20.7352,216.661,0.0476473,0.0,0.0
10792,2697.75,86.6125,93.3793,145.029,99.5732,98.7842,0.00142785,0.228483,20.732,213.819,0.0624635,0.0,0.0
10944,2735.75,87.0797,93.5227,146.061,100.36,99.5308,0.00179502,0.231095,20.7263,210.966,0.0651698,0.0,0.0
11096,2773.75,86.8091,93.5125,141.289,100.205,99.3812,0.00160681,0.228573,20.7329,208.244,0.0647994,0.0,0.0
11248,2811.75,86.5017,92.5964,151.202,99.6389,98.6358,0.0015679,0.226517,20.7321,205.442,0.07945,0.0,0.0
11400,2849.75,87.1063,92.6582,142.437,100.352,99.0562,0.00151961,0.229449,20.7297,202.74,0.102019,0.0,0.0
11552,2887.75,87.0525,93.0273,146.572,99.9878,98.9938,0.00165539,0.235876,20.7266,199.867,0.0784483,0.0,0.0
11704,2925.75,87.8681,95.2078,144.334,100.005,98.7653,0.00170524,0.243121,20.7131,196.935,0.0979186,0.0,0.0
11856,2963.75,88.7555,95.5609,147.999,100.321,99.1068,0.00162635,0.248539,20.7072,193.892,0.0956332,0.0,0.0
12008,3001.75,89.2845,95.9922,145.146,99.674,98.0199,0.00184995,0.25077,20.7041,190.78,0.13139,0.0,0.0
12160,3039.75,89.0866,95.5232,141.993,100.083,98.2142,0.00172541,0.249584,20.7017,187.767,0.148003,0.0,0.0
12312,3077.75,88.7826,94.8866,148.257,99.6917,97.9327,0.00168059,0.245197,20.7092,184.815,0.139769,0.0,0.0
12464,3115.75,88.7196,94.765,140.341,100.187,98.2036,0.00135327,0.241407,20.7141,181.972,0.157032,0.0,0.0
12616,3153.75,88.0111,94.0959,144.452,100.132,97.8303,0.00169407,0.238627,20.7114,179.07,0.182552,0.0,0.0
12768,3191.75,88.0689,94.1801,145.589,100.457,98.4662,0.00157322,0.233276,20.7143,176.327,0.157176,0.0,0.0
12920,3229.75,87.6342,92.8947,144.124,100.851,98.3461,0.00153998,0.222113,20.7278,173.805,0.197476,0.0,0.0
13072,3267.75,86.0398,90.2589,151.465,100.589,98.8218,0.00157438,0.193497,20.7508,171.834,0.139171,0.0,0.0
13224,3305.75,82.6742,85.7089,150.754,99.5169,99.0314,0.00161323,0.133155,20.8252,170.803,0.0383917,0.0,0.0
13376,3343.75,80.2773,83.2377,151.104,99.4267,99.4731,0.00246376,0.119195,20.8409,170.152,-0.00366054,0.0,0.0
13528,3381.75,78.6079,82.3472,152.968,100.284,100.044,0.0027259,0.112921,20.8504,169.542,0.0187926,0.0,0.0
13680,3419.75,78.3129,81.8554,151.736,100.447,100.243,0.00333132,0.113987,20.85,168.941,0.0159731,0.0,0.0
13832,3457.75,77.6619,81.628,153.7,100.288,100.415,0.00335359,0.111799,20.857,168.421,-0.00992628,0.0,0.0
13984,3495.75,76.7763,80.3049,153.771,99.6405,99.1292,0.00363185,0.109606,20.8589,167.78,0.0403958,0.0,0.0
14136,3533.75,76.3878,79.8231,150.86,99.8075,99.4589,0.00391593,0.10875,20.8605,167.31,0.027467,0.0,0.0
14288,3571.75,75.1891,78.8011,147.945,100.843,100.301,0.00431827,0.106443,20.86,166.82,0.0423278,0.0,0.0
14439,3609.5,74.8546,78.6037,153.464,100.877,99.8899,0.00389658,0.103516,20.8645,166.299,0.0772324,0.0,0.0