Folder: fsri_materials_database/01_Data/Engineered_Wood_Table/Cone (part 7)

File: Engineered_Wood_Table_HRRPUA_25.csv
Time after Ignition,Engineered_Wood_Table_R1,Engineered_Wood_Table_R2,Engineered_Wood_Table_R3,Engineered_Wood_Table_R4,Engineered_Wood_Table_R5,Mean,Std. Dev.
0.0,0.1,-0.0,-2.3,1.4,1.5,0.1,1.5
14.0,145.0,93.5,48.6,54.5,73.8,83.1,38.8
28.0,276.8,248.0,259.2,213.9,241.4,247.8,23.2
42.0,232.9,199.1,217.9,202.8,205.9,211.7,13.8
56.0,216.6,181.1,182.9,190.2,181.1,190.4,15.1
70.0,191.0,159.9,164.0,166.7,171.0,170.5,12.1
84.0,154.2,137.3,149.7,157.9,149.7,149.7,7.8
98.0,129.9,121.5,140.2,137.4,138.4,133.5,7.8
112.0,121.0,104.7,123.3,130.0,126.1,121.0,9.7
126.0,116.6,93.9,113.2,120.9,107.3,110.4,10.5
140.0,113.1,84.4,105.6,107.6,105.4,103.2,11.0
154.0,105.6,74.2,98.8,99.4,90.4,93.7,12.2
168.0,99.4,69.1,94.0,87.7,85.9,87.2,11.5
182.0,94.9,65.7,88.4,84.6,83.0,83.3,10.8
196.0,99.1,62.6,85.2,80.4,75.4,80.5,13.4
210.0,96.7,59.6,80.4,72.7,72.3,76.3,13.6
224.0,92.4,57.9,76.7,71.4,67.5,73.2,12.8
238.0,88.9,55.5,72.7,66.1,66.9,70.0,12.3
252.0,89.2,54.5,69.9,66.3,63.7,68.7,12.8
266.0,86.9,50.8,65.9,64.0,62.4,66.0,13.1
280.0,88.1,50.1,64.2,61.5,61.5,65.1,14.0
294.0,86.1,49.3,65.4,60.0,60.1,64.2,13.6
308.0,87.0,48.0,62.5,58.9,57.9,62.9,14.5
322.0,87.1,47.0,61.2,59.5,57.4,62.4,14.9
336.0,84.3,47.2,60.6,57.9,58.3,61.6,13.7
350.0,84.1,45.0,59.0,55.7,56.5,60.1,14.5
364.0,80.5,45.2,60.7,57.2,56.0,59.9,12.9
378.0,82.5,44.7,57.4,56.3,55.2,59.2,14.0
392.0,79.9,43.5,58.1,56.3,52.9,58.1,13.4
406.0,80.0,42.5,57.2,53.4,52.3,57.1,13.9
420.0,76.4,40.2,54.6,53.2,52.6,55.4,13.1
434.0,75.9,36.1,55.0,52.1,51.7,54.2,14.2
448.0,75.2,33.3,54.5,51.8,51.0,53.1,14.9
462.0,73.1,33.3,52.3,48.7,50.5,51.6,14.2
476.0,73.9,30.8,52.2,46.7,51.7,51.0,15.5
490.0,71.7,28.8,46.7,45.7,46.6,47.9,15.3
504.0,68.4,28.3,43.6,41.3,40.6,44.4,14.7
518.0,68.8,23.7,36.9,33.9,42.4,41.1,16.9
532.0,69.7,20.8,37.2,28.6,31.3,37.5,19.0
546.0,68.3,21.8,33.5,27.9,29.9,36.3,18.4
560.0,67.0,22.9,38.2,30.4,26.9,37.1,17.6
574.0,63.0,23.2,39.1,29.5,26.3,36.2,16.1
588.0,55.9,24.1,33.9,29.2,25.0,33.6,13.1
602.0,55.4,22.0,31.4,29.8,27.8,33.3,12.9
616.0,51.2,29.9,31.2,30.0,27.6,34.0,9.7
630.0,49.8,27.2,31.6,29.3,26.3,32.8,9.7
644.0,46.4,28.8,31.7,29.0,,34.0,8.4
658.0,46.5,23.9,32.1,,,34.2,11.4
672.0,45.4,23.7,30.2,,,33.1,11.2
686.0,43.1,24.0,31.9,,,33.0,9.6
700.0,45.6,25.8,29.9,,,33.8,10.5
714.0,44.4,24.8,29.6,,,32.9,10.2
728.0,43.4,23.8,28.3,,,31.8,10.2
742.0,41.2,23.0,28.0,,,30.7,9.4
756.0,33.3,,29.4,,,31.4,2.7
770.0,32.5,,27.5,,,30.0,3.6
784.0,31.6,,26.8,,,29.2,3.3
798.0,31.8,,28.0,,,29.9,2.7
812.0,30.7,,29.3,,,30.0,1.0
826.0,31.5,,28.4,,,30.0,2.2
840.0,33.3,,29.2,,,31.3,2.9
854.0,32.9,,27.6,,,30.2,3.7
868.0,34.0,,27.0,,,30.5,5.0
882.0,33.6,,29.4,,,31.5,2.9
896.0,33.9,,28.9,,,31.4,3.6
910.0,32.9,,29.3,,,31.1,2.6
924.0,32.8,,28.1,,,30.4,3.3
938.0,31.8,,28.4,,,30.1,2.4
952.0,33.0,,,,,33.0,
966.0,33.9,,,,,33.9,
980.0,33.8,,,,,33.8,
994.0,34.3,,,,,34.3,
1008.0,35.5,,,,,35.5,
1022.0,33.9,,,,,33.9,
1036.0,32.9,,,,,32.9,
1050.0,37.4,,,,,37.4,
1064.0,33.8,,,,,33.8,
1078.0,32.7,,,,,32.7,
1092.0,36.3,,,,,36.3,
1106.0,37.7,,,,,37.7,
1120.0,31.9,,,,,31.9,
1134.0,34.4,,,,,34.4,
1148.0,33.3,,,,,33.3,
1162.0,36.7,,,,,36.7,
1176.0,33.9,,,,,33.9,
1190.0,40.3,,,,,40.3,
1204.0,37.1,,,,,37.1,
1218.0,38.9,,,,,38.9,
1232.0,35.9,,,,,35.9,
1246.0,37.9,,,,,37.9,
1260.0,41.7,,,,,41.7,
1274.0,41.8,,,,,41.8,
1288.0,42.3,,,,,42.3,
1302.0,40.6,,,,,40.6,
1316.0,40.8,,,,,40.8,
1330.0,44.0,,,,,44.0,
1344.0,43.9,,,,,43.9,
1358.0,45.2,,,,,45.2,
1372.0,43.0,,,,,43.0,
1386.0,47.9,,,,,47.9,
1400.0,46.7,,,,,46.7,
1414.0,48.9,,,,,48.9,
1428.0,50.3,,,,,50.3,
1442.0,54.8,,,,,54.8,
1456.0,55.5,,,,,55.5,
1470.0,55.7,,,,,55.7,
1484.0,61.1,,,,,61.1,
1498.0,59.0,,,,,59.0,
1512.0,64.3,,,,,64.3,
1526.0,64.9,,,,,64.9,
1540.0,70.3,,,,,70.3,
1554.0,71.6,,,,,71.6,
1568.0,74.3,,,,,74.3,
1582.0,75.7,,,,,75.7,
1596.0,79.5,,,,,79.5,
1610.0,79.7,,,,,79.7,
1624.0,81.0,,,,,81.0,
1638.0,80.0,,,,,80.0,
1652.0,84.1,,,,,84.1,
1666.0,86.5,,,,,86.5,
1680.0,87.2,,,,,87.2,
1694.0,84.8,,,,,84.8,
1708.0,81.3,,,,,81.3,
1722.0,75.4,,,,,75.4,
1736.0,67.7,,,,,67.7,
1750.0,72.3,,,,,72.3,
1764.0,72.7,,,,,72.7,
1778.0,74.2,,,,,74.2,
1792.0,73.4,,,,,73.4,
1806.0,75.8,,,,,75.8,
1820.0,75.1,,,,,75.1,
1834.0,78.6,,,,,78.6,
1848.0,78.0,,,,,78.0,
1862.0,80.0,,,,,80.0,
1876.0,78.3,,,,,78.3,
1890.0,78.7,,,,,78.7,
1904.0,77.3,,,,,77.3,
1918.0,78.7,,,,,78.7,
1932.0,75.1,,,,,75.1,
1946.0,75.3,,,,,75.3,
1960.0,74.6,,,,,74.6,
1974.0,73.2,,,,,73.2,
1988.0,72.1,,,,,72.1,
2002.0,79.0,,,,,79.0,
2016.0,74.3,,,,,74.3,
2030.0,69.8,,,,,69.8,
2044.0,71.8,,,,,71.8,
2058.0,71.9,,,,,71.9,
2072.0,68.6,,,,,68.6,
2086.0,70.0,,,,,70.0,
2100.0,68.9,,,,,68.9,
2114.0,68.7,,,,,68.7,
2128.0,73.5,,,,,73.5,
2142.0,71.8,,,,,71.8,
2156.0,72.7,,,,,72.7,
2170.0,73.1,,,,,73.1,
2184.0,74.6,,,,,74.6,
2198.0,74.0,,,,,74.0,
2212.0,71.5,,,,,71.5,
2226.0,76.9,,,,,76.9,
2240.0,81.1,,,,,81.1,
2254.0,79.5,,,,,79.5,
2268.0,80.7,,,,,80.7,
2282.0,85.8,,,,,85.8,
2296.0,83.9,,,,,83.9,
2310.0,84.2,,,,,84.2,
2324.0,87.0,,,,,87.0,
2338.0,86.1,,,,,86.1,
2352.0,85.4,,,,,85.4,
2366.0,83.7,,,,,83.7,
2380.0,85.8,,,,,85.8,
2394.0,88.1,,,,,88.1,
2408.0,88.3,,,,,88.3,
2422.0,87.1,,,,,87.1,
2436.0,85.3,,,,,85.3,
2450.0,84.6,,,,,84.6,
2464.0,80.9,,,,,80.9,
2478.0,79.6,,,,,79.6,
2492.0,77.7,,,,,77.7,
2506.0,76.9,,,,,76.9,
2520.0,78.0,,,,,78.0,
2534.0,78.5,,,,,78.5,
2548.0,77.3,,,,,77.3,
2562.0,76.5,,,,,76.5,
2576.0,75.0,,,,,75.0,
2590.0,75.5,,,,,75.5,
2604.0,74.6,,,,,74.6,
2618.0,77.3,,,,,77.3,
2632.0,81.5,,,,,81.5,
2646.0,81.3,,,,,81.3,
2660.0,81.2,,,,,81.2,
2674.0,79.2,,,,,79.2,
2688.0,83.7,,,,,83.7,
2702.0,83.5,,,,,83.5,
2716.0,91.5,,,,,91.5,
2730.0,90.6,,,,,90.6,
2744.0,95.5,,,,,95.5,
2758.0,91.2,,,,,91.2,
2772.0,90.6,,,,,90.6,
2786.0,92.1,,,,,92.1,
2800.0,91.5,,,,,91.5,
2814.0,92.4,,,,,92.4,
2828.0,93.8,,,,,93.8,
2842.0,92.4,,,,,92.4,
2856.0,93.5,,,,,93.5,
2870.0,90.7,,,,,90.7,
2884.0,91.4,,,,,91.4,
2898.0,91.7,,,,,91.7,
2912.0,88.7,,,,,88.7,
2926.0,87.8,,,,,87.8,
2940.0,88.1,,,,,88.1,
2954.0,86.5,,,,,86.5,
2968.0,83.7,,,,,83.7,
2982.0,83.0,,,,,83.0,
2996.0,79.9,,,,,79.9,
3010.0,79.6,,,,,79.6,
3024.0,81.6,,,,,81.6,
3038.0,82.5,,,,,82.5,
3052.0,78.3,,,,,78.3,
3066.0,78.7,,,,,78.7,
3080.0,74.8,,,,,74.8,
3094.0,79.0,,,,,79.0,
3108.0,75.4,,,,,75.4,
3122.0,76.7,,,,,76.7,
3136.0,74.2,,,,,74.2,
3150.0,71.5,,,,,71.5,
3164.0,67.9,,,,,67.9,
3178.0,70.3,,,,,70.3,
3192.0,71.7,,,,,71.7,
3206.0,72.5,,,,,72.5,
3220.0,73.6,,,,,73.6,
3234.0,75.3,,,,,75.3,
3248.0,73.2,,,,,73.2,
3262.0,79.1,,,,,79.1,
3276.0,79.8,,,,,79.8,
3290.0,79.3,,,,,79.3,
3304.0,80.5,,,,,80.5,
3318.0,78.3,,,,,78.3,
3332.0,80.5,,,,,80.5,
3346.0,81.8,,,,,81.8,
3360.0,82.3,,,,,82.3,
3374.0,82.1,,,,,82.1,
3388.0,84.6,,,,,84.6,
3402.0,88.3,,,,,88.3,
3416.0,89.0,,,,,89.0,
3430.0,87.9,,,,,87.9,
3444.0,88.6,,,,,88.6,
3458.0,89.8,,,,,89.8,
3472.0,89.3,,,,,89.3,
3486.0,90.5,,,,,90.5,
3500.0,93.7,,,,,93.7,
3514.0,93.5,,,,,93.5,
3528.0,91.9,,,,,91.9,
3542.0,89.3,,,,,89.3,
3556.0,94.1,,,,,94.1,
3570.0,95.5,,,,,95.5,
3584.0,90.3,,,,,90.3,
3598.0,89.2,,,,,89.2,
3612.0,87.3,,,,,87.3,
3626.0,83.9,,,,,83.9,
3640.0,83.8,,,,,83.8,
3654.0,81.7,,,,,81.7,
3668.0,79.4,,,,,79.4,
3682.0,78.4,,,,,78.4,
3696.0,79.3,,,,,79.3,
3710.0,76.0,,,,,76.0,
3724.0,76.6,,,,,76.6,
3738.0,73.7,,,,,73.7,
3752.0,74.9,,,,,74.9,
3766.0,74.9,,,,,74.9,
3780.0,75.2,,,,,75.2,
3794.0,75.0,,,,,75.0,
3808.0,75.1,,,,,75.1,
3822.0,76.7,,,,,76.7,
3836.0,74.1,,,,,74.1,
3850.0,77.2,,,,,77.2,
3864.0,77.5,,,,,77.5,
3878.0,80.6,,,,,80.6,
3892.0,77.7,,,,,77.7,
3906.0,78.7,,,,,78.7,
3920.0,76.0,,,,,76.0,
3934.0,78.5,,,,,78.5,
3948.0,78.6,,,,,78.6,
3962.0,80.7,,,,,80.7,
3976.0,79.7,,,,,79.7,
3990.0,80.9,,,,,80.9,
4004.0,81.9,,,,,81.9,
4018.0,85.2,,,,,85.2,
4032.0,83.6,,,,,83.6,
4046.0,86.0,,,,,86.0,
4060.0,89.7,,,,,89.7,
4074.0,89.4,,,,,89.4,
4088.0,88.6,,,,,88.6,
4102.0,91.8,,,,,91.8,
4116.0,93.8,,,,,93.8,
4130.0,92.0,,,,,92.0,
4144.0,92.1,,,,,92.1,
4154.5,94.0,,,,,94.0,

File: Engineered_Wood_Table_HRRPUA_50.csv
Time after Ignition,Engineered_Wood_Table_R1,Engineered_Wood_Table_R2,Engineered_Wood_Table_R3,Mean,Std. Dev.
0.0,2.5,16.8,9.8,9.7,7.1
12.5,15.1,70.4,47.5,44.3,27.8
25.0,177.7,235.2,260.8,224.6,42.6
37.5,234.6,273.2,294.2,267.4,30.2
50.0,269.2,280.8,261.0,270.3,10.0
62.5,247.9,245.4,232.0,241.8,8.6
75.0,227.8,213.8,198.1,213.2,14.9
87.5,195.3,183.9,178.8,186.0,8.5
100.0,166.4,167.2,159.5,164.4,4.3
112.5,152.1,151.7,145.5,149.8,3.7
125.0,143.7,141.1,137.2,140.6,3.3
137.5,133.3,136.2,134.6,134.7,1.4
150.0,127.2,129.3,128.5,128.3,1.0
162.5,122.4,123.5,122.5,122.8,0.6
175.0,117.8,121.1,118.3,119.1,1.8
187.5,113.6,117.0,116.8,115.8,1.9
200.0,109.6,111.8,113.2,111.6,1.8
212.5,107.4,110.3,113.5,110.4,3.1
225.0,105.9,107.4,110.9,108.0,2.6
237.5,102.9,104.4,106.0,104.4,1.6
250.0,101.8,101.8,104.1,102.5,1.3
262.5,97.7,98.5,100.8,99.0,1.6
275.0,98.6,101.0,98.8,99.5,1.3
287.5,94.9,97.0,97.2,96.3,1.3
300.0,94.8,96.3,95.9,95.6,0.8
312.5,94.6,92.4,94.6,93.9,1.3
325.0,90.7,92.4,94.3,92.5,1.8
337.5,89.6,89.4,92.4,90.5,1.7
350.0,88.0,86.3,88.6,87.6,1.2
362.5,86.7,84.4,86.4,85.8,1.3
375.0,85.5,84.3,86.5,85.4,1.1
387.5,85.8,82.6,84.6,84.3,1.6
400.0,84.4,81.0,82.6,82.7,1.7
412.5,86.1,80.7,82.0,82.9,2.8
425.0,83.5,77.9,79.4,80.3,2.9
437.5,80.1,78.4,78.3,79.0,1.0
450.0,78.2,76.9,78.7,77.9,0.9
462.5,78.3,74.8,75.8,76.3,1.8
475.0,77.8,73.9,73.9,75.2,2.3
487.5,77.3,74.4,75.1,75.6,1.5
500.0,74.2,73.5,73.4,73.7,0.4
512.5,71.0,70.9,70.7,70.9,0.2
525.0,71.0,71.5,70.2,70.9,0.6
537.5,69.5,70.6,69.7,69.9,0.6
550.0,69.3,71.1,67.7,69.4,1.7
562.5,68.3,68.0,67.3,67.9,0.5
575.0,67.4,68.4,66.3,67.4,1.1
587.5,68.0,65.8,65.7,66.5,1.3
600.0,64.6,65.8,65.6,65.3,0.6
612.5,65.6,66.7,65.2,65.8,0.8
625.0,65.2,66.3,64.5,65.3,0.9
637.5,63.1,64.0,61.7,62.9,1.2
650.0,62.6,63.7,63.1,63.1,0.6
662.5,62.4,64.1,60.9,62.5,1.6
675.0,61.6,60.7,62.6,61.6,0.9
687.5,61.4,60.7,62.6,61.5,0.9
700.0,59.6,61.3,60.6,60.5,0.8
712.5,58.8,61.9,60.5,60.4,1.5
725.0,58.0,60.1,60.2,59.4,1.2
737.5,57.9,59.8,61.4,59.7,1.8
750.0,56.9,60.2,59.6,58.9,1.8
762.5,57.1,61.5,60.3,59.6,2.3
775.0,57.6,60.3,59.3,59.0,1.4
787.5,58.1,61.3,61.4,60.3,1.9
800.0,58.3,61.3,59.3,59.6,1.6
812.5,58.2,60.6,59.2,59.3,1.2
825.0,59.6,61.5,57.3,59.5,2.1
837.5,57.3,62.8,58.1,59.4,2.9
850.0,59.8,60.8,60.5,60.4,0.5
862.5,59.8,63.0,60.5,61.1,1.7
875.0,61.0,61.6,61.3,61.3,0.3
887.5,60.1,62.2,58.9,60.4,1.7
900.0,59.3,61.7,61.1,60.7,1.2
912.5,61.3,62.8,59.9,61.3,1.4
925.0,61.3,62.4,61.6,61.8,0.6
937.5,60.7,61.7,61.7,61.4,0.6
950.0,61.0,61.2,61.6,61.2,0.3
962.5,60.2,62.7,62.8,61.9,1.5
975.0,61.0,61.8,61.2,61.3,0.4
987.5,60.2,63.6,64.5,62.8,2.3
1000.0,61.4,62.6,62.7,62.2,0.8
1012.5,61.8,64.2,62.6,62.8,1.2
1025.0,61.1,62.7,62.2,62.0,0.8
1037.5,60.7,65.2,63.8,63.2,2.3
1050.0,60.6,64.5,64.3,63.1,2.2
1062.5,61.1,64.9,65.1,63.7,2.2
1075.0,61.8,65.2,66.3,64.4,2.3
1087.5,62.3,67.1,65.2,64.9,2.4
1100.0,65.9,67.9,64.7,66.2,1.6
1112.5,63.5,66.8,64.6,64.9,1.7
1125.0,62.6,67.9,64.9,65.2,2.7
1137.5,63.1,69.9,66.6,66.6,3.4
1150.0,64.1,71.2,67.5,67.6,3.5
1162.5,64.7,69.6,67.4,67.2,2.4
1175.0,64.8,71.1,67.9,68.0,3.2
1187.5,66.1,72.0,67.7,68.6,3.1
1200.0,66.9,74.6,70.5,70.6,3.8
1212.5,68.6,76.3,70.9,71.9,4.0
1225.0,73.3,77.6,71.8,74.2,3.0
1237.5,74.3,77.8,73.4,75.2,2.3
1250.0,76.9,80.3,76.1,77.8,2.2
1262.5,77.8,81.8,77.3,79.0,2.5
1275.0,78.8,83.0,76.8,79.5,3.2
1287.5,77.5,82.5,79.5,79.8,2.6
1300.0,75.1,81.3,80.1,78.8,3.3
1312.5,75.6,82.2,81.1,79.6,3.6
1325.0,76.6,80.7,81.0,79.4,2.5
1337.5,76.7,84.5,82.3,81.2,4.0
1350.0,76.8,87.1,83.0,82.3,5.2
1362.5,79.1,90.2,86.8,85.4,5.7
1375.0,78.6,90.5,86.5,85.2,6.1
1387.5,78.1,89.8,87.1,85.0,6.1
1400.0,80.9,88.8,87.7,85.8,4.3
1412.5,78.1,90.9,85.2,84.7,6.4
1425.0,77.6,87.1,86.2,83.7,5.3
1437.5,78.9,86.4,88.4,84.6,5.0
1450.0,75.2,83.3,91.1,83.2,7.9
1462.5,74.6,82.3,95.2,84.0,10.4
1475.0,74.0,76.6,97.1,82.6,12.6
1487.5,74.7,77.1,100.1,84.0,14.0
1500.0,75.7,76.8,101.1,84.5,14.3
1512.5,77.1,76.4,101.2,84.9,14.1
1525.0,73.8,77.6,99.7,83.7,14.0
1537.5,71.6,75.9,100.1,82.6,15.3
1550.0,72.2,75.4,99.4,82.3,14.9
1562.5,69.5,71.6,97.4,79.5,15.5
1575.0,68.5,74.0,94.5,79.0,13.7
1587.5,65.9,72.0,93.7,77.2,14.6
1600.0,67.0,73.6,93.6,78.1,13.9
1612.5,66.2,72.0,92.5,76.9,13.8
1625.0,65.4,68.5,93.4,75.8,15.4
1637.5,64.8,69.7,92.2,75.6,14.6
1650.0,64.7,70.8,87.3,74.3,11.7
1662.5,61.6,68.1,90.5,73.4,15.1
1675.0,60.8,67.3,88.5,72.2,14.5
1687.5,61.8,66.5,86.2,71.5,13.0
1700.0,60.2,65.2,87.4,70.9,14.5
1712.5,60.8,65.1,88.6,71.5,15.0
1725.0,61.1,64.8,87.1,71.0,14.1
1737.5,61.7,63.4,85.8,70.3,13.4
1750.0,61.4,63.8,85.5,70.2,13.3
1762.5,58.1,62.3,87.5,69.3,15.9
1775.0,59.3,62.2,87.2,69.6,15.4
1787.5,58.9,60.6,86.8,68.8,15.6
1800.0,58.0,61.0,87.2,68.7,16.1
1812.5,57.5,62.4,86.3,68.8,15.4
1825.0,56.6,59.9,86.3,67.6,16.3
1837.5,55.4,57.8,85.9,66.3,16.9
1850.0,55.0,57.2,86.1,66.1,17.4
1862.5,54.9,55.5,84.7,65.1,17.0
1875.0,54.3,55.8,83.7,64.6,16.6
1887.5,55.0,56.4,88.1,66.5,18.7
1900.0,50.0,55.0,86.2,63.7,19.6
1912.5,47.4,54.8,84.5,62.3,19.6
1925.0,51.1,54.3,81.9,62.4,17.0
1937.5,50.9,54.7,83.2,62.9,17.7
1950.0,48.9,53.1,81.5,61.1,17.7
1962.5,49.2,52.7,78.2,60.0,15.8
1975.0,49.9,52.0,75.7,59.2,14.3
1987.5,46.6,50.6,75.1,57.4,15.4
2000.0,45.4,50.3,73.9,56.5,15.2
2012.5,48.6,51.8,72.8,57.8,13.2
2025.0,45.6,50.9,71.0,55.8,13.4
2037.5,45.1,50.0,68.6,54.6,12.4
2050.0,45.0,48.3,67.9,53.7,12.4
2062.5,42.7,48.6,67.3,52.9,12.8
2075.0,43.3,48.1,66.9,52.8,12.4
2087.5,42.6,45.9,66.4,51.6,12.9
2100.0,41.6,48.2,64.3,51.4,11.7
2112.5,42.4,48.6,63.5,51.5,10.9
2125.0,42.4,46.6,64.4,51.2,11.7
2137.5,41.0,45.2,62.6,49.6,11.5
2150.0,40.8,45.5,60.9,49.1,10.5
2162.5,39.9,48.3,63.4,50.5,11.9
2175.0,41.5,46.2,61.1,49.6,10.2
2187.5,40.7,47.0,60.8,49.5,10.3
2200.0,39.3,46.8,60.2,48.8,10.6
2212.5,41.3,47.1,57.7,48.7,8.3
2225.0,41.5,46.8,58.3,48.9,8.6
2237.5,42.0,46.0,60.0,49.3,9.4
2250.0,40.9,46.0,59.4,48.8,9.6
2262.5,39.2,43.0,58.3,46.8,10.1
2275.0,38.7,45.2,59.0,47.6,10.3
2287.5,39.3,46.5,56.9,47.6,8.9
2300.0,38.0,47.4,57.4,47.6,9.7
2312.5,38.3,47.1,55.5,47.0,8.6
2325.0,38.0,46.2,55.9,46.7,9.0
2337.5,38.6,47.9,55.3,47.3,8.4
2350.0,40.4,43.0,58.4,47.2,9.7
2362.5,40.0,44.6,56.6,47.1,8.5
2375.0,39.6,43.2,55.5,46.1,8.4
2387.5,39.1,46.1,56.1,47.1,8.5
2400.0,41.2,45.3,57.8,48.1,8.6
2412.5,40.5,48.2,57.4,48.7,8.5
2425.0,39.2,46.8,56.6,47.6,8.7
2437.5,40.8,45.1,57.9,47.9,8.9
2450.0,40.4,44.4,57.3,47.4,8.8
2462.5,40.3,43.7,58.0,47.3,9.4
2475.0,41.3,47.4,58.1,49.0,8.5
2487.5,40.4,47.9,59.3,49.2,9.5
2500.0,42.1,47.4,58.3,49.3,8.3
2512.5,41.1,46.5,58.9,48.8,9.1
2525.0,41.8,46.6,58.2,48.9,8.4
2537.5,42.9,46.8,57.9,49.2,7.8
2550.0,42.7,46.2,59.7,49.6,9.0
2562.5,42.8,45.9,60.3,49.7,9.3
2575.0,44.4,44.4,59.4,49.4,8.7
2587.5,43.5,43.9,60.3,49.2,9.6
2600.0,44.3,45.1,60.0,49.8,8.8
2612.5,43.4,47.4,59.7,50.2,8.5
2625.0,43.9,47.7,61.0,50.9,9.0
2637.5,44.9,47.6,61.5,51.4,8.9
2650.0,45.5,46.5,60.6,50.9,8.4
2662.5,48.4,48.3,61.2,52.6,7.4
2675.0,49.9,48.1,64.5,54.2,9.0
2687.5,48.9,46.0,63.8,52.9,9.6
2700.0,48.5,47.0,61.9,52.5,8.2
2712.5,47.9,47.0,64.2,53.0,9.7
2725.0,49.3,47.1,63.5,53.3,8.9
2737.5,51.0,47.2,66.2,54.8,10.0
2750.0,53.5,50.3,67.7,57.2,9.3
2762.5,54.4,48.8,65.6,56.3,8.5
2775.0,53.1,49.5,69.6,57.4,10.7
2787.5,56.6,47.5,69.2,57.7,10.9
2800.0,55.2,51.3,68.5,58.3,9.1
2812.5,53.8,50.2,68.2,57.4,9.5
2825.0,56.1,51.3,67.9,58.4,8.6
2837.5,57.1,51.8,70.4,59.8,9.6
2850.0,58.9,51.4,72.1,60.8,10.5
2862.5,56.1,51.6,71.9,59.8,10.7
2875.0,56.7,54.5,74.9,62.1,11.2
2887.5,61.7,53.4,74.6,63.2,10.7
2900.0,60.9,55.4,75.1,63.8,10.2
2912.5,61.0,55.7,77.0,64.6,11.1
2925.0,62.1,54.3,77.2,64.5,11.6
2937.5,61.2,56.1,78.0,65.1,11.5
2950.0,64.3,56.3,77.0,65.9,10.4
2962.5,63.3,56.6,81.4,67.1,12.8
2975.0,66.6,56.9,80.4,68.0,11.8
2987.5,66.3,57.2,81.6,68.4,12.3
3000.0,67.8,58.7,81.1,69.2,11.3
3012.5,67.7,59.5,84.5,70.6,12.8
3025.0,66.5,60.7,84.2,70.5,12.2
3037.5,66.7,61.7,85.7,71.4,12.7
3050.0,68.3,61.1,88.8,72.7,14.3
3062.5,68.4,63.3,88.8,73.5,13.5
3075.0,69.1,64.7,88.4,74.1,12.6
3087.5,71.3,63.0,91.9,75.4,14.9
3100.0,72.1,66.4,88.8,75.8,11.6
3112.5,72.2,66.8,92.3,77.1,13.4
3125.0,72.0,66.2,90.7,76.3,12.8
3137.5,70.8,66.8,91.8,76.5,13.4
3150.0,72.5,70.9,92.2,78.5,11.9
3162.5,71.0,68.4,95.2,78.2,14.8
3175.0,74.9,70.5,94.9,80.1,13.0
3187.5,73.6,72.8,97.1,81.2,13.8
3200.0,73.5,72.6,94.0,80.0,12.1
3212.5,73.4,73.0,92.9,79.8,11.4
3225.0,74.5,73.9,92.3,80.3,10.4
3237.5,74.3,72.2,93.7,80.1,11.9
3250.0,72.3,73.5,93.9,79.9,12.1
3262.5,72.0,73.8,94.8,80.2,12.7
3275.0,72.2,72.8,91.7,78.9,11.1
3287.5,72.3,75.3,89.8,79.1,9.3
3300.0,77.9,76.5,87.9,80.8,6.3
3312.5,74.1,76.2,90.2,80.2,8.7
3325.0,76.2,76.5,88.8,80.5,7.2
3337.5,74.9,78.0,87.2,80.0,6.4
3350.0,76.3,75.4,87.6,79.8,6.8
3362.5,76.6,79.6,83.1,79.8,3.2
3375.0,78.8,75.5,88.5,80.9,6.7
3387.5,76.5,76.0,85.1,79.2,5.2
3400.0,76.1,77.1,83.1,78.8,3.8
3412.5,78.2,75.3,83.1,78.9,4.0
3425.0,78.6,77.7,82.4,79.6,2.5
3437.5,78.9,79.2,81.3,79.8,1.3
3450.0,78.1,78.8,81.1,79.3,1.6
3462.5,76.4,77.6,79.4,77.8,1.5
3475.0,77.9,76.7,83.0,79.2,3.4
3487.5,76.6,76.2,80.7,77.8,2.5
3500.0,76.3,74.2,81.8,77.4,4.0
3512.5,75.9,74.4,80.8,77.0,3.3
3525.0,77.0,75.8,81.0,77.9,2.7
3537.5,75.2,74.8,83.9,78.0,5.1
3550.0,78.4,73.3,85.0,78.9,5.9
3562.5,78.1,,89.9,84.0,8.4
3575.0,78.9,,87.5,83.2,6.1
3587.5,76.9,,91.2,84.1,10.1
3600.0,80.5,,92.6,86.5,8.5
3612.5,80.5,,97.2,88.9,11.8
3625.0,80.2,,96.9,88.6,11.9
3637.5,81.8,,101.7,91.8,14.1
3650.0,78.9,,100.9,89.9,15.6
3662.5,86.1,,103.1,94.6,12.1
3675.0,84.0,,105.4,94.7,15.1
3687.5,83.8,,110.7,97.2,19.0
3700.0,87.5,,111.9,99.7,17.2
3712.5,87.1,,114.8,100.9,19.6
3725.0,86.8,,117.6,102.2,21.8
3730.0,87.7,,118.6,103.1,21.9