Folder: fsri_materials_database/01_Data/Engineered_Wood_Table/Cone (part 2)

File: Engineered_Wood_Table_Cone_HF25Scan_230626_R2.csv
Names,Time,Stack TC,Smoke TC,Exh Press,Smoke Comp,Smoke Meas,CO Meter,CO2 Meter,O2 Meter,Sample Mass,Ext Coeff,Start Test,Flame Verif
Chan Gain,,500,500,1,1,1,1,1,1,1,1,1.0,1.0
Offset,,0,0,0.21304,0,0,0,0,0,0,0,0.0,0.0
Gain,,1,1,25.011,13.9504,14.5362,1,1,1,1.0009,1.0389,1.0,1.0
Units,sec,C,C,Pa,%,%,%,%,%,g,/m,,
Baseline,,40.9167,42.3553,162.15,101.062,97.7051,0.000700803,0.0465114,20.9708,-444.538,0.307889,,
38,9.25,40.235,41.3852,162.349,101.069,97.8636,0.000612335,0.048075,20.9701,424.143,0.293714,0.0,0.0
76,18.75,40.5371,41.8347,162.798,101.061,97.7922,0.000324453,0.0479776,20.9713,424.093,0.299598,0.0,0.0
114,28.25,40.9968,42.399,162.895,101.057,97.534,0.000625462,0.0472874,20.9729,424.123,0.323344,0.0,0.0
152,37.75,41.28,42.1478,165.183,101.027,96.925,0.0007358,0.0478173,20.9747,423.973,0.377706,0.0,0.0
190,47.25,41.1896,42.9612,159.296,101.019,97.1503,0.0020121,0.0618825,20.9721,423.883,0.355851,0.0,0.0
228,56.75,41.1155,42.6987,160.18,100.949,97.1605,0.00126537,0.0518138,20.9677,423.773,0.348554,0.0,0.0
266,66.25,41.2425,42.5577,161.398,100.905,96.9001,0.00111379,0.0487798,20.9737,423.723,0.36909,0.0,0.0
304,75.75,41.5443,43.0432,158.983,100.828,96.4308,0.000979168,0.0488759,20.9758,423.643,0.406376,0.0,0.0
342,85.25,41.543,42.9462,162.788,100.745,96.449,0.000805213,0.0500045,20.9729,423.522,0.397111,0.0,0.0
380,94.75,41.7116,43.2347,159.067,100.683,95.6026,0.000966483,0.0523668,20.9727,423.362,0.471893,0.0,0.0
418,104.25,42.0303,42.9387,163.771,100.617,95.5586,0.00123746,0.0555888,20.9722,423.182,0.470027,0.0,0.0
456,113.75,42.1182,43.6135,160.389,100.529,94.8431,0.00176476,0.0587611,20.9731,422.972,0.530577,0.0,0.0
494,123.25,42.041,43.6078,162.467,100.447,93.6489,0.00252293,0.0622554,20.9713,422.622,0.6386,0.0,0.0
532,132.75,43.2675,46.754,142.771,100.353,94.376,0.00329428,0.0654431,20.9708,422.051,0.559618,0.0,1.0
570,142.25,52.0342,63.9105,141.204,100.219,93.1916,0.00431874,0.291049,20.8964,420.089,0.662567,0.0,0.0
608,151.75,56.7267,69.4418,144.751,100.067,92.0417,0.00684449,0.534158,20.4349,418.488,0.761799,0.0,0.0
646,161.25,59.8132,70.3656,147.145,99.8541,92.8624,0.00605572,0.445431,20.5065,416.896,0.661535,0.0,0.0
684,170.75,61.266,71.6711,146.508,99.6438,92.6521,0.00567941,0.409297,20.5576,415.615,0.66298,0.0,0.0
722,180.25,62.734,71.9173,150.439,99.4347,93.5025,0.0048578,0.386634,20.5824,414.304,0.56058,0.0,0.0
760,189.75,63.2556,71.534,145.082,99.3006,93.6312,0.00386813,0.358324,20.6116,413.113,0.53575,0.0,0.0
798,199.25,63.2188,70.1849,144.137,99.2112,94.3205,0.00365701,0.325852,20.645,412.032,0.46069,0.0,0.0
836,208.75,62.428,68.4055,155.543,99.1665,94.4594,0.00267665,0.296844,20.6821,411.171,0.443178,0.0,0.0
874,218.25,62.135,67.6285,152.33,99.1631,94.2429,0.00245949,0.27321,20.7093,410.28,0.463774,0.0,0.0
912,227.75,61.6887,65.9668,148.658,99.2257,94.5876,0.0023719,0.254531,20.7312,409.45,0.436254,0.0,0.0
950,237.25,60.9226,65.0397,153.17,99.376,94.6763,0.00212446,0.233821,20.7529,408.779,0.441502,0.0,0.0
988,246.75,60.56,64.2699,151.159,99.5258,94.9766,0.0019468,0.21727,20.774,408.099,0.426372,0.0,0.0
1026,256.25,59.6141,62.8165,154.533,99.614,94.671,0.00192407,0.206787,20.7883,407.448,0.463813,0.0,0.0
1064,265.75,58.7705,61.8499,156.42,99.6182,95.127,0.00195218,0.195833,20.799,406.767,0.420409,0.0,0.0
1102,275.25,58.3941,61.0543,151.409,99.6587,95.1443,0.00219522,0.186214,20.8152,406.237,0.42245,0.0,0.0
1140,284.75,57.6081,60.4303,156.456,99.7272,95.1248,0.00214938,0.177121,20.8264,405.716,0.430586,0.0,0.0
1178,294.25,57.1315,59.5686,158.251,99.8319,95.9069,0.00235116,0.171258,20.8332,405.096,0.365534,0.0,0.0
1216,303.75,56.5022,58.5855,154.056,99.9613,95.536,0.00243369,0.164759,20.8403,404.645,0.412647,0.0,0.0
1254,313.25,55.5785,58.2022,149.432,100.15,95.6212,0.00233163,0.161154,20.8449,404.145,0.421743,0.0,0.0
1292,322.75,55.5126,57.4793,153.184,100.313,95.8745,0.00278784,0.158063,20.8502,403.665,0.412459,0.0,0.0
1330,332.25,54.8141,57.0194,152.59,100.412,96.3234,0.00234633,0.154325,20.855,403.074,0.378816,0.0,0.0
1368,341.75,54.5434,56.8303,156.774,100.433,96.1047,0.00255501,0.152599,20.8559,402.684,0.401462,0.0,0.0
1406,351.25,54.2537,56.2648,158.671,100.405,95.8927,0.00237533,0.150107,20.8582,402.233,0.41908,0.0,0.0
1444,360.75,54.3503,57.0238,153.243,100.402,96.0329,0.0025756,0.14834,20.8616,401.693,0.405421,0.0,0.0
1482,370.25,53.8031,56.2241,157.055,100.332,95.9663,0.0031216,0.146264,20.864,401.322,0.405436,0.0,0.0
1520,379.75,53.4066,55.863,157.924,100.261,96.0617,0.00300979,0.143979,20.8672,400.872,0.389885,0.0,0.0
1558,389.25,53.3605,54.9326,153.208,100.212,95.6478,0.00315111,0.141059,20.8699,400.402,0.424822,0.0,0.0
1596,398.75,53.4198,55.2386,156.78,100.307,95.7432,0.0036116,0.138821,20.8732,399.971,0.424369,0.0,0.0
1634,408.25,53.0077,54.9957,154.577,100.283,95.5267,0.00359686,0.138328,20.874,399.571,0.442792,0.0,0.0
1672,417.75,52.3763,54.8262,160.956,100.291,95.9703,0.00358225,0.136341,20.874,399.15,0.401343,0.0,0.0
1710,427.25,52.7012,54.2443,157.262,100.262,95.5001,0.00358528,0.135353,20.8771,398.7,0.443474,0.0,0.0
1748,436.75,52.1003,54.4169,156.349,100.21,95.7529,0.00338139,0.133685,20.8784,398.23,0.414578,0.0,0.0
1786,446.25,52.6087,53.9711,155.64,100.155,95.4841,0.0038692,0.132565,20.8803,397.769,0.435243,0.0,0.0
1824,455.75,51.4564,53.8285,158.872,100.067,96.1021,0.00382526,0.130875,20.8805,397.409,0.368393,0.0,0.0
1862,465.25,51.9001,53.2514,157.345,99.9865,95.3963,0.00449791,0.130326,20.8801,397.029,0.428276,0.0,0.0
1900,474.75,51.887,53.1675,156.667,99.9069,95.4948,0.0037913,0.13069,20.882,396.508,0.411614,0.0,0.0
1938,484.25,51.8063,53.527,156.77,99.8732,95.5152,0.00442925,0.129362,20.8834,396.188,0.406599,0.0,0.0
1976,493.75,51.6439,53.7294,158.869,99.8404,95.8789,0.00441485,0.128926,20.8847,395.777,0.368967,0.0,0.0
2014,503.25,51.6371,53.5585,158.318,99.8328,95.7521,0.00468829,0.127167,20.885,395.357,0.380333,0.0,0.0
2052,512.75,51.3096,53.4651,158.356,99.8715,95.5027,0.00492552,0.126185,20.8865,394.887,0.407629,0.0,0.0
2090,522.25,51.3359,53.0107,158.438,100.083,96.3252,0.005442,0.12328,20.8885,394.566,0.34877,0.0,0.0
2128,531.75,51.5462,52.9689,159.894,100.26,95.583,0.00520122,0.122756,20.8887,394.146,0.435368,0.0,0.0
2166,541.25,50.9106,52.7339,157.929,100.426,96.8025,0.00599564,0.120692,20.892,393.685,0.334877,0.0,0.0
2204,550.75,50.9742,52.568,158.907,100.588,95.7379,0.00533511,0.1195,20.8937,393.275,0.450329,0.0,0.0
2242,560.25,50.6895,52.4361,157.406,100.674,96.0457,0.00639329,0.114666,20.8994,392.955,0.428898,0.0,0.0
2280,569.75,50.6272,51.9847,154.999,100.706,96.1482,0.0068765,0.111236,20.9028,392.534,0.42207,0.0,0.0
2318,579.25,50.0204,51.6082,161.414,100.698,96.2551,0.0068008,0.110383,20.9068,392.034,0.411248,0.0,0.0
2356,588.75,50.1693,51.4398,160.677,100.633,95.9921,0.00692297,0.109416,20.9062,391.694,0.430292,0.0,0.0
2394,598.25,49.6544,51.205,156.736,100.54,95.8173,0.00757725,0.103585,20.9127,391.353,0.438492,0.0,0.0
2432,607.75,49.6025,50.8072,163.881,100.402,95.2273,0.00715833,0.106115,20.9111,391.003,0.482191,0.0,0.0
2470,617.25,48.9571,50.2306,154.558,100.238,95.7064,0.00791419,0.101251,20.9151,390.533,0.421567,0.0,0.0
2508,626.75,49.1136,50.0483,169.505,100.313,95.9756,0.00828192,0.102159,20.917,390.222,0.402773,0.0,0.0
2546,636.25,48.5167,50.0523,157.042,100.379,94.9167,0.00837108,0.100848,20.9174,389.812,0.50987,0.0,0.0
2584,645.75,48.0887,49.1741,157.806,100.479,95.5555,0.00820339,0.0935449,20.9223,389.462,0.45786,0.0,0.0
2622,655.25,47.8329,48.7853,157.797,100.547,95.2663,0.00895192,0.0909231,20.9302,389.051,0.491662,0.0,0.0
2660,664.75,47.8107,48.5195,159.646,100.638,96.0684,0.00934133,0.0904292,20.9321,388.711,0.423475,0.0,0.0
2698,674.25,47.8268,48.6673,158.207,100.774,95.8448,0.00954639,0.0903822,20.9302,388.311,0.457036,0.0,0.0
2736,683.75,47.8126,48.8544,159.756,100.909,95.815,0.00917439,0.0901237,20.9299,387.89,0.472021,0.0,0.0
2774,693.25,47.1494,48.7112,160.59,101.032,95.9787,0.00880183,0.0905262,20.9277,387.61,0.467569,0.0,0.0
2812,702.75,46.8539,48.2752,155.146,101.093,96.1389,0.00883744,0.0903667,20.9258,387.21,0.457944,0.0,0.0
2850,712.25,46.9463,48.4569,159.963,101.105,95.8346,0.00892833,0.0905222,20.9297,386.859,0.487872,0.0,0.0
2888,721.75,47.6414,48.5819,162.14,101.102,96.244,0.00892242,0.0906563,20.925,386.469,0.44875,0.0,0.0
2926,731.25,46.6337,48.3173,157.643,101.115,96.2906,0.00912871,0.0899392,20.9296,386.139,0.445531,0.0,0.0
2964,740.75,47.1401,47.9674,160.813,101.134,96.2653,0.00890014,0.0896996,20.9216,385.788,0.449613,0.0,0.0
3002,750.25,46.8353,48.0113,155.414,101.139,96.5044,0.00862995,0.0898139,20.9141,385.368,0.427504,0.0,0.0
3040,759.75,46.1852,47.6908,157.39,101.159,96.8078,0.00888354,0.0897972,20.9209,385.058,0.400621,0.0,0.0
3078,769.25,46.3949,47.9336,159.306,101.161,96.1637,0.00884495,0.0898449,20.9116,384.657,0.46169,0.0,0.0
3116,778.75,46.902,48.2097,159.106,101.16,96.1637,0.00874893,0.0904012,20.9239,384.327,0.461574,0.0,0.0
3154,788.25,46.988,48.1154,159.925,101.148,96.3922,0.00879018,0.0897294,20.9261,383.947,0.438914,0.0,0.0
3192,797.75,46.3823,47.5133,160.012,101.166,96.3904,0.00904877,0.0896017,20.9259,383.646,0.440654,0.0,0.0
3230,807.25,46.3143,48.3316,161.87,101.138,96.6424,0.00890288,0.089871,20.926,383.296,0.414408,0.0,0.0
3268,816.75,46.3973,47.8571,160.844,101.086,96.7409,0.00888745,0.0901436,20.9257,382.866,0.400407,0.0,0.0
3306,826.25,46.3086,48.3471,161.124,101.017,96.543,0.0090293,0.0898827,20.9236,382.545,0.412843,0.0,0.0
3344,835.75,46.5119,47.8004,160.454,100.992,96.7888,0.0088317,0.0892483,20.9233,382.245,0.387446,0.0,0.0
3382,845.25,46.3218,47.7394,163.246,101.007,97.0132,0.00843589,0.0889035,20.9249,381.895,0.36768,0.0,0.0
3420,854.75,46.2099,47.9563,160.625,100.959,96.4995,0.00878423,0.0895627,20.9252,381.464,0.411723,0.0,0.0
3458,864.25,46.8535,47.6553,160.246,100.898,96.6743,0.00905603,0.0895974,20.9274,381.174,0.389735,0.0,0.0
3496,873.75,46.8311,47.8451,159.317,100.788,96.4587,0.00899223,0.0888023,20.9276,380.464,0.400118,0.0,0.0
3534,883.25,46.6272,47.8868,158.737,100.688,96.6379,0.00832502,0.0909985,20.9271,380.494,0.374149,0.0,0.0
3572,892.75,46.0092,47.0645,159.422,100.582,95.9135,0.0083861,0.105575,20.9125,380.093,0.433083,0.0,0.0
3610,902.25,46.2529,48.0699,158.19,100.553,96.1442,0.00896981,0.106311,20.9033,379.843,0.408569,0.0,0.0
3614,903.25,46.4002,47.7838,162.158,100.554,96.1464,0.00898274,0.105153,20.9037,379.813,0.408513,0.0,0.0

File: Engineered_Wood_Table_Cone_HF25Scan_230626_R3.csv
Names,Time,Stack TC,Smoke TC,Exh Press,Smoke Comp,Smoke Meas,CO Meter,CO2 Meter,O2 Meter,Sample Mass,Ext Coeff,Start Test,Flame Verif
Chan Gain,,500,500,1,1,1,1,1,1,1,1,1.0,1.0
Offset,,0,0,0.21304,0,0,0,0,0,0,0,0.0,0.0
Gain,,1,1,25.011,13.9822,15.1223,1,1,1,1.0009,1.0389,1.0,1.0
Units,sec,C,C,Pa,%,%,%,%,%,g,/m,,
Baseline,,44.0408,45.2007,160.983,100.34,100.353,0.000307259,0.04632,20.9739,-444.831,-0.00114584,,
50,12.25,43.1884,44.4217,156.502,100.663,100.518,0.000162569,0.0589377,20.9644,416.376,0.0131281,0.0,0.0
100,24.75,43.5013,45.1871,159.024,100.744,100.054,0.000659711,0.0599855,20.9583,416.296,0.062657,0.0,0.0
150,37.25,43.4947,45.3976,159.355,100.788,99.9128,0.000252802,0.0543459,20.9593,416.166,0.079461,0.0,0.0
200,49.75,43.9701,45.1571,158.79,100.8,99.5321,0.00173121,0.0524714,20.9545,416.046,0.115373,0.0,0.0
250,62.25,44.451,45.5281,162.381,100.795,100.043,0.0011266,0.0496168,20.9663,415.896,0.068173,0.0,0.0
300,74.75,44.0601,45.6312,160.126,100.798,99.8837,0.000473877,0.0490575,20.9665,415.745,0.083039,0.0,0.0
350,87.25,43.6294,45.6248,157.793,100.793,98.921,0.00062054,0.0506364,20.9695,415.645,0.170874,0.0,0.0
400,99.75,44.6433,46.0923,157.308,100.773,98.8103,0.00112135,0.0552321,20.9713,415.385,0.179231,0.0,0.0
450,112.25,44.5551,46.1438,162.882,100.728,98.011,0.00192809,0.0600914,20.9684,415.005,0.249159,0.0,0.0
500,124.75,45.1537,46.6825,160.653,100.589,95.8973,0.00315578,0.0637359,20.9773,414.654,0.435245,0.0,0.0
550,137.25,52.2577,63.0013,141.22,100.437,95.4852,0.00406821,0.13335,20.9638,412.703,0.460798,0.0,0.0
600,149.75,60.0141,71.8336,146.653,100.341,95.7275,0.0074643,0.508874,20.4457,410.471,0.42891,0.0,0.0
650,162.25,63.0703,74.9786,146.231,100.261,96.1544,0.00737534,0.424637,20.5136,408.529,0.381112,0.0,0.0
700,174.75,64.9608,74.0007,150.069,100.179,97.2541,0.00546763,0.388842,20.5543,406.837,0.270023,0.0,0.0
750,187.25,65.9303,73.711,146.976,100.23,97.7775,0.00423771,0.337909,20.6192,405.316,0.225734,0.0,0.0
800,199.75,65.7089,72.2316,145.18,100.364,98.4088,0.00342737,0.311746,20.6529,403.855,0.179256,0.0,0.0
850,212.25,65.5886,71.5023,151.745,100.556,98.0064,0.00262853,0.290453,20.6767,402.604,0.234056,0.0,0.0
900,224.75,64.9098,69.5438,151.924,100.753,98.8837,0.00203728,0.265748,20.6996,401.453,0.170691,0.0,0.0
950,237.25,64.1687,68.7567,149.178,100.884,99.1716,0.00183727,0.245038,20.7274,400.322,0.155992,0.0,0.0
1000,249.75,63.3146,67.4833,147.418,100.942,99.2344,0.00180862,0.229886,20.7471,399.351,0.155507,0.0,0.0
1050,262.25,62.1597,65.9573,151.424,101.021,99.0138,0.00167439,0.219769,20.7645,398.49,0.182872,0.0,0.0
1100,274.75,61.698,65.606,151.815,101.04,99.0507,0.00149779,0.210268,20.7727,397.619,0.181245,0.0,0.0
1150,287.25,61.2485,64.6435,153.22,101.012,99.0886,0.00160652,0.205352,20.7799,396.768,0.175185,0.0,0.0
1200,299.75,60.6702,63.519,148.933,100.913,98.8283,0.0015636,0.196999,20.7906,395.908,0.190258,0.0,0.0
1250,312.25,60.0366,62.9619,150.195,100.636,98.8366,0.00190169,0.189242,20.8009,395.117,0.164411,0.0,0.0
1300,324.75,59.6568,62.0792,154.014,100.6875,99.1513,0.00163324,0.18147,20.8106,394.296,0.14011,0.0,0.0
1350,337.25,58.7841,61.5961,153.16,100.866,99.4111,0.00178596,0.175269,20.8151,393.655,0.13239,0.0,0.0
1400,349.75,58.3888,61.2691,152.654,101.016,99.4518,0.00203463,0.16992,20.8227,392.975,0.142227,0.0,0.0
1450,362.25,58.1066,61.1075,153.632,101.216,99.5925,0.00188698,0.165148,20.8307,392.324,0.147376,0.0,0.0
1500,374.75,57.5064,60.2214,155.552,101.439,99.833,0.00272942,0.1598,20.8382,391.674,0.145471,0.0,0.0
1550,387.25,57.4964,59.3032,159.33,101.514,99.904,0.0027769,0.154884,20.8422,391.043,0.14573,0.0,0.0
1600,399.75,57.3406,59.2286,156.374,101.479,99.5081,0.00299456,0.150747,20.8464,390.363,0.178703,0.0,0.0
1650,412.25,57.0448,59.3473,150.652,101.301,99.203,0.00313218,0.149517,20.8505,389.772,0.19069,0.0,0.0
1700,424.75,56.2771,59.0343,153.636,101.113,99.0835,0.00324149,0.147988,20.8531,389.171,0.184771,0.0,0.0
1750,437.25,56.3657,58.3606,154.737,100.987,99.1439,0.00323776,0.144745,20.8529,388.621,0.167861,0.0,0.0
1800,449.75,55.9069,58.1639,153.089,100.855,99.2829,0.00322398,0.144959,20.8557,388.03,0.143156,0.0,0.0
1850,462.25,55.6515,58.0787,157.371,100.593,99.0004,0.00382186,0.142525,20.8579,387.45,0.145413,0.0,0.0
1900,474.75,55.117,57.7287,155.268,100.273,98.3663,0.00391984,0.140653,20.8586,386.899,0.174932,0.0,0.0
1950,487.25,54.3916,57.2635,155.89,100.179,98.3714,0.00378515,0.140258,20.8583,386.299,0.165926,0.0,0.0
2000,499.75,54.7763,57.4429,153.907,100.02,98.376,0.00409947,0.139406,20.8624,385.668,0.151047,0.0,0.0
2050,512.25,54.9069,57.5521,158.669,99.8089,98.1222,0.0041806,0.13711,20.8651,385.128,0.155325,0.0,0.0
2100,524.75,54.7443,56.9377,157.276,99.7163,97.9173,0.004077,0.1367,20.8629,384.597,0.165918,0.0,0.0
2150,537.25,54.4555,56.7261,157.145,99.7253,97.897,0.00432007,0.134856,20.8645,384.007,0.168626,0.0,0.0
2200,549.75,54.6061,56.5278,154.551,99.8298,98.0442,0.00416249,0.134633,20.8683,383.466,0.164481,0.0,0.0
2250,562.25,54.2188,56.6494,154.955,99.9297,98.2426,0.00468555,0.13385,20.8707,382.896,0.155165,0.0,0.0
2300,574.75,54.4231,56.1421,154.675,100.155,98.5657,0.00439124,0.132214,20.8694,382.275,0.145809,0.0,0.0
2350,587.25,54.4521,55.6912,153.157,100.392,98.6958,0.00470803,0.129921,20.8719,381.715,0.155307,0.0,0.0
2400,599.75,53.7023,56.1747,153.879,100.479,98.6063,0.00487455,0.129829,20.8745,381.194,0.171437,0.0,0.0
2450,612.25,53.3469,55.2528,156.422,100.5,98.2588,0.00544619,0.121148,20.8761,380.694,0.205545,0.0,0.0
2500,624.75,52.6881,53.0758,156.339,100.605,98.2533,0.00689269,0.113989,20.8924,380.203,0.215534,0.0,0.0
2550,637.25,51.8773,53.0967,156.481,100.822,98.2773,0.00853896,0.105717,20.9059,379.633,0.232962,0.0,0.0
2600,649.75,51.9854,52.3538,158.403,100.939,97.9685,0.0079703,0.102424,20.9028,379.152,0.272236,0.0,0.0
2650,662.25,51.3475,52.0815,158.335,100.959,98.5745,0.00800053,0.0991134,20.9056,378.622,0.217816,0.0,0.0
2700,674.75,50.4558,51.337,156.569,100.995,98.6188,0.00788584,0.099352,20.91,378.131,0.216956,0.0,0.0
2750,687.25,50.5228,51.0171,156.61,100.993,98.8223,0.00833832,0.103975,20.9021,377.731,0.198014,0.0,0.0
2800,699.75,50.1537,51.4657,156.887,100.984,98.6848,0.00786585,0.101004,20.899,377.221,0.209935,0.0,0.0
2850,712.25,49.7803,51.5204,156.245,100.938,98.856,0.00809142,0.0965708,20.909,376.79,0.189978,0.0,0.0
2900,724.75,49.6326,50.5569,154.924,100.872,98.3077,0.00771975,0.0937643,20.9107,376.32,0.234688,0.0,0.0
2950,737.25,49.4049,50.7678,163.871,100.705,98.4845,0.00791132,0.0933197,20.9158,375.769,0.203231,0.0,0.0
3000,749.75,49.4297,51.1221,156.568,100.508,97.9842,0.00814649,0.0935131,20.9132,375.289,0.231783,0.0,0.0
3050,762.25,48.7982,50.5521,162.156,100.428,98.1983,0.00838905,0.0940591,20.9136,374.909,0.204614,0.0,0.0
3100,774.75,49.1609,50.751,158.788,100.355,97.8088,0.00837255,0.0929966,20.9147,374.438,0.23417,0.0,0.0
3150,787.25,48.3997,50.7863,155.069,100.382,97.8347,0.00822963,0.0916598,20.9132,373.988,0.23428,0.0,0.0
3200,799.75,49.5134,50.8007,162.228,100.479,98.0862,0.00831745,0.0916119,20.9163,373.527,0.219633,0.0,0.0
3250,812.25,48.9222,50.6457,159.196,100.708,98.5809,0.00866078,0.0919709,20.9141,373.037,0.194543,0.0,0.0
3300,824.75,48.9576,50.2773,155.508,101.013,98.8758,0.00878637,0.0915622,20.9174,372.586,0.194888,0.0,0.0
3350,837.25,49.1657,49.9557,153.453,101.15,98.5938,0.00842235,0.0894041,20.9181,372.086,0.233225,0.0,0.0
3400,849.75,48.7802,50.6128,158.324,101.116,98.4955,0.00858924,0.0887326,20.9197,371.626,0.239278,0.0,0.0
3450,862.25,48.6323,50.2686,160.925,101.066,98.7558,0.00860472,0.0879423,20.9212,371.275,0.210765,0.0,0.0
3500,874.75,48.1901,50.0721,157.529,101.013,98.4443,0.00821298,0.0883775,20.9212,370.825,0.234707,0.0,0.0
3550,887.25,48.3859,49.9181,156.198,100.917,99.1273,0.00866506,0.0885267,20.9203,370.364,0.16307,0.0,0.0
3600,899.75,48.8687,49.6423,157.084,100.719,98.5029,0.00815558,0.0872673,20.9216,369.944,0.202759,0.0,0.0
3650,912.25,48.3092,49.8703,161.895,100.787,98.5265,0.00806853,0.0882662,20.9216,369.514,0.206719,0.0,0.0
3700,924.75,48.5662,49.7835,159.866,100.877,98.5292,0.00843855,0.0883439,20.9209,369.033,0.214639,0.0,0.0
3750,937.25,48.2623,49.996,158.118,100.933,98.9575,0.00820339,0.0877992,20.9196,368.633,0.180123,0.0,0.0
3800,949.75,48.4313,49.7381,156.381,101.046,98.7951,0.00836192,0.0892208,20.9207,368.283,0.205337,0.0,0.0
3850,962.25,48.4938,50.0925,155.066,101.22,98.9681,0.00871006,0.0890694,20.9189,367.872,0.205037,0.0,0.0
3900,974.75,48.9929,49.8179,158.042,101.356,98.9677,0.00847273,0.0896419,20.9216,367.472,0.217326,0.0,0.0
3950,987.25,48.5786,49.6537,158.914,101.48,99.5602,0.00869404,0.0885373,20.9221,367.041,0.174044,0.0,0.0
4000,999.75,48.1527,49.7172,158.513,101.565,99.5547,0.00844744,0.0893752,20.923,366.611,0.182173,0.0,0.0
4050,1012.25,48.2311,49.6214,158.077,101.593,99.6345,0.00843213,0.0890141,20.9182,366.301,0.177394,0.0,0.0
4100,1024.75,48.6304,49.6888,157.484,101.636,99.6202,0.00853216,0.0892905,20.9187,365.93,0.182606,0.0,0.0
4150,1037.25,48.5306,50.5983,155.891,101.648,99.5141,0.00886861,0.0898526,20.9186,365.52,0.193316,0.0,0.0
4200,1049.75,47.7418,49.6945,160.998,101.571,99.5136,0.00867185,0.0883222,20.9203,365.12,0.18647,0.0,0.0
4250,1062.25,48.2572,49.9715,159.908,101.46,99.2145,0.00856627,0.0899886,20.9205,364.719,0.203976,0.0,0.0
4300,1074.75,48.4763,49.6954,155.626,101.354,99.1107,0.00917129,0.0901909,20.9188,364.289,0.203932,0.0,0.0
4350,1087.25,47.8487,49.2603,157.491,101.287,99.3032,0.00876954,0.090282,20.9201,363.909,0.180267,0.0,0.0
4400,1099.75,47.8114,49.6151,157.026,101.267,99.3027,0.00895573,0.0903751,20.9203,363.588,0.178543,0.0,0.0
4450,1112.25,48.0948,49.665,158.271,101.268,99.0009,0.00888657,0.0901586,20.9201,363.208,0.20636,0.0,0.0
4500,1124.75,48.3271,49.5248,158.451,101.357,99.3696,0.00896876,0.0902912,20.9172,362.828,0.180425,0.0,0.0
4550,1137.25,47.957,49.3836,156.736,101.45,99.5191,0.00915869,0.0894445,20.9188,362.447,0.175083,0.0,0.0
4600,1149.75,48.2008,49.3018,157.035,101.482,99.4762,0.00902336,0.0899311,20.9195,361.967,0.181888,0.0,0.0
4650,1162.25,48.2366,48.9181,158.821,101.449,99.2524,0.00893766,0.08949,20.9196,361.627,0.199465,0.0,0.0
4700,1174.75,47.3492,49.6393,157.021,101.36,99.0978,0.00907368,0.0894089,20.9188,361.216,0.205657,0.0,0.0
4750,1187.25,47.8639,49.3421,162.064,101.255,99.1379,0.0093409,0.0901656,20.9211,360.866,0.192561,0.0,0.0
4795,1198.5,47.9706,49.7982,157.199,101.145,98.7789,0.00938252,0.0909449,20.9204,360.476,0.215752,0.0,0.0