Folder: fsri_materials_database/01_Data/Engineered_Wood_Table/Cone

Note: README.md
# Materials and Products Database
### Repository of materials and products properties and fire test data to improve fire modeling and fire investigation.

This project was supported in part by Award No. 2019-DU-BX-0018, awarded by the National Institute of Justice, Office of Justice Programs, U.S. Department of Justice. The opinions, findings, and conclusions or recommendations expressed in this publication / program / exhibition are those of the author(s) and do not necessarily reflect those of the Department of Justice.

***
***

__Cite this database:__ "McKinnon, M., Weinschenk, C., Dow, N., DiDomizio, M., and Madrzykowski, D. Materials and Products Database (Version 1.0.0), Fire Safety Research Institute, UL Research Institutes. Columbia, MD 21045, 2023."

__Cite the Technical Reference Guide:__ "McKinnon, M., Weinschenk, C., and Madrzykowski, D. Materials and Products Database - Technical Reference Guide, Fire Safety Research Institute, UL Research Institutes. Columbia, MD 21045, 2023."

__Cite the User Guide:__ "McKinnon, M., and Weinschenk, C. Materials and Products Database - User Guide, Fire Safety Research Institute, UL Research Institutes. Columbia, MD 21045, 2023."

***
***

## Database Structure

## 01_Data/
Raw data generated from each apparatus are included here in plain-text format. The data is organized first by material, next by the short name of test apparatus used, and where applicable additional filtering by test settings.

### Test Apparatus and Data File Structure
- __Cone Calorimeter__ (Cone)
    + Data file structure includes the material, the short name for the apparatus, heat flux setting and scan/scalar, date of test, and replicate number. Scan is for the raw output data and scalar is for the initial conditions and high-level test parameters. 
        * Example: __MDF_Cone_HF25scalar_210323_R1__ stands for the first replicate of scalar data generated from a medium density fiber board test in cone calorimeter exposed to 25 kW/m<sup>2</sup> on March 23, 2021.
    + A _Cone_Notes.csv_ is generated for each material from the __plot_Cone_data.py__ script. For materials whose experiments deviated from typical behavior relevant pictures are included in the respective material directory.
- __Fourier Transform Infrared Spectrometer__ (FTIR)
    + The FTIR directory contains subdirectories for the Attenuated Total Reflectance method (ATR) and the Integrating Sphere (IS)
    + Data file structure for the ATR experiment files includes the material, the abbreviated name for the apparatus, date of test, and replicate number. 
        * Example: __MDF_ATR_210323_R5__ stands for the fifth replicate of data collected with the ATR accessory conducted on June 8, 2021.
    + Data file structure for the IS experiment files includes the material, the abbreviated name for the apparatus, the measurand, whether the test is a sample measurement or standard reference, date of test, and replicate number.
        * Example: __OSB_IS_REFLECT_MEAS_2

File: Engineered_Wood_Table_Cone_HF25Scalar_230626_R1.csv
LABORATORY,FSRI
TEST IDENT,Eng_Wood_Tab_HF25_R1
OPERATOR,Marino
MATERIAL,Engineered Wood Table
ORIENTATION,Horizontal
HEAT FLUX,25
SURF AREA,0.01
C FACTOR,0.040763
SPEC HOLDER DIFF,-566
SPECIMEN MASS,348.47
SCAN TIME,0.25
O2 DELAY TIME,11
CO DELAY TIME,11
CO2 DELAY TIME,8
FLOW FACTOR,1
SCAN COUNT,17549
TIME TO IGN,112.75
END OF TEST SCAN,17069
END OF TEST TIME,4267.25
TEST STATUS,1
PRE TEST CMT,Dimensions: 100.43 x 100.7 x 46.47 mm
POST TEST CMT,"Intermittant flashes of flame prior to sustained ignition. Sample charred. Sample began to swell/surface delaminated around 30 minutes, see reference photo. Some burning occurred between the sample edge and foil due to volume shrinking."

File: Engineered_Wood_Table_Cone_HF25Scalar_230626_R2.csv
LABORATORY,FSRI
TEST IDENT,Eng_Wood_Tab_HF25_R2
OPERATOR,Marino
MATERIAL,Engineered Wood Table
ORIENTATION,Horizontal
HEAT FLUX,25
SURF AREA,0.01
C FACTOR,0.0414826
SPEC HOLDER DIFF,-566
SPECIMEN MASS,346.77
SCAN TIME,0.25
O2 DELAY TIME,11
CO DELAY TIME,11
CO2 DELAY TIME,8
FLOW FACTOR,1
SCAN COUNT,3614
TIME TO IGN,130
END OF TEST SCAN,3534
END OF TEST TIME,883.5
TEST STATUS,0
PRE TEST CMT,Dimensions: 100.11 x 100.64 x 46.59 mm; with tie wires
POST TEST CMT,Sample self extinguished with unburned mass remaining and did not reignite after reinserting the spark ignitor. See post test picture.

File: Engineered_Wood_Table_Cone_HF25Scalar_230626_R3.csv
LABORATORY,FSRI
TEST IDENT,Eng_Wood_Tab_HF25_R3
OPERATOR,Marino
MATERIAL,Engineered Wood Table
ORIENTATION,Horizontal
HEAT FLUX,25
SURF AREA,0.01
C FACTOR,0.0414826
SPEC HOLDER DIFF,-566
SPECIMEN MASS,341.1
SCAN TIME,0.25
O2 DELAY TIME,11
CO DELAY TIME,11
CO2 DELAY TIME,8
FLOW FACTOR,1
SCAN COUNT,4795
TIME TO IGN,127
END OF TEST SCAN,4315
END OF TEST TIME,1078.75
TEST STATUS,1
PRE TEST CMT,Dimensions: 100.90 x 100.47 x 46.35 mm; with tie wires
POST TEST CMT,Intermittant flashes of flame prior to sustained ignition. Sample self-extinguished with unburned mass remaining and did not reignite after the spark ignitor was re-inserted at ~10:10.

File: Engineered_Wood_Table_Cone_HF25Scalar_230626_R4.csv
LABORATORY,FSRI
TEST IDENT,Eng_Wood_Tab_HF25_R4
OPERATOR,Marino
MATERIAL,Engineered Wood Table
ORIENTATION,Horizontal
HEAT FLUX,25
SURF AREA,0.01
C FACTOR,0.0414826
SPEC HOLDER DIFF,-566
SPECIMEN MASS,355.74
SCAN TIME,0.25
O2 DELAY TIME,11
CO DELAY TIME,11
CO2 DELAY TIME,8
FLOW FACTOR,1
SCAN COUNT,3523
TIME TO IGN,114.5
END OF TEST SCAN,3043
END OF TEST TIME,760.75
TEST STATUS,1
PRE TEST CMT,Dimensions: 100.5 x 100.08 x 46.50 mm; with tie wires
POST TEST CMT, Sample self-extinguished with unburned mass remaining and did not reignite after the spark ignitor was re-inserted.

File: Engineered_Wood_Table_Cone_HF25Scalar_230626_R5.csv
LABORATORY,FSRI
TEST IDENT,Eng_Wood_Tab_HF25_R5
OPERATOR,Marino
MATERIAL,Engineered Wood Table
ORIENTATION,Horizontal
HEAT FLUX,25
SURF AREA,0.01
C FACTOR,0.0414826
SPEC HOLDER DIFF,-566
SPECIMEN MASS,345.22
SCAN TIME,0.25
O2 DELAY TIME,11
CO DELAY TIME,11
CO2 DELAY TIME,8
FLOW FACTOR,1
SCAN COUNT,3514
TIME TO IGN,116.5
END OF TEST SCAN,3034
END OF TEST TIME,758.5
TEST STATUS,1
PRE TEST CMT,Dimensions: 100.85 x 100.10 x 46.63 mm; with tie wires
POST TEST CMT,"Intermittant flashes of flame prior to sustained ignition. Sample self-extinguished with unburned mass remaining and did not reignite after the spark ignitor was re-inserted at ~10:29."

File: Engineered_Wood_Table_Cone_HF25Scan_230626_R1.csv
Names,Time,Stack TC,Smoke TC,Exh Press,Smoke Comp,Smoke Meas,CO Meter,CO2 Meter,O2 Meter,Sample Mass,Ext Coeff,Start Test,Flame Verif
Chan Gain,,500,500,1,1,1,1,1,1,1,1,1.0,1.0
Offset,,0,0,0.245636,0,0,0,0,0,0,0,0.0,0.0
Gain,,1,1,25.011,13.9213,14.958,1,1,1,1.00094,1.03834,1.0,1.0
Units,sec,C,C,Pa,%,%,%,%,%,g,/m,,
Baseline,,21.7165,23.0494,149.185,100.674,100.73,0.000258862,0.04908,20.9592,-444.354,-0.00502879,,
184,45.75,21.4657,23.8335,148.04,100.582,100.206,0.00249025,0.0605071,20.9619,395.343,0.034108,0.0,0.0
368,91.75,23.0782,24.2513,148.705,101.48,98.967,0.000994298,0.056042,20.9602,394.622,0.228351,0.0,0.0
552,137.75,39.8376,54.1411,131.072,101.318,97.3419,0.00634149,0.583234,20.3467,388.686,0.364614,0.0,0.0
736,183.75,46.1932,53.9536,139.363,100.942,99.3034,0.00304461,0.378238,20.5699,382.02,0.149076,0.0,0.0
920,229.75,42.9073,47.5129,137.98,99.5571,98.3576,0.0018898,0.261518,20.7187,377.716,0.110408,0.0,0.0
1104,275.75,40.7324,44.5308,139.24,100.783,99.1893,0.00169663,0.230942,20.7534,374.063,0.145162,0.0,0.0
1288,321.75,39.5185,43.3694,138.423,100.497,99.0532,0.00144797,0.222617,20.7622,370.8,0.131824,0.0,0.0
1472,367.75,39.0974,42.3802,137.344,100.991,99.8119,0.00193683,0.207904,20.7805,367.717,0.106959,0.0,0.0
1656,413.75,38.723,41.5167,141.17,101.394,100.04,0.00223422,0.205269,20.783,364.704,0.122487,0.0,0.0
1840,459.75,37.8399,41.8067,139.327,100.965,99.3865,0.00278171,0.198168,20.789,361.831,0.143528,0.0,0.0
2024,505.75,37.2347,40.3377,140.333,101.079,99.9343,0.00300761,0.193873,20.7971,358.978,0.103768,0.0,0.0
2208,551.75,36.5198,39.1472,140.061,101.399,100.548,0.00355992,0.183476,20.8056,356.356,0.0767246,0.0,0.0
2392,597.75,36.3053,38.5361,140.874,101.411,100.07,0.0041195,0.176848,20.8153,353.794,0.121232,0.0,0.0
2576,643.75,35.9854,38.547,140.586,101.167,99.8872,0.00441284,0.172453,20.822,351.341,0.115938,0.0,0.0
2760,689.75,34.928,36.8829,141.355,100.685,99.6544,0.00548938,0.160726,20.8325,348.969,0.0936741,0.0,0.0
2944,735.75,33.5199,34.7736,146.452,101.01,99.7471,0.00792023,0.14245,20.8631,346.777,0.114562,0.0,0.0
3128,781.75,32.2433,33.7107,143.811,100.199,98.9651,0.00843446,0.132107,20.871,344.735,0.112857,0.0,0.0
3312,827.75,30.7455,32.9022,140.779,100.512,99.9128,0.00814133,0.131811,20.8719,342.723,0.0544726,0.0,0.0
3496,873.75,29.9314,30.9327,145.18,100.752,99.2692,0.0103496,0.112686,20.8961,340.831,0.135026,0.0,0.0
3680,919.75,29.0844,30.0864,149.348,100.757,99.3769,0.0102283,0.11153,20.8978,339,0.125647,0.0,0.0
3864,965.75,28.2512,30.0777,145.317,100.556,99.3719,0.00975331,0.112181,20.8944,337.268,0.107884,0.0,0.0
4048,1011.75,28.599,29.4504,143.532,100.369,99.3983,0.0102058,0.113188,20.8941,335.566,0.0885486,0.0,0.0
4232,1057.75,28.2543,29.9569,142.635,100.01,99.0688,0.0102233,0.114008,20.897,333.835,0.0861633,0.0,0.0
4416,1103.75,28.5561,29.3289,142.139,99.5613,98.6703,0.0103863,0.114671,20.8913,332.083,0.0818859,0.0,0.0
4600,1149.75,28.834,29.8425,142.249,99.5346,99.0587,0.0106328,0.113609,20.8947,330.271,0.0436471,0.0,0.0
4784,1195.75,28.2564,30.2341,139.718,100.532,99.4686,0.0105026,0.114095,20.8932,328.44,0.0968245,0.0,0.0
4968,1241.75,28.1547,29.8213,144.185,99.8371,99.2883,0.00966422,0.116787,20.886,326.598,0.0501975,0.0,0.0
5152,1287.75,27.8311,30.3247,143.207,100.105,99.3719,0.0102315,0.117685,20.8927,324.746,0.0669625,0.0,0.0
5336,1333.75,28.7069,30.8287,143.271,100.165,99.7261,0.00984744,0.118761,20.8856,322.814,0.0400405,0.0,0.0
5520,1379.75,28.9363,31.3759,139.04,101.419,100.245,0.00938658,0.124689,20.8811,320.8125,0.106056,0.0,0.0
5704,1425.75,29.5486,32.2536,142.056,99.9072,98.94,0.00916322,0.127043,20.8801,318.761,0.0885981,0.0,0.0
5888,1471.75,29.4131,32.7448,140.42,100.654,99.2783,0.0084987,0.130565,20.8713,316.599,0.125389,0.0,0.0
6072,1517.75,31.0414,33.6805,143.949,100.205,99.0564,0.00886703,0.136729,20.8661,314.426,0.104961,0.0,0.0
6256,1563.75,31.668,34.3715,146.247,100.329,99.6686,0.00688574,0.152749,20.8499,312.044,0.0601944,0.0,0.0
6440,1609.75,32.5479,36.0064,138.921,100.664,99.5951,0.00755126,0.160126,20.8434,309.512,0.0972542,0.0,0.0
6624,1655.75,34.2194,38.1779,138.992,100.51,99.6439,0.00514383,0.179304,20.8176,306.849,0.0787852,0.0,0.0
6808,1701.75,35.4277,39.5733,140.313,99.7368,98.3548,0.00415273,0.190919,20.8003,304.127,0.127087,0.0,0.0
6992,1747.75,36.5364,40.6418,136.32,99.521,98.6255,0.00411041,0.196061,20.7984,301.264,0.0823227,0.0,0.0
7176,1793.75,37.98,42.025,139.396,100.387,99.6763,0.00313817,0.205419,20.7845,298.301,0.064729,0.0,0.0
7360,1839.75,37.0731,39.9492,141.32,101.388,100.131,0.00430761,0.176312,20.81,295.759,0.113648,0.0,0.0
7544,1885.75,36.3264,39.2681,137.071,100.815,99.5691,0.00465686,0.179433,20.8123,293.277,0.113271,0.0,0.0
7728,1931.75,36.7876,40.0607,140.636,100.984,99.6754,0.00450569,0.187182,20.8071,290.664,0.118772,0.0,0.0
7912,1977.75,37.2731,40.1627,135.35,100.157,98.8752,0.00402181,0.193809,20.7994,287.931,0.117313,0.0,0.0
8096,2023.75,36.8056,39.626,140.979,100.331,98.6995,0.00461246,0.191512,20.8025,285.329,0.149344,0.0,0.0
8280,2069.75,36.8617,39.9053,140.195,100.677,99.8142,0.00449907,0.179081,20.8085,282.937,0.0783912,0.0,0.0
8464,2115.75,36.6572,39.8908,137.751,100.694,99.9699,0.00471887,0.183165,20.8016,280.645,0.0657359,0.0,0.0
8648,2161.75,36.2468,38.7753,139.759,100.729,99.6412,0.00517347,0.172744,20.8166,278.352,0.0989192,0.0,0.0
8832,2207.75,35.9177,38.3378,137.731,100.707,99.5586,0.00546866,0.169285,20.8244,276.07,0.104477,0.0,0.0
9016,2253.75,35.133,39.2509,139.807,100.701,99.8498,0.00544865,0.177621,20.817,273.768,0.0773329,0.0,0.0
9200,2299.75,35.7262,39.0145,141.988,100.692,99.6353,0.00573845,0.178279,20.8108,271.446,0.09608,0.0,0.0
9384,2345.75,36.435,40.453,138.094,100.709,99.5837,0.00537105,0.185591,20.7996,269.044,0.102334,0.0,0.0
9568,2391.75,37.5335,40.8213,138.092,100.604,99.4988,0.00432284,0.197545,20.791,266.531,0.100607,0.0,0.0
9752,2437.75,37.7368,41.0148,140.022,100.321,99.072,0.00529271,0.195517,20.7853,263.979,0.114148,0.0,0.0
9936,2483.75,37.7542,41.1799,137.65,99.7865,98.6356,0.00573888,0.195176,20.7876,261.336,0.105665,0.0,0.0
10120,2529.75,37.268,41.0361,139.885,99.9386,98.7424,0.00507846,0.20248,20.7792,258.734,0.109678,0.0,0.0
10304,2575.75,37.2279,40.459,139.439,100.737,99.2641,0.00549822,0.187031,20.7995,256.252,0.134181,0.0,0.0
10488,2621.75,36.4775,39.4262,136.213,100.146,98.6283,0.00571647,0.18196,20.8031,253.989,0.139086,0.0,0.0
10672,2667.75,35.8212,39.1609,144.597,100.538,99.3472,0.00612159,0.176006,20.8087,251.737,0.108566,0.0,0.0
10856,2713.75,36.5639,39.2893,137.783,100.985,99.5864,0.0059979,0.177351,20.8054,249.525,0.126986,0.0,0.0
11040,2759.75,36.7215,39.6185,136.452,99.9224,98.8154,0.00517227,0.186565,20.794,247.263,0.101472,0.0,0.0
11224,2805.75,36.7093,40.1703,139.257,100.719,99.1692,0.005968,0.187553,20.7927,244.851,0.141245,0.0,0.0
11408,2851.75,38.3473,41.9532,140.245,100.602,99.4043,0.0054106,0.204439,20.7713,242.439,0.109107,0.0,0.0
11592,2897.75,38.675,42.5262,137.606,100.56,99.3116,0.00563213,0.203395,20.773,239.896,0.113794,0.0,0.0
11776,2943.75,38.7422,41.765,137.511,100.58,99.2441,0.00548179,0.205526,20.769,237.264,0.1218,0.0,0.0
11960,2989.75,38.7207,42.1281,141.081,100.704,99.4362,0.00527793,0.203344,20.7747,234.551,0.115407,0.0,0.0
12144,3035.75,38.8819,40.9016,142.529,100.071,98.9378,0.00578861,0.202124,20.7798,231.999,0.103747,0.0,0.0
12328,3081.75,38.0905,41.3465,141.836,99.4305,98.2777,0.00540586,0.194731,20.7897,229.406,0.106217,0.0,0.0
12512,3127.75,36.9103,40.5243,139.574,100.388,98.9976,0.00686948,0.185725,20.8045,227.004,0.127044,0.0,0.0
12696,3173.75,36.8936,40.3563,139.44,101.168,99.9411,0.00557515,0.186288,20.8007,224.562,0.111105,0.0,0.0
12880,3219.75,37.0929,39.6573,136.428,101.04,99.9721,0.00597852,0.181503,20.8094,222.169,0.0967558,0.0,0.0
13064,3265.75,35.6629,37.9548,143.339,100.652,99.3071,0.00717021,0.171269,20.8208,219.757,0.122558,0.0,0.0
13248,3311.75,35.9095,38.6282,139.247,100.919,99.5385,0.00573812,0.181514,20.8072,217.375,0.125469,0.0,0.0
13432,3357.75,36.3572,39.5902,141.288,100.94,99.8749,0.00639235,0.182087,20.8123,214.923,0.0965753,0.0,0.0
13616,3403.75,36.8562,40.0154,136.835,100.733,99.4034,0.0051884,0.190503,20.7992,212.41,0.120992,0.0,0.0
13800,3449.75,37.5921,40.6772,140.159,100.61,100,0.00466645,0.194505,20.7953,209.798,0.055417,0.0,0.0
13984,3495.75,37.5399,41.7917,138.832,100.769,99.6111,0.00403881,0.199086,20.7896,207.115,0.105283,0.0,0.0
14168,3541.75,38.5227,42.5854,141.02,101.165,100.313,0.00416614,0.208686,20.781,204.323,0.0770358,0.0,0.0
14352,3587.75,39.3508,43.0056,140.835,101.242,100.405,0.00332139,0.209681,20.7751,201.51,0.0756263,0.0,0.0
14536,3633.75,40.0996,43.7133,138.325,101.188,100.021,0.00323886,0.212999,20.7742,198.597,0.105659,0.0,0.0
14720,3679.75,40.3567,43.5876,137.476,100.933,100.203,0.00315147,0.219385,20.7647,195.815,0.0661207,0.0,0.0
14904,3725.75,39.5792,42.1717,137.856,99.447,98.106,0.00347549,0.203459,20.7836,193.132,0.123657,0.0,0.0
15088,3771.75,38.536,40.7359,141.784,100.727,99.2194,0.00388345,0.193577,20.7954,190.65,0.137365,0.0,0.0
15272,3817.75,38.0774,40.7899,141.697,100.952,99.6823,0.00410767,0.188029,20.8026,188.278,0.115272,0.0,0.0
15456,3863.75,37.4899,40.8965,138.737,101.086,100.026,0.00354295,0.184036,20.8078,185.985,0.0960263,0.0,0.0
15640,3909.75,37.9522,40.0913,137.421,99.8388,98.448,0.00453667,0.183802,20.809,183.763,0.127774,0.0,0.0
15824,3955.75,37.3937,40.5757,138.615,100.686,99.4997,0.00450884,0.186323,20.8023,181.541,0.107982,0.0,0.0
16008,4001.75,37.0454,40.4304,139.675,100.729,99.3878,0.0050353,0.185786,20.8055,179.339,0.122108,0.0,0.0
16192,4047.75,37.9141,40.6579,141.405,100.684,99.4486,0.0043517,0.188603,20.801,177.027,0.112433,0.0,0.0
16376,4093.75,37.9013,40.7007,142.936,100.38,99.15,0.00431761,0.194083,20.7952,174.575,0.112295,0.0,0.0
16560,4139.75,37.8101,41.0659,141.456,100.079,98.6424,0.00401914,0.198074,20.789,172.092,0.131712,0.0,0.0
16744,4185.75,38.7461,42.0678,139.203,99.4764,98.3484,0.00365346,0.20792,20.7795,169.45,0.103864,0.0,0.0
16928,4231.75,39.1913,42.8221,139.942,99.9586,98.9747,0.00400304,0.212162,20.7728,166.777,0.0900904,0.0,0.0
17112,4277.75,38.3132,41.7634,137.828,101.174,99.7727,0.00386008,0.2195,20.7664,163.935,0.127042,0.0,0.0
17296,4323.75,38.815,42.9394,135.72,101.328,99.8416,0.00377064,0.225838,20.7582,160.982,0.134625,0.0,0.0
17480,4369.75,39.872,43.4201,139.976,101.033,99.7005,0.00401224,0.235388,20.7589,157.949,0.120883,0.0,0.0
17549,4387,39.3122,43.3734,133.62,100.846,99.6855,0.00334991,0.233707,20.7523,156.808,0.105431,0.0,0.0