Folder: fsri_materials_database/01_Data/Engineered_Wood_Table/Cone (part 8)

File: Engineered_Wood_Table_HRRPUA_75.csv
Time after Ignition,Engineered_Wood_Table_R1,Engineered_Wood_Table_R2,Engineered_Wood_Table_R3,Mean,Std. Dev.
0.0,2.5,-0.9,8.2,3.2,4.6
11.75,39.1,23.1,48.8,37.0,13.0
23.5,250.1,258.5,347.8,285.5,54.1
35.25,366.4,403.9,417.5,396.0,26.4
47.0,369.8,389.5,357.9,372.4,16.0
58.75,312.3,329.2,308.2,316.6,11.1
70.5,283.7,287.7,245.7,272.3,23.2
82.25,249.6,246.0,222.0,239.2,15.0
94.0,214.3,219.8,203.5,212.6,8.3
105.75,191.0,198.8,195.7,195.2,3.9
117.5,177.0,193.6,183.8,184.8,8.3
129.25,172.0,180.8,179.1,177.3,4.7
141.0,164.8,175.7,172.7,171.0,5.6
152.75,158.6,173.4,170.9,167.7,7.9
164.5,156.0,162.6,165.9,161.5,5.0
176.25,150.2,161.4,161.9,157.8,6.6
188.0,145.6,151.7,157.7,151.7,6.1
199.75,141.3,150.3,156.6,149.4,7.7
211.5,140.1,146.0,153.3,146.5,6.6
223.25,136.2,145.8,149.8,143.9,7.0
235.0,135.7,140.6,147.0,141.1,5.7
246.75,133.8,137.6,144.8,138.7,5.6
258.5,132.2,135.2,138.8,135.4,3.3
270.25,129.1,136.1,138.1,134.4,4.7
282.0,124.9,129.8,136.1,130.3,5.6
293.75,124.1,126.5,137.2,129.3,7.0
305.5,120.9,125.0,135.7,127.2,7.7
317.25,117.7,122.5,130.4,123.6,6.4
329.0,113.9,118.3,129.4,120.5,8.0
340.75,110.7,116.0,126.1,117.6,7.8
352.5,111.7,112.6,121.8,115.4,5.6
364.25,107.7,111.4,120.8,113.3,6.8
376.0,106.9,109.7,120.0,112.2,6.9
387.75,102.3,105.6,116.8,108.2,7.6
399.5,101.7,104.5,118.2,108.1,8.8
411.25,101.1,101.8,114.0,105.7,7.3
423.0,97.1,100.9,116.5,104.8,10.3
434.75,98.3,96.4,114.2,103.0,9.8
446.5,95.5,95.2,110.3,100.3,8.6
458.25,91.3,95.9,114.2,100.5,12.1
470.0,91.2,94.3,109.2,98.2,9.6
481.75,91.2,90.0,105.1,95.4,8.4
493.5,91.3,91.6,104.2,95.7,7.4
505.25,89.4,89.4,104.0,94.3,8.4
517.0,86.9,91.0,101.5,93.1,7.6
528.75,87.7,89.7,100.5,92.6,6.9
540.5,84.3,89.5,99.8,91.2,7.9
552.25,83.6,87.2,98.3,89.7,7.7
564.0,83.2,87.3,97.9,89.5,7.6
575.75,82.4,85.4,97.1,88.3,7.8
587.5,81.8,87.5,97.8,89.1,8.1
599.25,80.9,87.3,97.0,88.4,8.1
611.0,78.1,85.5,95.9,86.5,8.9
622.75,77.4,86.1,94.6,86.0,8.6
634.5,78.8,87.5,95.6,87.3,8.4
646.25,76.4,88.3,95.8,86.8,9.8
658.0,80.7,87.7,94.7,87.7,7.0
669.75,78.5,87.6,96.4,87.5,9.0
681.5,80.3,88.0,96.4,88.2,8.0
693.25,80.8,89.5,96.2,88.8,7.7
705.0,83.2,87.3,96.3,88.9,6.7
716.75,82.7,88.7,96.3,89.2,6.8
728.5,81.5,89.1,95.0,88.5,6.7
740.25,83.2,89.5,94.7,89.1,5.8
752.0,82.7,89.0,95.8,89.1,6.5
763.75,83.9,91.1,96.4,90.4,6.3
775.5,84.0,90.5,95.8,90.1,5.9
787.25,83.4,90.3,98.0,90.6,7.3
799.0,84.4,91.7,98.1,91.4,6.9
810.75,86.4,92.3,96.1,91.6,4.9
822.5,87.6,93.0,98.4,93.0,5.4
834.25,89.7,92.7,97.3,93.3,3.8
846.0,90.4,93.4,98.0,93.9,3.8
857.75,91.0,93.9,100.0,94.9,4.6
869.5,91.3,93.1,99.6,94.6,4.4
881.25,94.0,96.5,97.5,96.0,1.8
893.0,92.6,95.9,103.0,97.2,5.3
904.75,94.0,99.3,101.5,98.3,3.8
916.5,96.6,99.1,103.5,99.7,3.5
928.25,97.7,99.7,104.7,100.7,3.6
940.0,99.8,100.9,105.4,102.0,2.9
951.75,100.7,105.1,110.3,105.4,4.8
963.5,103.4,109.7,112.9,108.7,4.8
975.25,106.4,111.1,116.4,111.3,5.0
987.0,110.8,118.9,126.1,118.6,7.7
998.75,114.2,118.3,125.7,119.4,5.8
1010.5,115.3,118.2,110.3,114.6,4.0
1022.25,107.9,109.1,98.6,105.2,5.7
1034.0,101.2,101.8,94.0,99.0,4.3
1045.75,94.5,101.2,96.3,97.4,3.5
1057.5,96.0,105.8,98.6,100.2,5.1
1069.25,98.3,109.0,99.0,102.1,6.0
1081.0,103.2,111.9,100.0,105.0,6.1
1092.75,106.9,113.1,105.0,108.3,4.2
1104.5,109.9,113.9,106.3,110.1,3.8
1116.25,114.2,113.3,108.5,112.0,3.1
1128.0,114.3,115.6,110.8,113.6,2.5
1139.75,113.5,112.4,111.6,112.5,1.0
1151.5,110.4,111.9,111.8,111.4,0.8
1163.25,111.4,112.3,110.6,111.4,0.9
1175.0,108.0,109.1,109.9,109.0,1.0
1186.75,106.2,106.5,109.1,107.2,1.6
1198.5,103.9,105.4,105.6,105.0,0.9
1210.25,102.4,104.2,106.4,104.3,2.0
1222.0,99.0,102.8,105.0,102.3,3.0
1233.75,97.6,101.1,105.5,101.4,3.9
1245.5,96.0,101.7,103.8,100.5,4.1
1257.25,92.4,101.0,100.4,97.9,4.8
1269.0,91.4,98.6,100.6,96.9,4.8
1280.75,90.0,97.1,100.7,95.9,5.5
1292.5,87.4,98.1,100.8,95.4,7.1
1304.25,87.5,94.6,99.7,93.9,6.2
1316.0,87.5,92.7,100.5,93.5,6.6
1327.75,84.3,94.4,98.1,92.3,7.2
1339.5,83.1,90.6,98.5,90.7,7.7
1351.25,82.6,89.7,97.8,90.1,7.6
1363.0,80.9,84.9,94.6,86.8,7.0
1374.75,80.3,85.0,96.4,87.3,8.3
1386.5,79.5,83.9,94.2,85.9,7.5
1398.25,79.1,84.9,93.7,85.9,7.3
1410.0,76.9,83.8,92.2,84.3,7.7
1421.75,76.6,81.2,93.6,83.8,8.8
1433.5,74.4,82.0,93.4,83.2,9.6
1445.25,74.3,78.5,92.3,81.7,9.4
1457.0,72.2,77.8,91.0,80.3,9.7
1468.75,72.6,75.5,90.6,79.5,9.7
1480.5,71.9,73.3,89.1,78.1,9.6
1492.25,70.7,74.3,88.8,77.9,9.6
1504.0,68.0,73.9,86.9,76.3,9.7
1515.75,69.0,74.4,87.2,76.9,9.3
1527.5,67.3,76.7,84.9,76.3,8.8
1539.25,68.4,75.5,86.2,76.7,8.9
1551.0,65.1,74.9,87.8,75.9,11.4
1562.75,63.8,74.3,87.3,75.1,11.8
1574.5,65.5,74.5,85.8,75.3,10.2
1586.25,64.5,74.3,84.0,74.3,9.8
1598.0,63.7,74.7,85.3,74.6,10.8
1609.75,62.4,73.3,86.9,74.2,12.3
1621.5,60.8,70.1,84.8,71.9,12.1
1633.25,63.0,71.3,85.2,73.2,11.2
1645.0,61.0,69.3,83.3,71.2,11.3
1656.75,62.5,68.5,83.4,71.5,10.7
1668.5,62.1,68.9,86.1,72.4,12.4
1680.25,62.7,70.4,86.0,73.0,11.8
1692.0,61.7,70.3,85.4,72.4,12.0
1703.75,61.5,68.7,85.3,71.8,12.2
1715.5,61.5,68.8,85.5,71.9,12.3
1727.25,60.8,69.8,85.5,72.0,12.5
1739.0,62.7,69.3,84.8,72.3,11.4
1750.75,60.1,68.0,86.3,71.4,13.4
1762.5,60.8,67.6,85.7,71.4,12.9
1774.25,61.3,68.9,86.7,72.3,13.1
1786.0,61.2,70.6,86.8,72.9,13.0
1797.75,61.6,70.2,86.7,72.9,12.8
1809.5,60.8,69.5,87.5,72.6,13.6
1821.25,63.2,69.6,87.8,73.5,12.8
1833.0,60.5,71.5,88.2,73.4,13.9
1844.75,61.4,72.3,86.9,73.5,12.8
1856.5,60.9,70.4,87.6,72.9,13.5
1868.25,61.8,72.0,87.9,73.9,13.2
1880.0,63.3,70.8,89.8,74.7,13.6
1891.75,63.0,72.5,87.7,74.4,12.5
1903.5,63.4,73.1,89.0,75.2,12.9
1915.25,65.2,73.9,89.7,76.3,12.5
1927.0,64.9,71.4,87.8,74.7,11.8
1938.75,65.5,72.9,89.9,76.1,12.5
1950.5,67.5,74.8,90.8,77.7,11.9
1962.25,66.3,74.0,91.1,77.2,12.7
1974.0,65.2,72.7,93.0,77.0,14.3
1985.75,69.4,74.9,92.6,79.0,12.2
1997.5,66.4,73.0,91.4,76.9,12.9
2009.25,66.7,74.7,91.5,77.6,12.6
2021.0,68.0,73.8,93.3,78.4,13.3
2032.75,64.7,74.7,94.0,77.8,14.9
2044.5,66.4,74.0,94.3,78.2,14.4
2056.25,67.2,73.8,93.7,78.2,13.8
2068.0,67.4,76.6,94.9,79.7,14.0
2079.75,70.4,77.3,97.2,81.6,13.9
2091.5,70.7,76.5,98.0,81.7,14.4
2103.25,71.7,75.9,96.4,81.3,13.2
2115.0,71.4,76.0,96.5,81.3,13.4
2126.75,69.8,76.3,97.8,81.3,14.6
2138.5,71.4,77.9,98.2,82.5,14.0
2150.25,73.0,77.0,97.7,82.6,13.3
2162.0,73.4,78.9,100.5,84.3,14.3
2173.75,73.2,78.1,99.3,83.5,13.9
2185.5,73.3,78.4,100.5,84.1,14.4
2197.25,74.3,80.1,101.0,85.1,14.1
2209.0,74.3,79.4,100.4,84.7,13.9
2220.75,75.1,81.1,102.3,86.2,14.3
2232.5,76.2,78.4,102.1,85.6,14.4
2244.25,74.8,81.0,104.4,86.7,15.6
2256.0,75.7,81.6,102.0,86.4,13.8
2267.75,76.3,80.8,104.8,87.3,15.4
2279.5,77.3,82.6,105.6,88.5,15.1
2291.25,76.7,83.3,107.6,89.2,16.3
2303.0,77.6,85.6,106.7,90.0,15.0
2314.75,76.7,84.2,107.5,89.5,16.0
2326.5,78.7,86.0,108.9,91.2,15.8
2338.25,78.9,84.9,109.8,91.2,16.4
2350.0,79.5,86.5,111.2,92.4,16.7
2361.75,80.3,84.6,113.9,92.9,18.3
2373.5,79.8,87.4,118.5,95.2,20.5
2385.25,83.2,88.1,118.2,96.5,18.9
2397.0,84.0,88.7,118.3,97.0,18.6
2408.75,83.3,92.9,123.0,99.7,20.7
2420.5,83.7,90.5,124.1,99.4,21.6
2432.25,85.1,91.4,123.4,100.0,20.5
2444.0,84.7,94.2,121.6,100.2,19.2
2455.75,84.6,92.6,122.5,99.9,20.0
2467.5,85.6,92.9,119.0,99.2,17.5
2479.25,86.4,93.1,114.8,98.1,14.8
2491.0,86.3,96.4,110.4,97.7,12.1
2502.75,88.5,97.2,109.0,98.3,10.3
2514.5,89.0,98.1,106.5,97.8,8.7
2526.25,89.7,98.7,109.0,99.2,9.7
2538.0,90.2,98.0,108.3,98.8,9.1
2549.75,89.8,100.2,109.7,99.9,10.0
2561.5,89.8,101.7,107.3,99.6,9.0
2573.25,91.0,102.1,111.8,101.6,10.4
2585.0,93.6,101.5,112.7,102.6,9.6
2596.75,91.7,99.4,111.5,100.9,10.0
2608.5,93.8,102.1,113.9,103.3,10.1
2620.25,95.7,104.2,112.1,104.0,8.2
2632.0,95.7,104.7,111.1,103.8,7.8
2643.75,95.4,105.5,110.3,103.8,7.6
2655.5,94.8,107.0,109.3,103.7,7.8
2667.25,95.9,106.7,109.2,104.0,7.1
2679.0,96.9,106.1,109.4,104.1,6.5
2690.75,95.1,108.5,108.7,104.1,7.8
2702.5,97.7,104.7,106.1,102.8,4.5
2714.25,98.1,105.8,105.1,103.0,4.2
2726.0,100.0,105.4,107.5,104.3,3.9
2737.75,98.7,106.5,101.9,102.4,3.9
2749.5,99.6,104.3,106.3,103.4,3.4
2761.25,98.3,104.6,106.5,103.1,4.3
2773.0,95.1,104.1,106.6,101.9,6.0
2784.75,97.3,106.2,104.2,102.5,4.7
2796.5,97.2,100.7,108.8,102.2,6.0
2808.25,98.2,103.8,107.3,103.1,4.6
2820.0,96.9,103.6,109.6,103.4,6.4
2831.75,96.9,103.7,108.7,103.1,6.0
2843.5,97.8,108.4,108.3,104.8,6.1
2855.25,98.4,107.6,110.2,105.4,6.2
2867.0,100.2,108.4,110.1,106.2,5.3
2878.75,99.1,109.5,109.5,106.0,6.0
2890.5,99.3,106.3,112.5,106.0,6.6
2902.25,103.9,110.4,113.6,109.3,4.9
2914.0,105.8,112.0,112.7,110.2,3.8
2925.75,103.9,108.9,112.9,108.6,4.5
2937.5,105.9,112.3,115.9,111.4,5.1
2949.25,106.7,109.6,115.1,110.5,4.3
2961.0,108.8,112.4,117.5,112.9,4.3
2972.75,109.7,111.5,119.3,113.5,5.1
2984.5,110.0,116.3,118.8,115.0,4.5
2996.25,108.7,114.7,120.2,114.5,5.8
3008.0,112.3,117.5,122.7,117.5,5.2
3019.75,110.0,120.2,124.7,118.3,7.5
3031.5,110.9,117.3,125.5,117.9,7.3
3043.25,110.5,118.6,126.6,118.6,8.0
3055.0,107.9,116.8,123.5,116.1,7.8
3066.75,107.2,118.0,109.8,111.7,5.7
3078.5,108.5,113.9,91.6,104.7,11.6
3090.25,108.7,110.7,74.1,97.8,20.6
3102.0,106.1,110.2,67.3,94.5,23.7
3113.75,104.8,108.0,64.5,92.4,24.3
3125.5,106.7,106.9,60.9,91.5,26.5
3137.25,108.0,104.3,58.7,90.3,27.5
3149.0,107.3,105.0,59.7,90.7,26.8
3160.75,106.7,104.3,58.2,89.7,27.3
3172.5,104.4,103.7,55.9,88.0,27.8
3184.25,105.9,105.7,55.1,88.9,29.3
3196.0,103.3,103.5,55.0,87.3,28.0
3207.75,104.5,98.7,52.8,85.3,28.3
3219.5,98.9,90.8,51.5,80.4,25.4
3231.25,99.0,75.7,51.2,75.3,23.9
3243.0,95.3,65.6,51.4,70.8,22.4
3254.75,90.4,58.5,52.0,67.0,20.6
3266.5,86.9,54.2,50.9,64.0,19.9
3278.25,75.2,52.1,48.6,58.6,14.5
3290.0,61.5,50.6,48.7,53.6,6.9
3301.75,53.4,46.5,48.6,49.5,3.5
3313.5,51.5,45.2,49.0,48.6,3.2
3325.25,49.7,46.5,47.6,48.0,1.6
3337.0,47.2,46.1,47.3,46.9,0.7
3348.75,46.3,44.9,47.4,46.2,1.2
3360.5,44.1,42.6,47.3,44.7,2.4
3372.25,41.9,42.6,47.1,43.9,2.8
3384.0,41.7,44.4,46.7,44.3,2.5
3395.75,41.4,44.0,44.8,43.4,1.8
3407.5,41.9,42.8,44.9,43.2,1.5
3419.25,40.9,,45.2,43.1,3.1
3431.0,39.8,,46.6,43.2,4.8
3442.75,39.1,,44.4,41.8,3.8
3454.5,38.7,,44.1,41.4,3.8
3466.25,39.3,,44.8,42.0,3.9
3478.0,39.4,,44.4,41.9,3.6
3486.0,37.1,,43.6,40.4,4.6