Folder: fsri_materials_database/01_Data/PlasticC/FTIR/IS

Note: README.md
# Materials and Products Database
### Repository of materials and products properties and fire test data to improve fire modeling and fire investigation.

This project was supported in part by Award No. 2019-DU-BX-0018, awarded by the National Institute of Justice, Office of Justice Programs, U.S. Department of Justice. The opinions, findings, and conclusions or recommendations expressed in this publication / program / exhibition are those of the author(s) and do not necessarily reflect those of the Department of Justice.

***
***

__Cite this database:__ "McKinnon, M., Weinschenk, C., Dow, N., DiDomizio, M., and Madrzykowski, D. Materials and Products Database (Version 1.0.0), Fire Safety Research Institute, UL Research Institutes. Columbia, MD 21045, 2023."

__Cite the Technical Reference Guide:__ "McKinnon, M., Weinschenk, C., and Madrzykowski, D. Materials and Products Database - Technical Reference Guide, Fire Safety Research Institute, UL Research Institutes. Columbia, MD 21045, 2023."

__Cite the User Guide:__ "McKinnon, M., and Weinschenk, C. Materials and Products Database - User Guide, Fire Safety Research Institute, UL Research Institutes. Columbia, MD 21045, 2023."

***
***

## Database Structure

## 01_Data/
Raw data generated from each apparatus are included here in plain-text format. The data is organized first by material, next by the short name of test apparatus used, and where applicable additional filtering by test settings.

### Test Apparatus and Data File Structure
- __Cone Calorimeter__ (Cone)
    + Data file structure includes the material, the short name for the apparatus, heat flux setting and scan/scalar, date of test, and replicate number. Scan is for the raw output data and scalar is for the initial conditions and high-level test parameters. 
        * Example: __MDF_Cone_HF25scalar_210323_R1__ stands for the first replicate of scalar data generated from a medium density fiber board test in cone calorimeter exposed to 25 kW/m<sup>2</sup> on March 23, 2021.
    + A _Cone_Notes.csv_ is generated for each material from the __plot_Cone_data.py__ script. For materials whose experiments deviated from typical behavior relevant pictures are included in the respective material directory.
- __Fourier Transform Infrared Spectrometer__ (FTIR)
    + The FTIR directory contains subdirectories for the Attenuated Total Reflectance method (ATR) and the Integrating Sphere (IS)
    + Data file structure for the ATR experiment files includes the material, the abbreviated name for the apparatus, date of test, and replicate number. 
        * Example: __MDF_ATR_210323_R5__ stands for the fifth replicate of data collected with the ATR accessory conducted on June 8, 2021.
    + Data file structure for the IS experiment files includes the material, the abbreviated name for the apparatus, the measurand, whether the test is a sample measurement or standard reference, date of test, and replicate number.
        * Example: __OSB_IS_REFLECT_MEAS_2

File: PlasticC_IS_S_220907_R1.dpt
7497.03,0.85305
7473.89,0.83676
7450.74,0.81758
7427.6,0.80722
7404.45,0.79728
7381.31,0.81103
7358.16,0.79839
7335.02,0.79820
7311.87,0.78125
7288.73,0.75398
7265.58,0.74080
7242.44,0.72044
7219.29,0.71900
7196.15,0.69981
7173,0.69861
7149.86,0.69698
7126.71,0.69273
7103.57,0.67996
7080.42,0.66884
7057.28,0.67816
7034.13,0.68648
7010.99,0.69357
6987.84,0.68684
6964.7,0.69383
6941.55,0.69699
6918.41,0.70324
6895.26,0.70918
6872.12,0.72316
6848.97,0.72281
6825.83,0.73258
6802.68,0.72954
6779.54,0.73998
6756.39,0.73907
6733.25,0.74123
6710.1,0.75196
6686.96,0.75811
6663.82,0.75851
6640.67,0.76406
6617.53,0.76935
6594.38,0.77220
6571.24,0.77444
6548.09,0.78244
6524.95,0.78314
6501.8,0.79129
6478.66,0.79791
6455.51,0.79756
6432.37,0.79935
6409.22,0.80184
6386.08,0.79306
6362.93,0.78658
6339.79,0.78341
6316.64,0.77348
6293.5,0.76384
6270.35,0.76220
6247.21,0.74090
6224.06,0.72055
6200.92,0.69159
6177.77,0.64904
6154.63,0.56161
6131.48,0.49025
6108.34,0.43531
6085.19,0.43592
6062.05,0.46241
6038.9,0.44743
6015.76,0.33774
5992.61,0.24728
5969.47,0.19737
5946.32,0.19191
5923.18,0.20942
5900.03,0.22329
5876.89,0.26770
5853.74,0.29748
5830.6,0.30178
5807.45,0.30256
5784.31,0.30798
5761.16,0.36542
5738.02,0.40534
5714.87,0.36869
5691.73,0.34022
5668.58,0.32272
5645.44,0.35342
5622.29,0.38161
5599.15,0.38730
5576,0.38795
5552.86,0.39410
5529.71,0.39173
5506.57,0.39563
5483.42,0.41234
5460.28,0.41933
5437.13,0.41719
5413.99,0.41361
5390.84,0.40979
5367.7,0.40834
5344.55,0.42385
5321.41,0.43471
5298.26,0.43772
5275.12,0.44162
5251.97,0.43853
5228.83,0.44061
5205.68,0.44948
5182.54,0.45323
5159.39,0.45749
5136.25,0.45179
5113.1,0.45175
5089.96,0.45696
5066.81,0.45996
5043.67,0.45637
5020.52,0.45953
4997.38,0.45593
4974.23,0.44731
4951.09,0.44966
4927.94,0.44763
4904.8,0.44784
4881.65,0.43973
4858.51,0.43247
4835.36,0.41819
4812.22,0.42194
4789.07,0.41523
4765.93,0.37940
4742.78,0.36936
4719.64,0.32069
4696.49,0.27245
4673.35,0.15100
4650.2,0.15337
4627.06,0.13466
4603.92,0.12998
4580.77,0.16829
4557.63,0.19012
4534.48,0.23656
4511.34,0.23934
4488.19,0.25139
4465.05,0.26726
4441.9,0.24582
4418.76,0.23314
4395.61,0.19922
4372.47,0.16077
4349.32,0.12951
4326.18,0.12009
4303.03,0.13917
4279.89,0.12578
4256.74,0.10561
4233.6,0.10619
4210.45,0.10842
4187.31,0.11699
4164.16,0.12432
4141.02,0.12391
4117.87,0.11495
4094.73,0.10743
4071.58,0.08909
4048.44,0.08183
4025.29,0.08673
4002.15,0.10727
3979,0.12089
3955.86,0.12518
3932.71,0.12292
3909.57,0.12766
3886.42,0.13042
3863.28,0.13095
3840.13,0.12749
3816.99,0.12131
3793.84,0.12387
3770.7,0.13004
3747.55,0.13614
3724.41,0.12666
3701.26,0.11950
3678.12,0.11538
3654.97,0.10540
3631.83,0.11883
3608.68,0.13341
3585.54,0.13731
3562.39,0.15382
3539.25,0.15059
3516.1,0.14552
3492.96,0.13767
3469.81,0.13020
3446.67,0.12325
3423.52,0.13028
3400.38,0.13513
3377.23,0.13683
3354.09,0.14137
3330.94,0.13561
3307.8,0.12680
3284.65,0.12468
3261.51,0.12106
3238.36,0.11793
3215.22,0.10913
3192.07,0.09824
3168.93,0.08662
3145.78,0.08429
3122.64,0.07591
3099.49,0.06495
3076.35,0.06459
3053.2,0.06538
3030.06,0.06285
3006.91,0.06630
2983.77,0.06588
2960.62,0.06447
2937.48,0.06341
2914.33,0.06962
2891.19,0.06860
2868.04,0.06769
2844.9,0.06851
2821.75,0.06971
2798.61,0.07116
2775.46,0.07324
2752.32,0.07632
2729.17,0.07533
2706.03,0.07511
2682.88,0.07464
2659.74,0.07452
2636.59,0.07317
2613.45,0.07511
2590.3,0.07572
2567.16,0.07605
2544.02,0.07549
2520.87,0.07541
2497.73,0.07590
2474.58,0.07843
2451.44,0.08088
2428.29,0.08220
2405.15,0.08064
2382,0.07919
2358.86,0.07617
2335.71,0.07164
2312.57,0.07346
2289.42,0.07790
2266.28,0.07853
2243.13,0.07918
2219.99,0.08138
2196.84,0.08259
2173.7,0.08345
2150.55,0.08441
2127.41,0.08664
2104.26,0.08751
2081.12,0.08799
2057.97,0.08600
2034.83,0.08256
2011.68,0.07876
1988.54,0.07130
1965.39,0.06698
1942.25,0.06590
1919.1,0.06887
1895.96,0.06710
1872.81,0.06550
1849.67,0.06865
1826.52,0.06660
1803.38,0.06533
1780.23,0.06696
1757.09,0.06516
1733.94,0.06620
1710.8,0.06658
1687.65,0.06548
1664.51,0.06497
1641.36,0.06564
1618.22,0.06423
1595.07,0.06583
1571.93,0.06568
1548.78,0.06416
1525.64,0.06403
1502.49,0.06059
1479.35,0.06595
1456.2,0.05945
1433.06,0.06741
1409.91,0.06556
1386.77,0.06382
1363.62,0.06510
1340.48,0.06469
1317.33,0.06454
1294.19,0.06457
1271.04,0.06489
1247.9,0.06493
1224.75,0.06428
1201.61,0.06399
1178.46,0.06464
1155.32,0.06411
1132.17,0.06525
1109.03,0.06393
1085.88,0.06218
1062.74,0.06351
1039.59,0.06258
1016.45,0.06452
993.304,0.06388
970.159,0.06312
947.014,0.06286
923.869,0.06219
900.724,0.06322
877.579,0.06309
854.434,0.06118
831.289,0.06009
808.144,0.05942
784.999,0.05432
761.854,0.05536
738.709,0.06492
715.565,0.04974
692.42,0.11026
669.275,0.07179
646.13,0.07003
622.985,0.06572
599.84,0.06582

File: PlasticC_IS_S_220907_R2.dpt
7497.03,0.82170
7473.89,0.82554
7450.74,0.80980
7427.6,0.80589
7404.45,0.80533
7381.31,0.80582
7358.16,0.80515
7335.02,0.79187
7311.87,0.77808
7288.73,0.75644
7265.58,0.74796
7242.44,0.72287
7219.29,0.72498
7196.15,0.70141
7173,0.69193
7149.86,0.69853
7126.71,0.69583
7103.57,0.68578
7080.42,0.67203
7057.28,0.67341
7034.13,0.68352
7010.99,0.68929
6987.84,0.68464
6964.7,0.68651
6941.55,0.69423
6918.41,0.70046
6895.26,0.71526
6872.12,0.71740
6848.97,0.72495
6825.83,0.73235
6802.68,0.72990
6779.54,0.73320
6756.39,0.74136
6733.25,0.73953
6710.1,0.74371
6686.96,0.75049
6663.82,0.75848
6640.67,0.76784
6617.53,0.76304
6594.38,0.77452
6571.24,0.77298
6548.09,0.77949
6524.95,0.78216
6501.8,0.78790
6478.66,0.79269
6455.51,0.79600
6432.37,0.80016
6409.22,0.79658
6386.08,0.79509
6362.93,0.78198
6339.79,0.78039
6316.64,0.77360
6293.5,0.76205
6270.35,0.75591
6247.21,0.73763
6224.06,0.71908
6200.92,0.69098
6177.77,0.64358
6154.63,0.56124
6131.48,0.48948
6108.34,0.43313
6085.19,0.43529
6062.05,0.45880
6038.9,0.44772
6015.76,0.33486
5992.61,0.24922
5969.47,0.19699
5946.32,0.18938
5923.18,0.21103
5900.03,0.22534
5876.89,0.26810
5853.74,0.29683
5830.6,0.29904
5807.45,0.30096
5784.31,0.30837
5761.16,0.36403
5738.02,0.40429
5714.87,0.36832
5691.73,0.33847
5668.58,0.31928
5645.44,0.34953
5622.29,0.38281
5599.15,0.38605
5576,0.38440
5552.86,0.39127
5529.71,0.39261
5506.57,0.39832
5483.42,0.41272
5460.28,0.41961
5437.13,0.41877
5413.99,0.41478
5390.84,0.40973
5367.7,0.40679
5344.55,0.42252
5321.41,0.43482
5298.26,0.43852
5275.12,0.44108
5251.97,0.44047
5228.83,0.43847
5205.68,0.44766
5182.54,0.45394
5159.39,0.45736
5136.25,0.45086
5113.1,0.45267
5089.96,0.45611
5066.81,0.45876
5043.67,0.45507
5020.52,0.45775
4997.38,0.45386
4974.23,0.44581
4951.09,0.44779
4927.94,0.44644
4904.8,0.44536
4881.65,0.43730
4858.51,0.43056
4835.36,0.41664
4812.22,0.41901
4789.07,0.41471
4765.93,0.37822
4742.78,0.36780
4719.64,0.32010
4696.49,0.27151
4673.35,0.15019
4650.2,0.15309
4627.06,0.13429
4603.92,0.12888
4580.77,0.16828
4557.63,0.19040
4534.48,0.23621
4511.34,0.23814
4488.19,0.25002
4465.05,0.26587
4441.9,0.24566
4418.76,0.23259
4395.61,0.19877
4372.47,0.15993
4349.32,0.12923
4326.18,0.11950
4303.03,0.13922
4279.89,0.12559
4256.74,0.10557
4233.6,0.10680
4210.45,0.10772
4187.31,0.11760
4164.16,0.12509
4141.02,0.12363
4117.87,0.11408
4094.73,0.10709
4071.58,0.08905
4048.44,0.08098
4025.29,0.08562
4002.15,0.10791
3979,0.12055
3955.86,0.12489
3932.71,0.12216
3909.57,0.12696
3886.42,0.13044
3863.28,0.13047
3840.13,0.12788
3816.99,0.12189
3793.84,0.12500
3770.7,0.12975
3747.55,0.13573
3724.41,0.12753
3701.26,0.11960
3678.12,0.11685
3654.97,0.10553
3631.83,0.11858
3608.68,0.13341
3585.54,0.13964
3562.39,0.15336
3539.25,0.15075
3516.1,0.14483
3492.96,0.13764
3469.81,0.12949
3446.67,0.12318
3423.52,0.13009
3400.38,0.13464
3377.23,0.13665
3354.09,0.14021
3330.94,0.13535
3307.8,0.12644
3284.65,0.12458
3261.51,0.12247
3238.36,0.11778
3215.22,0.10921
3192.07,0.09767
3168.93,0.08725
3145.78,0.08471
3122.64,0.07595
3099.49,0.06560
3076.35,0.06456
3053.2,0.06455
3030.06,0.06335
3006.91,0.06618
2983.77,0.06682
2960.62,0.06455
2937.48,0.06342
2914.33,0.06907
2891.19,0.06834
2868.04,0.06733
2844.9,0.06854
2821.75,0.06966
2798.61,0.07104
2775.46,0.07324
2752.32,0.07589
2729.17,0.07463
2706.03,0.07488
2682.88,0.07450
2659.74,0.07487
2636.59,0.07297
2613.45,0.07446
2590.3,0.07542
2567.16,0.07578
2544.02,0.07506
2520.87,0.07551
2497.73,0.07595
2474.58,0.07858
2451.44,0.08047
2428.29,0.08167
2405.15,0.08052
2382,0.07883
2358.86,0.07610
2335.71,0.07096
2312.57,0.07294
2289.42,0.07796
2266.28,0.07842
2243.13,0.07890
2219.99,0.08115
2196.84,0.08240
2173.7,0.08343
2150.55,0.08427
2127.41,0.08660
2104.26,0.08750
2081.12,0.08784
2057.97,0.08553
2034.83,0.08278
2011.68,0.07891
1988.54,0.07097
1965.39,0.06674
1942.25,0.06607
1919.1,0.06874
1895.96,0.06693
1872.81,0.06565
1849.67,0.06836
1826.52,0.06642
1803.38,0.06498
1780.23,0.06670
1757.09,0.06529
1733.94,0.06582
1710.8,0.06631
1687.65,0.06516
1664.51,0.06465
1641.36,0.06545
1618.22,0.06416
1595.07,0.06594
1571.93,0.06545
1548.78,0.06392
1525.64,0.06391
1502.49,0.06020
1479.35,0.06525
1456.2,0.05909
1433.06,0.06722
1409.91,0.06521
1386.77,0.06392
1363.62,0.06487
1340.48,0.06452
1317.33,0.06416
1294.19,0.06417
1271.04,0.06471
1247.9,0.06452
1224.75,0.06436
1201.61,0.06300
1178.46,0.06431
1155.32,0.06429
1132.17,0.06499
1109.03,0.06408
1085.88,0.06198
1062.74,0.06366
1039.59,0.06255
1016.45,0.06513
993.304,0.06426
970.159,0.06325
947.014,0.06263
923.869,0.06189
900.724,0.06315
877.579,0.06140
854.434,0.06109
831.289,0.06070
808.144,0.05926
784.999,0.05497
761.854,0.05556
738.709,0.06548
715.565,0.05038
692.42,0.11055
669.275,0.07353
646.13,0.06904
622.985,0.06643
599.84,0.06508

File: PlasticC_IS_S_220907_R3.dpt
7497.03,0.83392
7473.89,0.82811
7450.74,0.80829
7427.6,0.81180
7404.45,0.80197
7381.31,0.80528
7358.16,0.80107
7335.02,0.79817
7311.87,0.77753
7288.73,0.75583
7265.58,0.74483
7242.44,0.72924
7219.29,0.71797
7196.15,0.70103
7173,0.69196
7149.86,0.70334
7126.71,0.70195
7103.57,0.69374
7080.42,0.67069
7057.28,0.67857
7034.13,0.68531
7010.99,0.69140
6987.84,0.68149
6964.7,0.69252
6941.55,0.69382
6918.41,0.70426
6895.26,0.71703
6872.12,0.71986
6848.97,0.72972
6825.83,0.73289
6802.68,0.72900
6779.54,0.73687
6756.39,0.73779
6733.25,0.74289
6710.1,0.75480
6686.96,0.75207
6663.82,0.76365
6640.67,0.76930
6617.53,0.76954
6594.38,0.77492
6571.24,0.77806
6548.09,0.78392
6524.95,0.78237
6501.8,0.79593
6478.66,0.79440
6455.51,0.80043
6432.37,0.79939
6409.22,0.80324
6386.08,0.79110
6362.93,0.78913
6339.79,0.78122
6316.64,0.77551
6293.5,0.76321
6270.35,0.76323
6247.21,0.73799
6224.06,0.72110
6200.92,0.69523
6177.77,0.64771
6154.63,0.56243
6131.48,0.49418
6108.34,0.43406
6085.19,0.43697
6062.05,0.46102
6038.9,0.45012
6015.76,0.33670
5992.61,0.25038
5969.47,0.20054
5946.32,0.19230
5923.18,0.21308
5900.03,0.22363
5876.89,0.27245
5853.74,0.29788
5830.6,0.30142
5807.45,0.30272
5784.31,0.30897
5761.16,0.36595
5738.02,0.40721
5714.87,0.37027
5691.73,0.34073
5668.58,0.32281
5645.44,0.35208
5622.29,0.38524
5599.15,0.39047
5576,0.38594
5552.86,0.39209
5529.71,0.39194
5506.57,0.39740
5483.42,0.41434
5460.28,0.42043
5437.13,0.41757
5413.99,0.41355
5390.84,0.41060
5367.7,0.40937
5344.55,0.42481
5321.41,0.43605
5298.26,0.43883
5275.12,0.44228
5251.97,0.44140
5228.83,0.44101
5205.68,0.44961
5182.54,0.45570
5159.39,0.45850
5136.25,0.45311
5113.1,0.45344
5089.96,0.45852
5066.81,0.45905
5043.67,0.45659
5020.52,0.45873
4997.38,0.45614
4974.23,0.44748
4951.09,0.44943
4927.94,0.44818
4904.8,0.44735
4881.65,0.44016
4858.51,0.43320
4835.36,0.41879
4812.22,0.42141
4789.07,0.41570
4765.93,0.38035
4742.78,0.36893
4719.64,0.32077
4696.49,0.27190
4673.35,0.15118
4650.2,0.15252
4627.06,0.13510
4603.92,0.12862
4580.77,0.16902
4557.63,0.19079
4534.48,0.23701
4511.34,0.23877
4488.19,0.25249
4465.05,0.26748
4441.9,0.24712
4418.76,0.23333
4395.61,0.19921
4372.47,0.16062
4349.32,0.12875
4326.18,0.12000
4303.03,0.13951
4279.89,0.12541
4256.74,0.10546
4233.6,0.10610
4210.45,0.10914
4187.31,0.11682
4164.16,0.12503
4141.02,0.12443
4117.87,0.11471
4094.73,0.10675
4071.58,0.08898
4048.44,0.08146
4025.29,0.08669
4002.15,0.10807
3979,0.12067
3955.86,0.12569
3932.71,0.12267
3909.57,0.12789
3886.42,0.13043
3863.28,0.13074
3840.13,0.12819
3816.99,0.12089
3793.84,0.12483
3770.7,0.13105
3747.55,0.13601
3724.41,0.12703
3701.26,0.12023
3678.12,0.11750
3654.97,0.10608
3631.83,0.11947
3608.68,0.13414
3585.54,0.14059
3562.39,0.15422
3539.25,0.15195
3516.1,0.14509
3492.96,0.13892
3469.81,0.13037
3446.67,0.12342
3423.52,0.13114
3400.38,0.13603
3377.23,0.13805
3354.09,0.14115
3330.94,0.13593
3307.8,0.12645
3284.65,0.12493
3261.51,0.12257
3238.36,0.11755
3215.22,0.10931
3192.07,0.09812
3168.93,0.08698
3145.78,0.08467
3122.64,0.07565
3099.49,0.06579
3076.35,0.06423
3053.2,0.06496
3030.06,0.06281
3006.91,0.06662
2983.77,0.06608
2960.62,0.06480
2937.48,0.06345
2914.33,0.06932
2891.19,0.06822
2868.04,0.06764
2844.9,0.06883
2821.75,0.06969
2798.61,0.07147
2775.46,0.07303
2752.32,0.07567
2729.17,0.07502
2706.03,0.07485
2682.88,0.07457
2659.74,0.07468
2636.59,0.07328
2613.45,0.07466
2590.3,0.07566
2567.16,0.07620
2544.02,0.07586
2520.87,0.07593
2497.73,0.07608
2474.58,0.07897
2451.44,0.08026
2428.29,0.08192
2405.15,0.08100
2382,0.07926
2358.86,0.07609
2335.71,0.07156
2312.57,0.07292
2289.42,0.07824
2266.28,0.07849
2243.13,0.07936
2219.99,0.08152
2196.84,0.08258
2173.7,0.08329
2150.55,0.08445
2127.41,0.08652
2104.26,0.08747
2081.12,0.08806
2057.97,0.08579
2034.83,0.08297
2011.68,0.07947
1988.54,0.07121
1965.39,0.06654
1942.25,0.06561
1919.1,0.06895
1895.96,0.06689
1872.81,0.06585
1849.67,0.06883
1826.52,0.06656
1803.38,0.06523
1780.23,0.06659
1757.09,0.06526
1733.94,0.06562
1710.8,0.06656
1687.65,0.06502
1664.51,0.06481
1641.36,0.06498
1618.22,0.06445
1595.07,0.06577
1571.93,0.06523
1548.78,0.06403
1525.64,0.06422
1502.49,0.06041
1479.35,0.06555
1456.2,0.05954
1433.06,0.06744
1409.91,0.06567
1386.77,0.06410
1363.62,0.06455
1340.48,0.06499
1317.33,0.06477
1294.19,0.06450
1271.04,0.06499
1247.9,0.06493
1224.75,0.06463
1201.61,0.06340
1178.46,0.06432
1155.32,0.06389
1132.17,0.06475
1109.03,0.06411
1085.88,0.06230
1062.74,0.06386
1039.59,0.06193
1016.45,0.06473
993.304,0.06387
970.159,0.06268
947.014,0.06267
923.869,0.06208
900.724,0.06236
877.579,0.06207
854.434,0.06083
831.289,0.06053
808.144,0.05842
784.999,0.05458
761.854,0.05549
738.709,0.06526
715.565,0.04907
692.42,0.11079
669.275,0.07296
646.13,0.06779
622.985,0.06596
599.84,0.06334

File: PlasticC_IS_S_220907_R4.dpt
7497.03,0.81884
7473.89,0.82602
7450.74,0.80914
7427.6,0.79962
7404.45,0.79939
7381.31,0.81528
7358.16,0.80600
7335.02,0.79928
7311.87,0.77884
7288.73,0.76696
7265.58,0.73817
7242.44,0.73442
7219.29,0.71923
7196.15,0.69523
7173,0.69272
7149.86,0.69640
7126.71,0.69168
7103.57,0.67877
7080.42,0.67108
7057.28,0.68058
7034.13,0.68993
7010.99,0.68921
6987.84,0.69074
6964.7,0.69353
6941.55,0.69513
6918.41,0.69668
6895.26,0.70720
6872.12,0.71749
6848.97,0.73102
6825.83,0.73156
6802.68,0.73248
6779.54,0.74155
6756.39,0.74384
6733.25,0.74000
6710.1,0.74609
6686.96,0.75266
6663.82,0.76450
6640.67,0.76434
6617.53,0.76743
6594.38,0.76974
6571.24,0.78244
6548.09,0.77902
6524.95,0.78794
6501.8,0.79344
6478.66,0.79770
6455.51,0.79752
6432.37,0.80346
6409.22,0.80107
6386.08,0.79409
6362.93,0.78753
6339.79,0.78216
6316.64,0.77822
6293.5,0.76270
6270.35,0.75912
6247.21,0.74135
6224.06,0.71836
6200.92,0.69636
6177.77,0.64660
6154.63,0.56245
6131.48,0.49331
6108.34,0.43286
6085.19,0.43906
6062.05,0.45984
6038.9,0.45179
6015.76,0.33637
5992.61,0.24821
5969.47,0.20180
5946.32,0.19140
5923.18,0.20898
5900.03,0.22491
5876.89,0.26793
5853.74,0.29692
5830.6,0.30107
5807.45,0.30440
5784.31,0.30891
5761.16,0.36454
5738.02,0.40655
5714.87,0.37125
5691.73,0.34112
5668.58,0.32522
5645.44,0.35100
5622.29,0.38300
5599.15,0.38655
5576,0.38571
5552.86,0.39591
5529.71,0.39372
5506.57,0.39963
5483.42,0.41325
5460.28,0.42173
5437.13,0.41955
5413.99,0.41627
5390.84,0.40861
5367.7,0.40977
5344.55,0.42319
5321.41,0.43700
5298.26,0.44069
5275.12,0.44296
5251.97,0.44233
5228.83,0.44253
5205.68,0.45151
5182.54,0.45628
5159.39,0.45838
5136.25,0.45329
5113.1,0.45372
5089.96,0.45924
5066.81,0.45727
5043.67,0.45750
5020.52,0.45980
4997.38,0.45607
4974.23,0.44906
4951.09,0.45071
4927.94,0.44849
4904.8,0.44725
4881.65,0.43961
4858.51,0.43177
4835.36,0.41851
4812.22,0.42143
4789.07,0.41593
4765.93,0.38105
4742.78,0.37023
4719.64,0.32152
4696.49,0.27355
4673.35,0.15123
4650.2,0.15321
4627.06,0.13516
4603.92,0.12885
4580.77,0.16874
4557.63,0.19148
4534.48,0.23716
4511.34,0.24062
4488.19,0.25144
4465.05,0.26749
4441.9,0.24579
4418.76,0.23387
4395.61,0.19943
4372.47,0.16045
4349.32,0.13054
4326.18,0.11976
4303.03,0.14009
4279.89,0.12543
4256.74,0.10562
4233.6,0.10742
4210.45,0.10922
4187.31,0.11706
4164.16,0.12494
4141.02,0.12429
4117.87,0.11407
4094.73,0.10737
4071.58,0.08869
4048.44,0.08135
4025.29,0.08699
4002.15,0.10810
3979,0.12079
3955.86,0.12573
3932.71,0.12316
3909.57,0.12737
3886.42,0.13050
3863.28,0.13104
3840.13,0.12833
3816.99,0.12210
3793.84,0.12477
3770.7,0.13123
3747.55,0.13705
3724.41,0.12700
3701.26,0.12004
3678.12,0.11849
3654.97,0.10702
3631.83,0.11975
3608.68,0.13403
3585.54,0.14194
3562.39,0.15582
3539.25,0.15208
3516.1,0.14616
3492.96,0.13930
3469.81,0.12991
3446.67,0.12364
3423.52,0.13063
3400.38,0.13518
3377.23,0.13808
3354.09,0.14148
3330.94,0.13593
3307.8,0.12727
3284.65,0.12554
3261.51,0.12256
3238.36,0.11773
3215.22,0.10945
3192.07,0.09857
3168.93,0.08736
3145.78,0.08437
3122.64,0.07601
3099.49,0.06567
3076.35,0.06488
3053.2,0.06501
3030.06,0.06309
3006.91,0.06645
2983.77,0.06670
2960.62,0.06474
2937.48,0.06328
2914.33,0.06956
2891.19,0.06856
2868.04,0.06737
2844.9,0.06910
2821.75,0.06950
2798.61,0.07152
2775.46,0.07386
2752.32,0.07598
2729.17,0.07533
2706.03,0.07502
2682.88,0.07448
2659.74,0.07467
2636.59,0.07311
2613.45,0.07485
2590.3,0.07552
2567.16,0.07654
2544.02,0.07567
2520.87,0.07556
2497.73,0.07645
2474.58,0.07884
2451.44,0.08082
2428.29,0.08173
2405.15,0.08104
2382,0.07876
2358.86,0.07619
2335.71,0.07185
2312.57,0.07351
2289.42,0.07795
2266.28,0.07876
2243.13,0.07921
2219.99,0.08165
2196.84,0.08238
2173.7,0.08361
2150.55,0.08435
2127.41,0.08693
2104.26,0.08776
2081.12,0.08853
2057.97,0.08546
2034.83,0.08312
2011.68,0.07942
1988.54,0.07104
1965.39,0.06672
1942.25,0.06593
1919.1,0.06879
1895.96,0.06715
1872.81,0.06566
1849.67,0.06853
1826.52,0.06683
1803.38,0.06524
1780.23,0.06697
1757.09,0.06560
1733.94,0.06589
1710.8,0.06663
1687.65,0.06520
1664.51,0.06471
1641.36,0.06557
1618.22,0.06451
1595.07,0.06610
1571.93,0.06561
1548.78,0.06414
1525.64,0.06408
1502.49,0.06050
1479.35,0.06563
1456.2,0.05938
1433.06,0.06791
1409.91,0.06559
1386.77,0.06400
1363.62,0.06471
1340.48,0.06497
1317.33,0.06447
1294.19,0.06447
1271.04,0.06486
1247.9,0.06463
1224.75,0.06450
1201.61,0.06357
1178.46,0.06446
1155.32,0.06473
1132.17,0.06520
1109.03,0.06332
1085.88,0.06205
1062.74,0.06360
1039.59,0.06275
1016.45,0.06494
993.304,0.06413
970.159,0.06273
947.014,0.06303
923.869,0.06260
900.724,0.06321
877.579,0.06179
854.434,0.06048
831.289,0.06062
808.144,0.05821
784.999,0.05452
761.854,0.05503
738.709,0.06485
715.565,0.04968
692.42,0.11048
669.275,0.07374
646.13,0.06843
622.985,0.06572
599.84,0.06588