Folder: fsri_materials_database/01_Data/PlasticC/FTIR/IS (part 2)

File: PlasticC_IS_S_220907_R5.dpt
7497.03,0.82845
7473.89,0.82760
7450.74,0.81102
7427.6,0.80510
7404.45,0.80857
7381.31,0.80337
7358.16,0.81209
7335.02,0.80506
7311.87,0.77788
7288.73,0.75311
7265.58,0.74624
7242.44,0.73030
7219.29,0.72351
7196.15,0.70326
7173,0.69958
7149.86,0.69652
7126.71,0.69847
7103.57,0.68853
7080.42,0.66687
7057.28,0.68114
7034.13,0.69538
7010.99,0.69355
6987.84,0.68631
6964.7,0.69124
6941.55,0.70060
6918.41,0.70434
6895.26,0.72112
6872.12,0.72509
6848.97,0.72764
6825.83,0.73141
6802.68,0.74042
6779.54,0.74377
6756.39,0.74275
6733.25,0.74790
6710.1,0.74777
6686.96,0.75496
6663.82,0.76390
6640.67,0.76490
6617.53,0.77093
6594.38,0.77881
6571.24,0.78283
6548.09,0.78701
6524.95,0.78558
6501.8,0.79505
6478.66,0.80227
6455.51,0.80271
6432.37,0.80218
6409.22,0.80204
6386.08,0.79682
6362.93,0.78801
6339.79,0.78685
6316.64,0.78160
6293.5,0.76635
6270.35,0.76557
6247.21,0.74291
6224.06,0.72255
6200.92,0.69597
6177.77,0.65349
6154.63,0.56521
6131.48,0.49586
6108.34,0.43756
6085.19,0.43994
6062.05,0.46358
6038.9,0.45048
6015.76,0.33723
5992.61,0.24978
5969.47,0.19858
5946.32,0.19278
5923.18,0.21075
5900.03,0.22278
5876.89,0.26935
5853.74,0.29929
5830.6,0.30356
5807.45,0.30469
5784.31,0.30930
5761.16,0.36752
5738.02,0.40769
5714.87,0.37131
5691.73,0.34104
5668.58,0.32215
5645.44,0.35248
5622.29,0.38583
5599.15,0.38874
5576,0.38785
5552.86,0.39381
5529.71,0.39348
5506.57,0.39893
5483.42,0.41546
5460.28,0.42173
5437.13,0.41882
5413.99,0.41771
5390.84,0.41189
5367.7,0.41167
5344.55,0.42573
5321.41,0.43715
5298.26,0.44185
5275.12,0.44561
5251.97,0.44441
5228.83,0.44277
5205.68,0.45348
5182.54,0.45724
5159.39,0.45999
5136.25,0.45496
5113.1,0.45593
5089.96,0.45953
5066.81,0.46145
5043.67,0.45950
5020.52,0.46005
4997.38,0.45680
4974.23,0.45015
4951.09,0.45065
4927.94,0.45155
4904.8,0.44978
4881.65,0.44157
4858.51,0.43373
4835.36,0.42016
4812.22,0.42303
4789.07,0.41663
4765.93,0.38201
4742.78,0.37099
4719.64,0.32237
4696.49,0.27348
4673.35,0.15273
4650.2,0.15337
4627.06,0.13600
4603.92,0.12950
4580.77,0.16932
4557.63,0.19176
4534.48,0.23822
4511.34,0.23991
4488.19,0.25217
4465.05,0.26809
4441.9,0.24693
4418.76,0.23407
4395.61,0.20049
4372.47,0.16160
4349.32,0.13078
4326.18,0.12097
4303.03,0.13998
4279.89,0.12605
4256.74,0.10619
4233.6,0.10785
4210.45,0.10897
4187.31,0.11720
4164.16,0.12557
4141.02,0.12405
4117.87,0.11457
4094.73,0.10736
4071.58,0.08904
4048.44,0.08158
4025.29,0.08723
4002.15,0.10909
3979,0.12102
3955.86,0.12560
3932.71,0.12360
3909.57,0.12696
3886.42,0.13061
3863.28,0.13107
3840.13,0.12897
3816.99,0.12197
3793.84,0.12565
3770.7,0.13151
3747.55,0.13663
3724.41,0.12792
3701.26,0.12054
3678.12,0.11882
3654.97,0.10746
3631.83,0.12035
3608.68,0.13451
3585.54,0.14285
3562.39,0.15580
3539.25,0.15209
3516.1,0.14636
3492.96,0.14027
3469.81,0.13126
3446.67,0.12389
3423.52,0.13191
3400.38,0.13674
3377.23,0.13891
3354.09,0.14159
3330.94,0.13602
3307.8,0.12760
3284.65,0.12551
3261.51,0.12279
3238.36,0.11855
3215.22,0.10949
3192.07,0.09834
3168.93,0.08751
3145.78,0.08497
3122.64,0.07611
3099.49,0.06594
3076.35,0.06460
3053.2,0.06530
3030.06,0.06271
3006.91,0.06614
2983.77,0.06611
2960.62,0.06504
2937.48,0.06321
2914.33,0.06908
2891.19,0.06832
2868.04,0.06843
2844.9,0.06911
2821.75,0.06957
2798.61,0.07165
2775.46,0.07374
2752.32,0.07649
2729.17,0.07546
2706.03,0.07508
2682.88,0.07433
2659.74,0.07464
2636.59,0.07373
2613.45,0.07494
2590.3,0.07541
2567.16,0.07637
2544.02,0.07610
2520.87,0.07581
2497.73,0.07637
2474.58,0.07931
2451.44,0.08088
2428.29,0.08220
2405.15,0.08112
2382,0.07912
2358.86,0.07611
2335.71,0.07124
2312.57,0.07320
2289.42,0.07836
2266.28,0.07897
2243.13,0.07935
2219.99,0.08190
2196.84,0.08263
2173.7,0.08334
2150.55,0.08496
2127.41,0.08722
2104.26,0.08770
2081.12,0.08832
2057.97,0.08577
2034.83,0.08322
2011.68,0.07962
1988.54,0.07128
1965.39,0.06682
1942.25,0.06593
1919.1,0.06906
1895.96,0.06739
1872.81,0.06585
1849.67,0.06877
1826.52,0.06671
1803.38,0.06531
1780.23,0.06710
1757.09,0.06558
1733.94,0.06529
1710.8,0.06696
1687.65,0.06555
1664.51,0.06471
1641.36,0.06542
1618.22,0.06438
1595.07,0.06599
1571.93,0.06586
1548.78,0.06396
1525.64,0.06392
1502.49,0.06073
1479.35,0.06537
1456.2,0.05942
1433.06,0.06754
1409.91,0.06566
1386.77,0.06396
1363.62,0.06460
1340.48,0.06489
1317.33,0.06507
1294.19,0.06448
1271.04,0.06527
1247.9,0.06485
1224.75,0.06427
1201.61,0.06325
1178.46,0.06424
1155.32,0.06412
1132.17,0.06536
1109.03,0.06374
1085.88,0.06233
1062.74,0.06331
1039.59,0.06238
1016.45,0.06557
993.304,0.06384
970.159,0.06346
947.014,0.06292
923.869,0.06229
900.724,0.06306
877.579,0.06189
854.434,0.06107
831.289,0.06062
808.144,0.05877
784.999,0.05453
761.854,0.05511
738.709,0.06517
715.565,0.04921
692.42,0.11103
669.275,0.07302
646.13,0.07045
622.985,0.06783
599.84,0.06790

File: PlasticC_IS_S_220907_R6.dpt
7497.03,0.82565
7473.89,0.83071
7450.74,0.80526
7427.6,0.78955
7404.45,0.80232
7381.31,0.80817
7358.16,0.80576
7335.02,0.79705
7311.87,0.77378
7288.73,0.76170
7265.58,0.74760
7242.44,0.72084
7219.29,0.72363
7196.15,0.69710
7173,0.69186
7149.86,0.69638
7126.71,0.69847
7103.57,0.68162
7080.42,0.68073
7057.28,0.67606
7034.13,0.68360
7010.99,0.68831
6987.84,0.68909
6964.7,0.69228
6941.55,0.69845
6918.41,0.69713
6895.26,0.70945
6872.12,0.72354
6848.97,0.71968
6825.83,0.72731
6802.68,0.73239
6779.54,0.73433
6756.39,0.73896
6733.25,0.74488
6710.1,0.74445
6686.96,0.74998
6663.82,0.75718
6640.67,0.76406
6617.53,0.76630
6594.38,0.76601
6571.24,0.77514
6548.09,0.77766
6524.95,0.77819
6501.8,0.79321
6478.66,0.79352
6455.51,0.79910
6432.37,0.79610
6409.22,0.79793
6386.08,0.79042
6362.93,0.78573
6339.79,0.78150
6316.64,0.77149
6293.5,0.76033
6270.35,0.75645
6247.21,0.73646
6224.06,0.71919
6200.92,0.68942
6177.77,0.64448
6154.63,0.56139
6131.48,0.49149
6108.34,0.43313
6085.19,0.43653
6062.05,0.46160
6038.9,0.44776
6015.76,0.33298
5992.61,0.24810
5969.47,0.19855
5946.32,0.18872
5923.18,0.20995
5900.03,0.22315
5876.89,0.26920
5853.74,0.29315
5830.6,0.30036
5807.45,0.30028
5784.31,0.30966
5761.16,0.36345
5738.02,0.40463
5714.87,0.36942
5691.73,0.33850
5668.58,0.32147
5645.44,0.35017
5622.29,0.38201
5599.15,0.38675
5576,0.38539
5552.86,0.39153
5529.71,0.39179
5506.57,0.39741
5483.42,0.41194
5460.28,0.42100
5437.13,0.41649
5413.99,0.41182
5390.84,0.40829
5367.7,0.40880
5344.55,0.42300
5321.41,0.43424
5298.26,0.43751
5275.12,0.44181
5251.97,0.44138
5228.83,0.44024
5205.68,0.44952
5182.54,0.45364
5159.39,0.45557
5136.25,0.45210
5113.1,0.45217
5089.96,0.45700
5066.81,0.45690
5043.67,0.45414
5020.52,0.45937
4997.38,0.45445
4974.23,0.44596
4951.09,0.44754
4927.94,0.44686
4904.8,0.44644
4881.65,0.43652
4858.51,0.42975
4835.36,0.41721
4812.22,0.42023
4789.07,0.41420
4765.93,0.37982
4742.78,0.36860
4719.64,0.31994
4696.49,0.27211
4673.35,0.15047
4650.2,0.15185
4627.06,0.13599
4603.92,0.12848
4580.77,0.16805
4557.63,0.18991
4534.48,0.23599
4511.34,0.23815
4488.19,0.25068
4465.05,0.26572
4441.9,0.24537
4418.76,0.23296
4395.61,0.19826
4372.47,0.16020
4349.32,0.12988
4326.18,0.11980
4303.03,0.13928
4279.89,0.12542
4256.74,0.10583
4233.6,0.10720
4210.45,0.10806
4187.31,0.11625
4164.16,0.12388
4141.02,0.12456
4117.87,0.11391
4094.73,0.10653
4071.58,0.08887
4048.44,0.08095
4025.29,0.08659
4002.15,0.10797
3979,0.12048
3955.86,0.12512
3932.71,0.12237
3909.57,0.12730
3886.42,0.13030
3863.28,0.13072
3840.13,0.12719
3816.99,0.12118
3793.84,0.12458
3770.7,0.13076
3747.55,0.13579
3724.41,0.12659
3701.26,0.11991
3678.12,0.11832
3654.97,0.10599
3631.83,0.11875
3608.68,0.13369
3585.54,0.14224
3562.39,0.15470
3539.25,0.15142
3516.1,0.14537
3492.96,0.13938
3469.81,0.13035
3446.67,0.12339
3423.52,0.13087
3400.38,0.13561
3377.23,0.13802
3354.09,0.14078
3330.94,0.13500
3307.8,0.12565
3284.65,0.12423
3261.51,0.12195
3238.36,0.11869
3215.22,0.10811
3192.07,0.09758
3168.93,0.08709
3145.78,0.08429
3122.64,0.07523
3099.49,0.06566
3076.35,0.06406
3053.2,0.06483
3030.06,0.06238
3006.91,0.06569
2983.77,0.06655
2960.62,0.06443
2937.48,0.06302
2914.33,0.06933
2891.19,0.06844
2868.04,0.06751
2844.9,0.06844
2821.75,0.06961
2798.61,0.07094
2775.46,0.07268
2752.32,0.07588
2729.17,0.07513
2706.03,0.07464
2682.88,0.07397
2659.74,0.07410
2636.59,0.07323
2613.45,0.07415
2590.3,0.07528
2567.16,0.07583
2544.02,0.07545
2520.87,0.07536
2497.73,0.07577
2474.58,0.07848
2451.44,0.07998
2428.29,0.08215
2405.15,0.08086
2382,0.07864
2358.86,0.07583
2335.71,0.07090
2312.57,0.07308
2289.42,0.07772
2266.28,0.07841
2243.13,0.07878
2219.99,0.08105
2196.84,0.08251
2173.7,0.08339
2150.55,0.08415
2127.41,0.08615
2104.26,0.08746
2081.12,0.08804
2057.97,0.08551
2034.83,0.08242
2011.68,0.07893
1988.54,0.07139
1965.39,0.06647
1942.25,0.06550
1919.1,0.06860
1895.96,0.06695
1872.81,0.06532
1849.67,0.06842
1826.52,0.06678
1803.38,0.06505
1780.23,0.06666
1757.09,0.06510
1733.94,0.06528
1710.8,0.06617
1687.65,0.06532
1664.51,0.06436
1641.36,0.06525
1618.22,0.06457
1595.07,0.06570
1571.93,0.06531
1548.78,0.06410
1525.64,0.06421
1502.49,0.06005
1479.35,0.06546
1456.2,0.05887
1433.06,0.06760
1409.91,0.06554
1386.77,0.06388
1363.62,0.06428
1340.48,0.06433
1317.33,0.06440
1294.19,0.06471
1271.04,0.06444
1247.9,0.06469
1224.75,0.06423
1201.61,0.06406
1178.46,0.06404
1155.32,0.06382
1132.17,0.06488
1109.03,0.06377
1085.88,0.06231
1062.74,0.06296
1039.59,0.06248
1016.45,0.06567
993.304,0.06369
970.159,0.06316
947.014,0.06285
923.869,0.06248
900.724,0.06285
877.579,0.06156
854.434,0.06141
831.289,0.06028
808.144,0.05884
784.999,0.05461
761.854,0.05476
738.709,0.06472
715.565,0.04927
692.42,0.11052
669.275,0.07352
646.13,0.06914
622.985,0.06587
599.84,0.06530

File: PlasticC_IS_S_220907_R7.dpt
7497.03,0.83343
7473.89,0.82082
7450.74,0.82035
7427.6,0.79520
7404.45,0.79697
7381.31,0.80512
7358.16,0.80005
7335.02,0.79699
7311.87,0.77763
7288.73,0.76568
7265.58,0.74023
7242.44,0.73193
7219.29,0.72014
7196.15,0.70477
7173,0.70147
7149.86,0.69585
7126.71,0.69230
7103.57,0.68854
7080.42,0.66439
7057.28,0.67810
7034.13,0.68310
7010.99,0.69606
6987.84,0.68698
6964.7,0.69489
6941.55,0.69865
6918.41,0.70811
6895.26,0.71167
6872.12,0.71918
6848.97,0.72898
6825.83,0.73140
6802.68,0.73342
6779.54,0.74108
6756.39,0.74491
6733.25,0.73893
6710.1,0.74961
6686.96,0.75609
6663.82,0.76497
6640.67,0.76747
6617.53,0.77079
6594.38,0.77439
6571.24,0.77981
6548.09,0.78335
6524.95,0.78469
6501.8,0.79238
6478.66,0.79565
6455.51,0.79681
6432.37,0.80403
6409.22,0.79886
6386.08,0.79199
6362.93,0.78571
6339.79,0.78106
6316.64,0.77618
6293.5,0.76126
6270.35,0.75832
6247.21,0.74451
6224.06,0.72265
6200.92,0.69425
6177.77,0.64905
6154.63,0.56517
6131.48,0.49384
6108.34,0.43571
6085.19,0.43867
6062.05,0.46169
6038.9,0.45052
6015.76,0.33302
5992.61,0.25148
5969.47,0.19967
5946.32,0.19409
5923.18,0.21000
5900.03,0.22433
5876.89,0.26919
5853.74,0.29788
5830.6,0.30163
5807.45,0.30341
5784.31,0.30964
5761.16,0.36434
5738.02,0.40673
5714.87,0.36965
5691.73,0.33980
5668.58,0.32282
5645.44,0.35285
5622.29,0.38590
5599.15,0.38741
5576,0.38720
5552.86,0.39454
5529.71,0.39244
5506.57,0.39884
5483.42,0.41391
5460.28,0.41965
5437.13,0.41798
5413.99,0.41573
5390.84,0.40967
5367.7,0.40974
5344.55,0.42480
5321.41,0.43796
5298.26,0.43816
5275.12,0.44564
5251.97,0.44461
5228.83,0.44197
5205.68,0.45151
5182.54,0.45560
5159.39,0.45954
5136.25,0.45491
5113.1,0.45251
5089.96,0.45814
5066.81,0.46026
5043.67,0.45707
5020.52,0.45975
4997.38,0.45792
4974.23,0.44881
4951.09,0.45039
4927.94,0.44898
4904.8,0.44937
4881.65,0.43903
4858.51,0.43269
4835.36,0.41872
4812.22,0.42137
4789.07,0.41601
4765.93,0.37855
4742.78,0.37018
4719.64,0.32045
4696.49,0.27285
4673.35,0.15175
4650.2,0.15381
4627.06,0.13527
4603.92,0.12892
4580.77,0.16869
4557.63,0.19092
4534.48,0.23774
4511.34,0.23874
4488.19,0.25146
4465.05,0.26740
4441.9,0.24643
4418.76,0.23340
4395.61,0.19930
4372.47,0.16107
4349.32,0.13021
4326.18,0.12090
4303.03,0.14011
4279.89,0.12597
4256.74,0.10603
4233.6,0.10720
4210.45,0.10910
4187.31,0.11771
4164.16,0.12516
4141.02,0.12418
4117.87,0.11508
4094.73,0.10741
4071.58,0.08902
4048.44,0.08179
4025.29,0.08702
4002.15,0.10874
3979,0.12079
3955.86,0.12539
3932.71,0.12244
3909.57,0.12765
3886.42,0.13065
3863.28,0.13037
3840.13,0.12828
3816.99,0.12164
3793.84,0.12502
3770.7,0.13036
3747.55,0.13672
3724.41,0.12737
3701.26,0.12108
3678.12,0.11951
3654.97,0.10705
3631.83,0.11967
3608.68,0.13492
3585.54,0.14274
3562.39,0.15498
3539.25,0.15249
3516.1,0.14610
3492.96,0.13988
3469.81,0.13025
3446.67,0.12347
3423.52,0.13085
3400.38,0.13601
3377.23,0.13772
3354.09,0.14159
3330.94,0.13590
3307.8,0.12692
3284.65,0.12516
3261.51,0.12241
3238.36,0.11797
3215.22,0.10928
3192.07,0.09840
3168.93,0.08739
3145.78,0.08490
3122.64,0.07566
3099.49,0.06555
3076.35,0.06415
3053.2,0.06520
3030.06,0.06291
3006.91,0.06653
2983.77,0.06627
2960.62,0.06440
2937.48,0.06340
2914.33,0.06937
2891.19,0.06820
2868.04,0.06764
2844.9,0.06869
2821.75,0.06996
2798.61,0.07192
2775.46,0.07324
2752.32,0.07644
2729.17,0.07497
2706.03,0.07483
2682.88,0.07425
2659.74,0.07466
2636.59,0.07338
2613.45,0.07467
2590.3,0.07543
2567.16,0.07622
2544.02,0.07535
2520.87,0.07592
2497.73,0.07652
2474.58,0.07884
2451.44,0.08066
2428.29,0.08203
2405.15,0.08082
2382,0.07941
2358.86,0.07579
2335.71,0.07114
2312.57,0.07322
2289.42,0.07798
2266.28,0.07921
2243.13,0.07938
2219.99,0.08156
2196.84,0.08282
2173.7,0.08343
2150.55,0.08422
2127.41,0.08662
2104.26,0.08770
2081.12,0.08801
2057.97,0.08565
2034.83,0.08285
2011.68,0.07960
1988.54,0.07130
1965.39,0.06663
1942.25,0.06565
1919.1,0.06894
1895.96,0.06741
1872.81,0.06560
1849.67,0.06846
1826.52,0.06670
1803.38,0.06508
1780.23,0.06714
1757.09,0.06543
1733.94,0.06588
1710.8,0.06634
1687.65,0.06496
1664.51,0.06471
1641.36,0.06545
1618.22,0.06452
1595.07,0.06601
1571.93,0.06547
1548.78,0.06411
1525.64,0.06416
1502.49,0.06007
1479.35,0.06559
1456.2,0.05958
1433.06,0.06764
1409.91,0.06571
1386.77,0.06433
1363.62,0.06504
1340.48,0.06479
1317.33,0.06447
1294.19,0.06448
1271.04,0.06497
1247.9,0.06433
1224.75,0.06453
1201.61,0.06325
1178.46,0.06410
1155.32,0.06405
1132.17,0.06459
1109.03,0.06322
1085.88,0.06252
1062.74,0.06331
1039.59,0.06180
1016.45,0.06507
993.304,0.06386
970.159,0.06306
947.014,0.06302
923.869,0.06162
900.724,0.06289
877.579,0.06214
854.434,0.06034
831.289,0.06034
808.144,0.05859
784.999,0.05440
761.854,0.05541
738.709,0.06417
715.565,0.04969
692.42,0.11061
669.275,0.07387
646.13,0.06846
622.985,0.06544
599.84,0.06477

File: PlasticC_IS_S_220907_R8.dpt
7497.03,0.81572
7473.89,0.81890
7450.74,0.80647
7427.6,0.80028
7404.45,0.80478
7381.31,0.79634
7358.16,0.81308
7335.02,0.78920
7311.87,0.78079
7288.73,0.75524
7265.58,0.74746
7242.44,0.72348
7219.29,0.71319
7196.15,0.70631
7173,0.69316
7149.86,0.69854
7126.71,0.69486
7103.57,0.68892
7080.42,0.67349
7057.28,0.67781
7034.13,0.68705
7010.99,0.69166
6987.84,0.69153
6964.7,0.69087
6941.55,0.69344
6918.41,0.69535
6895.26,0.70929
6872.12,0.71498
6848.97,0.72588
6825.83,0.73074
6802.68,0.72645
6779.54,0.73725
6756.39,0.73454
6733.25,0.74184
6710.1,0.74777
6686.96,0.74922
6663.82,0.75572
6640.67,0.76087
6617.53,0.76549
6594.38,0.76721
6571.24,0.77407
6548.09,0.77163
6524.95,0.77965
6501.8,0.78789
6478.66,0.79518
6455.51,0.79852
6432.37,0.79696
6409.22,0.79614
6386.08,0.79158
6362.93,0.78093
6339.79,0.78264
6316.64,0.77334
6293.5,0.75847
6270.35,0.75636
6247.21,0.73850
6224.06,0.71619
6200.92,0.68749
6177.77,0.64797
6154.63,0.55887
6131.48,0.48998
6108.34,0.43093
6085.19,0.43606
6062.05,0.45862
6038.9,0.44870
6015.76,0.33597
5992.61,0.24982
5969.47,0.19996
5946.32,0.19075
5923.18,0.20732
5900.03,0.22389
5876.89,0.26511
5853.74,0.29553
5830.6,0.30130
5807.45,0.29913
5784.31,0.30921
5761.16,0.36213
5738.02,0.40420
5714.87,0.36856
5691.73,0.33812
5668.58,0.31958
5645.44,0.35045
5622.29,0.38155
5599.15,0.38473
5576,0.38471
5552.86,0.39314
5529.71,0.39065
5506.57,0.39655
5483.42,0.41322
5460.28,0.42127
5437.13,0.41440
5413.99,0.41369
5390.84,0.40823
5367.7,0.40824
5344.55,0.42203
5321.41,0.43476
5298.26,0.43602
5275.12,0.44190
5251.97,0.44110
5228.83,0.43987
5205.68,0.44842
5182.54,0.45385
5159.39,0.45559
5136.25,0.45148
5113.1,0.45105
5089.96,0.45543
5066.81,0.45701
5043.67,0.45344
5020.52,0.45817
4997.38,0.45455
4974.23,0.44557
4951.09,0.44778
4927.94,0.44562
4904.8,0.44555
4881.65,0.43726
4858.51,0.42939
4835.36,0.41541
4812.22,0.41881
4789.07,0.41298
4765.93,0.37888
4742.78,0.36856
4719.64,0.31980
4696.49,0.27124
4673.35,0.15055
4650.2,0.15304
4627.06,0.13503
4603.92,0.12801
4580.77,0.16863
4557.63,0.19064
4534.48,0.23606
4511.34,0.23818
4488.19,0.24902
4465.05,0.26643
4441.9,0.24468
4418.76,0.23279
4395.61,0.19850
4372.47,0.15986
4349.32,0.13042
4326.18,0.11962
4303.03,0.13768
4279.89,0.12531
4256.74,0.10532
4233.6,0.10655
4210.45,0.10788
4187.31,0.11682
4164.16,0.12444
4141.02,0.12382
4117.87,0.11394
4094.73,0.10647
4071.58,0.08795
4048.44,0.08051
4025.29,0.08672
4002.15,0.10832
3979,0.12042
3955.86,0.12455
3932.71,0.12240
3909.57,0.12700
3886.42,0.12977
3863.28,0.13035
3840.13,0.12788
3816.99,0.12166
3793.84,0.12516
3770.7,0.13067
3747.55,0.13617
3724.41,0.12626
3701.26,0.11980
3678.12,0.11913
3654.97,0.10638
3631.83,0.11994
3608.68,0.13358
3585.54,0.14294
3562.39,0.15517
3539.25,0.15111
3516.1,0.14523
3492.96,0.13862
3469.81,0.13068
3446.67,0.12371
3423.52,0.13044
3400.38,0.13505
3377.23,0.13747
3354.09,0.14093
3330.94,0.13503
3307.8,0.12669
3284.65,0.12478
3261.51,0.12169
3238.36,0.11739
3215.22,0.10824
3192.07,0.09786
3168.93,0.08668
3145.78,0.08431
3122.64,0.07530
3099.49,0.06615
3076.35,0.06469
3053.2,0.06430
3030.06,0.06259
3006.91,0.06625
2983.77,0.06615
2960.62,0.06468
2937.48,0.06306
2914.33,0.06868
2891.19,0.06888
2868.04,0.06760
2844.9,0.06869
2821.75,0.06983
2798.61,0.07121
2775.46,0.07292
2752.32,0.07595
2729.17,0.07494
2706.03,0.07468
2682.88,0.07443
2659.74,0.07430
2636.59,0.07331
2613.45,0.07471
2590.3,0.07495
2567.16,0.07571
2544.02,0.07541
2520.87,0.07517
2497.73,0.07593
2474.58,0.07808
2451.44,0.08000
2428.29,0.08198
2405.15,0.08067
2382,0.07859
2358.86,0.07553
2335.71,0.07065
2312.57,0.07322
2289.42,0.07769
2266.28,0.07837
2243.13,0.07945
2219.99,0.08108
2196.84,0.08235
2173.7,0.08333
2150.55,0.08403
2127.41,0.08637
2104.26,0.08694
2081.12,0.08841
2057.97,0.08530
2034.83,0.08270
2011.68,0.07923
1988.54,0.07114
1965.39,0.06621
1942.25,0.06548
1919.1,0.06846
1895.96,0.06675
1872.81,0.06552
1849.67,0.06816
1826.52,0.06634
1803.38,0.06476
1780.23,0.06684
1757.09,0.06487
1733.94,0.06560
1710.8,0.06633
1687.65,0.06477
1664.51,0.06437
1641.36,0.06539
1618.22,0.06405
1595.07,0.06572
1571.93,0.06517
1548.78,0.06358
1525.64,0.06367
1502.49,0.05976
1479.35,0.06551
1456.2,0.05922
1433.06,0.06750
1409.91,0.06531
1386.77,0.06399
1363.62,0.06456
1340.48,0.06473
1317.33,0.06446
1294.19,0.06410
1271.04,0.06468
1247.9,0.06413
1224.75,0.06480
1201.61,0.06344
1178.46,0.06393
1155.32,0.06391
1132.17,0.06515
1109.03,0.06267
1085.88,0.06192
1062.74,0.06249
1039.59,0.06241
1016.45,0.06503
993.304,0.06432
970.159,0.06272
947.014,0.06275
923.869,0.06204
900.724,0.06361
877.579,0.06097
854.434,0.06056
831.289,0.06040
808.144,0.05803
784.999,0.05488
761.854,0.05505
738.709,0.06452
715.565,0.04928
692.42,0.11042
669.275,0.07344
646.13,0.06941
622.985,0.06942
599.84,0.06636

File: PlasticC_IS_T_220907_R3.dpt
7497.03,0.03197
7473.89,0.02958
7450.74,0.02330
7427.6,0.01727
7404.45,0.02604
7381.31,0.02059
7358.16,0.02540
7335.02,0.02488
7311.87,0.02246
7288.73,0.02071
7265.58,0.02866
7242.44,0.02511
7219.29,0.02463
7196.15,0.02721
7173,0.02252
7149.86,0.02970
7126.71,0.02394
7103.57,0.02432
7080.42,0.01699
7057.28,0.02400
7034.13,0.02718
7010.99,0.01872
6987.84,0.01748
6964.7,0.01942
6941.55,0.02549
6918.41,0.02071
6895.26,0.02383
6872.12,0.02262
6848.97,0.01981
6825.83,0.02581
6802.68,0.02694
6779.54,0.02356
6756.39,0.01975
6733.25,0.02431
6710.1,0.02388
6686.96,0.02094
6663.82,0.02335
6640.67,0.02492
6617.53,0.01798
6594.38,0.02206
6571.24,0.02724
6548.09,0.02474
6524.95,0.02181
6501.8,0.01738
6478.66,0.02173
6455.51,0.02101
6432.37,0.02300
6409.22,0.02550
6386.08,0.02305
6362.93,0.01942
6339.79,0.02354
6316.64,0.02096
6293.5,0.02191
6270.35,0.02198
6247.21,0.02160
6224.06,0.02179
6200.92,0.02274
6177.77,0.02372
6154.63,0.02105
6131.48,0.02430
6108.34,0.02224
6085.19,0.02064
6062.05,0.02294
6038.9,0.02040
6015.76,0.02305
5992.61,0.01968
5969.47,0.02055
5946.32,0.02267
5923.18,0.02060
5900.03,0.02153
5876.89,0.02267
5853.74,0.02234
5830.6,0.02247
5807.45,0.02188
5784.31,0.02091
5761.16,0.02334
5738.02,0.02149
5714.87,0.02126
5691.73,0.02192
5668.58,0.01948
5645.44,0.02095
5622.29,0.02059
5599.15,0.02090
5576,0.02030
5552.86,0.02177
5529.71,0.02266
5506.57,0.02180
5483.42,0.02194
5460.28,0.02178
5437.13,0.02179
5413.99,0.02211
5390.84,0.02219
5367.7,0.02232
5344.55,0.02290
5321.41,0.02049
5298.26,0.02163
5275.12,0.02158
5251.97,0.02305
5228.83,0.02201
5205.68,0.02289
5182.54,0.02300
5159.39,0.02201
5136.25,0.02119
5113.1,0.02268
5089.96,0.02287
5066.81,0.02224
5043.67,0.02302
5020.52,0.02196
4997.38,0.02229
4974.23,0.02243
4951.09,0.02289
4927.94,0.02145
4904.8,0.02112
4881.65,0.02161
4858.51,0.02351
4835.36,0.02150
4812.22,0.02202
4789.07,0.02201
4765.93,0.02248
4742.78,0.02177
4719.64,0.02281
4696.49,0.02209
4673.35,0.02058
4650.2,0.02121
4627.06,0.02238
4603.92,0.02190
4580.77,0.02266
4557.63,0.02218
4534.48,0.02228
4511.34,0.02233
4488.19,0.02221
4465.05,0.02119
4441.9,0.02298
4418.76,0.02234
4395.61,0.02123
4372.47,0.02241
4349.32,0.02221
4326.18,0.02169
4303.03,0.02233
4279.89,0.02224
4256.74,0.02216
4233.6,0.02209
4210.45,0.02336
4187.31,0.02219
4164.16,0.02230
4141.02,0.02199
4117.87,0.02255
4094.73,0.02190
4071.58,0.02235
4048.44,0.02202
4025.29,0.02217
4002.15,0.02214
3979,0.02188
3955.86,0.02198
3932.71,0.02218
3909.57,0.02212
3886.42,0.02242
3863.28,0.02240
3840.13,0.02325
3816.99,0.02259
3793.84,0.02200
3770.7,0.02220
3747.55,0.02159
3724.41,0.02311
3701.26,0.02211
3678.12,0.02233
3654.97,0.02298
3631.83,0.02234
3608.68,0.02148
3585.54,0.02084
3562.39,0.02191
3539.25,0.02125
3516.1,0.02054
3492.96,0.02065
3469.81,0.02028
3446.67,0.02010
3423.52,0.01983
3400.38,0.02008
3377.23,0.02034
3354.09,0.02011
3330.94,0.02046
3307.8,0.02017
3284.65,0.01958
3261.51,0.02064
3238.36,0.02053
3215.22,0.02062
3192.07,0.02015
3168.93,0.02048
3145.78,0.02066
3122.64,0.02062
3099.49,0.02086
3076.35,0.01990
3053.2,0.02029
3030.06,0.02051
3006.91,0.02095
2983.77,0.01992
2960.62,0.01989
2937.48,0.01907
2914.33,0.01977
2891.19,0.02041
2868.04,0.01978
2844.9,0.02049
2821.75,0.02105
2798.61,0.02126
2775.46,0.02114
2752.32,0.02079
2729.17,0.02102
2706.03,0.02141
2682.88,0.02090
2659.74,0.02118
2636.59,0.02075
2613.45,0.02091
2590.3,0.02099
2567.16,0.02102
2544.02,0.02092
2520.87,0.02088
2497.73,0.02110
2474.58,0.02079
2451.44,0.02109
2428.29,0.02108
2405.15,0.02075
2382,0.02121
2358.86,0.02065
2335.71,0.02117
2312.57,0.02077
2289.42,0.02062
2266.28,0.02077
2243.13,0.02074
2219.99,0.02058
2196.84,0.02053
2173.7,0.02042
2150.55,0.02071
2127.41,0.02051
2104.26,0.02069
2081.12,0.02087
2057.97,0.02070
2034.83,0.02011
2011.68,0.02065
1988.54,0.02077
1965.39,0.02036
1942.25,0.02039
1919.1,0.02065
1895.96,0.02032
1872.81,0.02047
1849.67,0.01999
1826.52,0.01984
1803.38,0.01935
1780.23,0.01885
1757.09,0.01737
1733.94,0.01986
1710.8,0.02047
1687.65,0.01897
1664.51,0.01849
1641.36,0.01856
1618.22,0.01876
1595.07,0.01878
1571.93,0.01812
1548.78,0.01778
1525.64,0.01814
1502.49,0.01856
1479.35,0.01871
1456.2,0.01800
1433.06,0.01868
1409.91,0.01844
1386.77,0.01794
1363.62,0.01797
1340.48,0.01771
1317.33,0.01672
1294.19,0.01736
1271.04,0.01950
1247.9,0.02003
1224.75,0.01881
1201.61,0.01812
1178.46,0.01726
1155.32,0.01721
1132.17,0.01758
1109.03,0.01878
1085.88,0.01737
1062.74,0.01917
1039.59,0.01939
1016.45,0.01945
993.304,0.02056
970.159,0.02042
947.014,0.01893
923.869,0.01943
900.724,0.01936
877.579,0.01883
854.434,0.01954
831.289,0.01900
808.144,0.01843
784.999,0.01835
761.854,0.01828
738.709,0.01890
715.565,0.01781
692.42,0.01776
669.275,0.01608
646.13,0.01676
622.985,0.01658
599.84,0.01314