Folder: fsri_materials_database/01_Data/MDF/Cone (part 2)

File: MDF_HRRPUA_75.csv
Time after Ignition,MDF_R1,MDF_R2,MDF_R3,Mean,Std. Dev.
0.0,23.3,24.4,-0.2,15.8,13.9
4.75,164.7,161.8,134.0,153.5,17.0
9.5,316.7,315.0,281.0,304.3,20.1
14.25,387.9,390.7,374.0,384.2,8.9
19.0,418.0,416.2,402.8,412.4,8.3
23.75,419.9,418.9,410.9,416.6,5.0
28.5,398.6,408.4,411.8,406.3,6.8
33.25,382.4,386.8,386.3,385.2,2.4
38.0,363.8,361.1,370.9,365.3,5.1
42.75,342.2,328.9,338.8,336.6,6.9
47.5,327.8,313.2,319.3,320.1,7.3
52.25,309.4,301.2,314.5,308.4,6.7
57.0,294.8,287.4,302.8,295.0,7.7
61.75,279.7,274.2,287.3,280.4,6.6
66.5,269.3,265.8,278.2,271.1,6.4
71.25,262.9,253.0,268.7,261.5,7.9
76.0,260.8,248.8,260.7,256.8,6.9
80.75,250.2,243.8,248.5,247.5,3.3
85.5,241.6,242.0,242.3,242.0,0.4
90.25,238.6,230.5,242.4,237.2,6.0
95.0,234.6,232.7,238.2,235.2,2.8
99.75,232.9,228.9,233.7,231.8,2.6
104.5,233.4,225.8,228.6,229.3,3.9
109.25,227.0,224.5,227.0,226.2,1.4
114.0,227.0,225.9,230.0,227.6,2.1
118.75,232.6,227.0,223.9,227.8,4.4
123.5,224.8,222.4,222.1,223.1,1.4
128.25,225.4,219.4,227.6,224.2,4.2
133.0,225.6,219.7,224.8,223.4,3.2
137.75,223.6,220.0,223.6,222.4,2.1
142.5,228.7,222.3,230.2,227.1,4.2
147.25,220.3,222.3,223.3,222.0,1.6
152.0,219.8,221.1,222.4,221.1,1.3
156.75,215.3,211.4,222.9,216.6,5.8
161.5,214.5,211.4,217.6,214.5,3.1
166.25,210.3,204.3,217.7,210.7,6.7
171.0,213.6,202.7,212.5,209.6,6.0
175.75,212.2,199.4,205.5,205.7,6.4
180.5,208.3,194.9,205.5,202.9,7.1
185.25,207.5,194.8,205.9,202.7,6.9
190.0,205.2,194.9,203.3,201.1,5.5
194.75,203.4,192.1,204.8,200.1,7.0
199.5,201.2,189.0,201.1,197.1,7.0
204.25,200.3,192.9,203.8,199.0,5.5
209.0,199.0,187.8,197.8,194.9,6.1
213.75,196.7,187.7,195.7,193.4,5.0
218.5,195.7,185.7,192.5,191.3,5.1
223.25,192.6,183.0,192.4,189.3,5.5
228.0,191.9,182.2,195.2,189.8,6.8
232.75,189.0,179.6,188.5,185.7,5.3
237.5,189.3,183.5,188.1,186.9,3.1
242.25,188.1,181.0,184.6,184.6,3.6
247.0,185.5,175.9,182.7,181.4,5.0
251.75,180.2,173.9,182.1,178.7,4.3
256.5,178.3,175.0,178.4,177.2,1.9
261.25,180.1,173.6,177.2,177.0,3.3
266.0,172.7,171.5,177.7,174.0,3.3
270.75,174.5,171.3,173.9,173.2,1.7
275.5,172.4,170.4,175.5,172.7,2.6
280.25,169.1,168.2,172.1,169.8,2.0
285.0,169.4,169.3,168.4,169.0,0.5
289.75,167.9,166.8,166.1,166.9,0.9
294.5,163.0,164.9,164.9,164.3,1.1
299.25,162.0,163.6,161.6,162.4,1.1
304.0,163.6,162.3,159.3,161.7,2.2
308.75,161.6,163.0,161.6,162.1,0.8
313.5,159.5,162.3,157.5,159.8,2.4
318.25,160.9,161.8,155.7,159.5,3.3
323.0,161.7,159.3,152.7,157.9,4.7
327.75,158.3,160.9,154.5,157.9,3.2
332.5,156.7,157.6,150.0,154.8,4.1
337.25,156.8,157.4,149.8,154.7,4.2
342.0,155.8,156.1,151.0,154.3,2.9
346.75,153.7,158.0,148.1,153.3,5.0
351.5,152.5,156.7,148.9,152.7,3.9
356.25,148.2,156.4,149.3,151.3,4.4
361.0,149.7,155.4,144.9,150.0,5.2
365.75,148.9,156.9,148.9,151.6,4.6
370.5,151.1,155.9,145.8,150.9,5.1
375.25,147.3,155.0,144.5,148.9,5.4
380.0,149.4,154.6,147.8,150.6,3.6
384.75,147.8,157.0,147.5,150.7,5.4
389.5,147.4,158.7,145.2,150.4,7.3
394.25,149.0,155.7,146.5,150.4,4.8
399.0,146.3,154.6,142.6,147.8,6.1
403.75,146.0,155.0,144.0,148.3,5.9
408.5,151.4,156.2,143.9,150.5,6.2
413.25,151.7,161.5,143.1,152.1,9.2
418.0,152.0,164.0,147.4,154.5,8.6
422.75,154.8,162.4,146.3,154.5,8.0
427.5,154.3,162.4,147.4,154.7,7.5
432.25,153.3,158.7,148.5,153.5,5.1
437.0,152.3,158.9,147.9,153.0,5.5
441.75,159.7,161.4,149.2,156.8,6.6
446.5,158.5,160.9,152.9,157.4,4.1
451.25,156.4,158.2,149.9,154.8,4.4
456.0,158.7,164.5,151.7,158.3,6.4
460.75,158.7,165.6,154.1,159.5,5.8
465.5,162.8,163.7,152.5,159.7,6.2
470.25,161.6,168.3,154.9,161.6,6.7
475.0,163.8,166.0,156.2,162.0,5.2
479.75,164.8,167.0,160.6,164.1,3.2
484.5,167.3,171.6,161.0,166.6,5.4
489.25,166.2,170.3,159.1,165.2,5.7
494.0,167.2,171.6,159.2,166.0,6.3
498.75,167.9,172.9,162.6,167.8,5.2
503.5,169.5,171.2,164.1,168.3,3.7
508.25,170.1,170.5,169.0,169.8,0.8
513.0,173.6,173.7,171.2,172.8,1.4
517.75,174.2,174.6,167.0,172.0,4.3
522.5,174.1,172.9,169.9,172.3,2.1
527.25,174.1,174.3,171.2,173.2,1.7
532.0,172.8,174.7,173.0,173.5,1.0
536.75,173.5,172.3,173.6,173.2,0.7
541.5,175.1,173.2,175.0,174.4,1.1
546.25,175.9,177.8,176.2,176.7,1.0
551.0,173.1,176.0,179.9,176.3,3.4
555.75,174.6,170.8,181.2,175.6,5.3
560.5,174.6,174.6,180.8,176.7,3.5
565.25,172.3,176.7,180.5,176.5,4.1
570.0,175.8,180.0,184.0,180.0,4.1
574.75,175.9,177.6,185.2,179.6,5.0
579.5,177.1,179.2,180.9,179.1,1.9
584.25,174.1,181.5,181.6,179.1,4.3
589.0,174.1,180.8,179.3,178.1,3.5
593.75,171.9,183.0,182.8,179.2,6.4
598.5,173.7,182.7,180.1,178.8,4.6
603.25,174.4,181.7,181.1,179.1,4.0
608.0,178.5,185.0,177.8,180.5,4.0
612.75,177.4,184.5,180.2,180.7,3.6
617.5,178.8,190.3,183.8,184.3,5.7
622.25,181.5,188.9,181.7,184.0,4.3
627.0,178.6,189.7,183.5,183.9,5.6
631.75,182.3,195.4,186.3,188.0,6.7
636.5,185.2,193.7,186.7,188.5,4.5
641.25,188.7,198.9,188.2,191.9,6.1
646.0,183.7,197.0,185.0,188.6,7.4
650.75,189.0,199.1,187.2,191.8,6.5
655.5,191.2,203.0,190.2,194.8,7.1
660.25,194.7,201.1,192.4,196.1,4.5
665.0,192.6,201.7,193.7,196.0,5.0
669.75,195.8,201.6,193.1,196.9,4.3
674.5,198.1,201.6,188.8,196.2,6.7
679.25,195.8,201.9,190.9,196.2,5.5
684.0,198.1,209.0,196.0,201.0,7.0
688.75,206.9,205.0,197.0,203.0,5.2
693.5,203.8,210.4,199.2,204.4,5.6
698.25,203.0,210.7,198.2,204.0,6.3
703.0,206.4,211.7,202.1,206.7,4.8
707.75,210.4,210.4,202.3,207.7,4.7
712.5,212.4,207.5,203.2,207.7,4.6
717.25,216.6,209.7,204.4,210.2,6.1
722.0,218.7,214.3,205.9,213.0,6.5
726.75,216.9,210.4,204.9,210.8,6.0
731.5,216.7,205.5,204.8,209.0,6.7
736.25,214.8,205.7,202.6,207.7,6.4
741.0,217.7,204.0,205.4,209.0,7.6
745.75,211.6,195.4,198.6,201.9,8.5
750.5,211.4,192.3,193.6,199.1,10.7
755.25,198.7,176.4,187.1,187.4,11.1
760.0,189.4,163.1,173.5,175.3,13.2
764.75,176.2,147.8,160.6,161.5,14.2
769.5,169.0,136.4,149.9,151.8,16.4
774.25,154.4,127.6,135.6,139.2,13.7
779.0,135.6,117.8,120.7,124.7,9.5
783.75,121.4,108.5,106.9,112.3,7.9
788.5,101.7,98.7,98.3,99.6,1.9
793.25,89.0,91.4,88.0,89.5,1.7
798.0,76.8,87.8,83.0,82.5,5.5
802.75,71.2,82.5,77.3,77.0,5.7
807.5,67.9,78.4,69.6,71.9,5.7
812.25,62.8,76.9,65.8,68.5,7.4
817.0,61.5,77.1,63.8,67.5,8.4
821.75,59.9,75.3,59.2,64.8,9.1
826.5,58.4,71.4,58.0,62.6,7.6
831.25,56.4,76.1,57.1,63.2,11.2
836.0,54.6,76.3,54.9,61.9,12.4
840.75,53.7,80.9,54.4,63.0,15.5
845.5,54.7,78.1,52.7,61.8,14.1
850.25,54.1,76.2,52.7,61.0,13.2
855.0,55.3,75.8,52.4,61.2,12.7
859.75,58.8,75.2,54.2,62.8,11.0
864.5,59.6,72.9,54.2,62.2,9.6
869.25,58.1,73.8,52.3,61.4,11.1
874.0,56.2,73.6,52.1,60.7,11.4
878.75,53.4,70.9,51.8,58.7,10.6
883.5,54.0,70.3,50.3,58.2,10.6
888.25,55.7,72.4,51.1,59.7,11.2
893.0,57.0,71.7,49.8,59.5,11.2
897.75,57.7,70.7,48.9,59.1,11.0
902.5,57.4,70.1,50.8,59.5,9.8
907.25,56.7,72.9,50.9,60.2,11.4
912.0,54.8,72.2,49.4,58.8,11.9
916.75,54.8,71.2,50.1,58.7,11.1
921.5,53.5,69.6,49.7,57.6,10.6
926.25,52.5,69.0,49.6,57.0,10.4
931.0,53.1,67.7,50.0,56.9,9.5
935.75,52.6,68.0,,60.3,10.9
940.5,52.2,66.9,,59.5,10.4
945.25,52.3,66.8,,59.5,10.3
950.0,51.6,66.3,,59.0,10.4
954.75,50.2,65.9,,58.1,11.0
959.5,51.6,64.6,,58.1,9.2
964.25,52.2,65.3,,58.8,9.3
969.0,51.3,65.2,,58.2,9.9
973.75,51.7,64.1,,57.9,8.8
978.5,53.7,63.1,,58.4,6.7
983.25,52.6,63.5,,58.1,7.7
988.0,53.3,62.8,,58.1,6.7
992.75,55.1,62.1,,58.6,5.0
997.5,53.8,62.6,,58.2,6.2
1002.25,51.8,63.2,,57.5,8.1
1007.0,55.9,62.4,,59.1,4.6
1011.75,55.3,63.8,,59.5,6.0
1016.5,54.6,63.0,,58.8,5.9
1021.25,55.9,62.1,,59.0,4.4
1026.0,52.2,62.9,,57.6,7.5
1030.75,53.0,61.7,,57.4,6.2
1035.5,53.2,62.1,,57.7,6.3
1040.25,52.9,61.3,,57.1,6.0
1045.0,54.3,60.9,,57.6,4.6
1049.75,53.9,62.2,,58.0,5.8
1054.5,51.5,61.9,,56.7,7.4
1059.25,50.1,60.4,,55.3,7.3
1064.0,50.9,61.5,,56.2,7.5
1068.75,52.7,61.2,,56.9,6.0
1073.5,52.2,60.9,,56.5,6.2
1078.25,50.6,60.0,,55.3,6.7
1083.0,49.5,61.7,,55.6,8.6
1087.75,49.0,63.2,,56.1,10.0
1092.5,48.3,61.4,,54.9,9.2
1097.25,48.6,60.3,,54.4,8.3
1102.0,47.6,58.9,,53.2,8.0
1106.75,47.4,,,47.4,
1111.5,46.3,,,46.3,
1116.25,46.6,,,46.6,
1121.0,47.3,,,47.3,
1125.75,47.4,,,47.4,
1130.5,46.3,,,46.3,
1135.25,45.8,,,45.8,
1140.0,46.4,,,46.4,
1144.75,46.9,,,46.9,
1149.5,45.8,,,45.8,
1154.25,45.9,,,45.9,
1159.0,46.5,,,46.5,
1163.75,46.1,,,46.1,
1168.5,46.1,,,46.1,
1173.25,46.6,,,46.6,
1178.0,45.8,,,45.8,
1182.75,45.6,,,45.6,
1187.5,45.4,,,45.4,
1192.25,44.1,,,44.1,
1197.0,45.1,,,45.1,
1201.75,46.2,,,46.2,
1206.5,46.6,,,46.6,
1211.25,47.0,,,47.0,
1216.0,49.7,,,49.7,
1220.75,52.1,,,52.1,
1225.5,53.2,,,53.2,
1230.25,52.9,,,52.9,
1235.0,52.6,,,52.6,
1239.75,50.4,,,50.4,
1244.5,48.1,,,48.1,
1249.25,46.1,,,46.1,
1254.0,45.5,,,45.5,
1258.75,47.1,,,47.1,
1263.5,47.3,,,47.3,
1268.25,46.0,,,46.0,
1273.0,45.6,,,45.6,
1277.75,44.4,,,44.4,
1282.5,44.7,,,44.7,
1287.25,43.6,,,43.6,
1292.0,44.2,,,44.2,
1296.75,42.3,,,42.3,
1301.5,41.6,,,41.6,
1306.25,42.7,,,42.7,
1311.0,42.8,,,42.8,
1315.75,42.7,,,42.7,
1320.5,42.8,,,42.8,
1325.25,42.8,,,42.8,
1330.0,42.5,,,42.5,
1334.75,42.9,,,42.9,
1339.5,42.4,,,42.4,
1344.25,43.3,,,43.3,
1349.0,44.3,,,44.3,
1353.75,44.1,,,44.1,
1358.5,43.8,,,43.8,
1363.25,43.6,,,43.6,
1368.0,43.9,,,43.9,
1370.25,45.0,,,45.0,