Folder: fsri_materials_database/01_Data/MDF/Cone

Note: README.md
# Materials and Products Database
### Repository of materials and products properties and fire test data to improve fire modeling and fire investigation.

This project was supported in part by Award No. 2019-DU-BX-0018, awarded by the National Institute of Justice, Office of Justice Programs, U.S. Department of Justice. The opinions, findings, and conclusions or recommendations expressed in this publication / program / exhibition are those of the author(s) and do not necessarily reflect those of the Department of Justice.

***
***

__Cite this database:__ "McKinnon, M., Weinschenk, C., Dow, N., DiDomizio, M., and Madrzykowski, D. Materials and Products Database (Version 1.0.0), Fire Safety Research Institute, UL Research Institutes. Columbia, MD 21045, 2023."

__Cite the Technical Reference Guide:__ "McKinnon, M., Weinschenk, C., and Madrzykowski, D. Materials and Products Database - Technical Reference Guide, Fire Safety Research Institute, UL Research Institutes. Columbia, MD 21045, 2023."

__Cite the User Guide:__ "McKinnon, M., and Weinschenk, C. Materials and Products Database - User Guide, Fire Safety Research Institute, UL Research Institutes. Columbia, MD 21045, 2023."

***
***

## Database Structure

## 01_Data/
Raw data generated from each apparatus are included here in plain-text format. The data is organized first by material, next by the short name of test apparatus used, and where applicable additional filtering by test settings.

### Test Apparatus and Data File Structure
- __Cone Calorimeter__ (Cone)
    + Data file structure includes the material, the short name for the apparatus, heat flux setting and scan/scalar, date of test, and replicate number. Scan is for the raw output data and scalar is for the initial conditions and high-level test parameters. 
        * Example: __MDF_Cone_HF25scalar_210323_R1__ stands for the first replicate of scalar data generated from a medium density fiber board test in cone calorimeter exposed to 25 kW/m<sup>2</sup> on March 23, 2021.
    + A _Cone_Notes.csv_ is generated for each material from the __plot_Cone_data.py__ script. For materials whose experiments deviated from typical behavior relevant pictures are included in the respective material directory.
- __Fourier Transform Infrared Spectrometer__ (FTIR)
    + The FTIR directory contains subdirectories for the Attenuated Total Reflectance method (ATR) and the Integrating Sphere (IS)
    + Data file structure for the ATR experiment files includes the material, the abbreviated name for the apparatus, date of test, and replicate number. 
        * Example: __MDF_ATR_210323_R5__ stands for the fifth replicate of data collected with the ATR accessory conducted on June 8, 2021.
    + Data file structure for the IS experiment files includes the material, the abbreviated name for the apparatus, the measurand, whether the test is a sample measurement or standard reference, date of test, and replicate number.
        * Example: __OSB_IS_REFLECT_MEAS_2

File: MDF_HRRPUA_25.csv
Time after Ignition,MDF_R1,MDF_R2,MDF_R3,Mean,Std. Dev.
0.0,2.9,21.4,31.5,18.6,14.5
4.5,75.8,111.7,121.5,103.0,24.0
9.0,159.7,192.8,196.1,182.9,20.1
13.5,204.4,229.9,227.7,220.7,14.2
18.0,236.1,240.3,239.5,238.6,2.2
22.5,239.3,239.3,238.3,239.0,0.6
27.0,241.6,238.1,236.7,238.8,2.5
31.5,241.9,236.0,230.6,236.2,5.6
36.0,231.1,226.6,221.1,226.3,5.0
40.5,222.1,220.9,207.6,216.9,8.0
45.0,213.2,209.0,201.2,207.8,6.1
49.5,203.3,200.2,197.6,200.4,2.8
54.0,197.7,194.3,188.5,193.5,4.6
58.5,187.0,185.7,176.4,183.0,5.8
63.0,189.5,179.8,176.4,181.9,6.8
67.5,177.9,172.6,170.2,173.6,3.9
72.0,166.0,165.1,163.6,164.9,1.2
76.5,159.9,162.5,158.1,160.2,2.2
81.0,155.5,153.9,153.0,154.1,1.3
85.5,156.6,150.1,150.5,152.4,3.7
90.0,149.5,149.2,143.9,147.6,3.2
94.5,146.9,144.9,141.2,144.3,2.9
99.0,144.8,140.9,136.5,140.7,4.2
103.5,142.1,137.1,133.0,137.4,4.5
108.0,137.8,134.9,129.7,134.1,4.1
112.5,131.4,129.6,128.2,129.7,1.6
117.0,131.7,127.4,126.9,128.7,2.6
121.5,129.3,125.8,121.9,125.7,3.7
126.0,126.9,124.4,123.4,124.9,1.8
130.5,125.9,121.6,120.7,122.7,2.8
135.0,124.7,123.2,118.8,122.2,3.0
139.5,122.7,120.6,118.3,120.6,2.2
144.0,118.8,119.6,115.5,118.0,2.2
148.5,115.7,121.0,116.1,117.6,2.9
153.0,117.5,119.4,115.3,117.4,2.1
157.5,116.3,117.3,113.9,115.8,1.7
162.0,113.1,115.9,113.3,114.1,1.6
166.5,110.6,112.8,112.0,111.8,1.1
171.0,111.8,111.4,111.4,111.5,0.3
175.5,109.2,110.4,110.6,110.1,0.8
180.0,106.5,110.1,111.0,109.2,2.4
184.5,106.7,111.2,108.0,108.6,2.3
189.0,103.5,110.2,108.6,107.4,3.5
193.5,102.3,106.7,106.1,105.0,2.4
198.0,102.1,103.8,104.6,103.5,1.3
202.5,101.5,102.0,103.5,102.4,1.0
207.0,102.7,101.7,101.8,102.1,0.6
211.5,100.8,103.0,101.7,101.9,1.1
216.0,99.2,105.6,100.7,101.8,3.4
220.5,99.7,103.7,98.9,100.7,2.6
225.0,99.4,101.1,97.7,99.4,1.7
229.5,97.9,99.4,95.6,97.7,1.9
234.0,97.6,101.9,97.8,99.1,2.4
238.5,97.3,99.1,97.5,97.9,1.0
243.0,96.4,99.3,98.4,98.0,1.5
247.5,95.7,99.1,96.9,97.2,1.7
252.0,97.6,97.3,96.3,97.1,0.7
256.5,93.4,97.2,94.2,94.9,2.0
261.0,93.0,95.6,94.6,94.4,1.3
265.5,92.4,95.1,93.4,93.6,1.4
270.0,92.7,94.6,93.9,93.7,1.0
274.5,91.0,96.0,90.9,92.6,2.9
279.0,90.5,94.7,92.7,92.6,2.1
283.5,91.7,93.5,93.1,92.7,1.0
288.0,92.0,92.2,91.4,91.9,0.4
292.5,92.4,93.7,91.0,92.4,1.3
297.0,90.1,93.3,91.3,91.6,1.6
301.5,93.8,92.4,90.6,92.3,1.6
306.0,92.1,92.4,88.4,91.0,2.2
310.5,90.7,93.5,90.3,91.5,1.7
315.0,89.4,91.7,88.1,89.7,1.8
319.5,89.5,93.6,89.3,90.8,2.4
324.0,89.9,93.0,87.2,90.1,2.9
328.5,90.8,93.4,86.9,90.4,3.3
333.0,87.6,93.9,86.6,89.4,4.0
337.5,87.8,93.0,87.7,89.5,3.0
342.0,89.7,92.2,87.9,89.9,2.2
346.5,90.1,89.9,85.3,88.4,2.7
351.0,88.5,90.0,85.3,87.9,2.4
355.5,86.3,90.6,85.2,87.4,2.9
360.0,86.9,89.7,85.2,87.3,2.2
364.5,86.1,88.4,84.9,86.5,1.8
369.0,86.3,88.0,84.8,86.4,1.6
373.5,88.0,87.2,83.8,86.3,2.3
378.0,87.6,87.5,83.8,86.3,2.2
382.5,85.4,87.9,83.7,85.7,2.1
387.0,87.0,87.7,84.5,86.4,1.7
391.5,84.3,87.5,84.8,85.5,1.7
396.0,84.3,87.7,86.1,86.0,1.7
400.5,85.1,87.3,85.9,86.1,1.1
405.0,84.3,87.2,83.0,84.8,2.1
409.5,85.2,87.9,84.4,85.8,1.8
414.0,84.1,86.6,83.7,84.8,1.6
418.5,84.0,85.7,82.1,83.9,1.8
423.0,82.9,85.3,83.2,83.8,1.3
427.5,83.5,84.6,83.9,84.0,0.5
432.0,82.2,84.5,82.8,83.2,1.2
436.5,81.5,84.1,82.7,82.8,1.3
441.0,79.8,83.2,82.0,81.7,1.7
445.5,80.1,82.6,83.3,82.0,1.7
450.0,79.6,82.3,83.2,81.7,1.9
454.5,77.8,82.9,81.6,80.8,2.7
459.0,78.4,81.3,82.4,80.7,2.1
463.5,79.5,81.2,82.8,81.1,1.7
468.0,78.4,81.7,81.6,80.5,1.9
472.5,77.0,80.6,82.4,80.0,2.8
477.0,77.2,80.2,81.5,79.6,2.2
481.5,76.7,78.9,80.0,78.5,1.7
486.0,77.9,77.4,80.4,78.6,1.6
490.5,77.5,77.9,80.2,78.5,1.5
495.0,75.1,77.7,80.7,77.8,2.8
499.5,76.4,78.5,79.2,78.0,1.4
504.0,75.5,78.3,81.0,78.2,2.7
508.5,76.9,78.3,79.4,78.2,1.3
513.0,77.2,76.0,80.5,77.9,2.4
517.5,75.1,78.7,80.7,78.2,2.8
522.0,75.6,76.8,78.2,76.9,1.3
526.5,75.2,78.1,78.1,77.2,1.7
531.0,75.9,76.5,78.7,77.0,1.5
535.5,75.7,75.0,77.3,76.0,1.2
540.0,74.6,73.7,75.6,74.7,1.0
544.5,74.6,75.6,79.0,76.4,2.3
549.0,74.1,75.2,77.7,75.7,1.8
553.5,73.4,76.0,78.6,76.0,2.6
558.0,72.9,76.4,76.7,75.3,2.1
562.5,72.7,76.6,77.2,75.5,2.4
567.0,71.7,77.3,75.3,74.8,2.8
571.5,72.4,74.0,76.4,74.3,2.0
576.0,71.2,73.5,75.8,73.5,2.3
580.5,71.7,74.0,77.1,74.3,2.7
585.0,72.4,73.7,76.0,74.0,1.8
589.5,70.1,73.4,75.9,73.1,2.9
594.0,69.4,71.6,76.1,72.4,3.4
598.5,70.0,71.9,75.9,72.6,3.0
603.0,70.6,70.6,75.9,72.4,3.0
607.5,70.1,72.1,75.9,72.7,3.0
612.0,69.3,71.0,76.5,72.3,3.8
616.5,68.5,70.3,77.4,72.1,4.7
621.0,69.0,70.3,75.0,71.5,3.2
625.5,68.9,69.8,75.9,71.5,3.8
630.0,69.4,70.4,75.5,71.8,3.3
634.5,72.8,69.3,75.7,72.6,3.2
639.0,73.7,70.4,74.5,72.9,2.2
643.5,72.0,69.4,74.5,71.9,2.5
648.0,71.6,69.6,75.0,72.0,2.7
652.5,69.6,69.8,74.4,71.2,2.7
657.0,68.8,71.0,76.5,72.1,4.0
661.5,69.3,71.0,76.8,72.4,3.9
666.0,69.7,70.8,76.6,72.4,3.7
670.5,70.3,71.3,77.0,72.9,3.6
675.0,69.1,70.3,78.2,72.5,4.9
679.5,68.6,71.8,77.7,72.7,4.6
684.0,68.9,69.8,79.3,72.7,5.7
688.5,70.5,72.3,79.1,74.0,4.5
693.0,71.9,72.8,79.5,74.7,4.2
697.5,70.8,72.6,78.9,74.1,4.3
702.0,69.5,73.9,81.3,74.9,6.0
706.5,70.5,74.2,80.1,74.9,4.9
711.0,73.4,72.3,80.8,75.5,4.6
715.5,73.3,73.5,81.2,76.0,4.5
720.0,74.3,73.8,81.9,76.7,4.6
724.5,74.0,73.8,82.0,76.6,4.7
729.0,74.8,72.7,82.8,76.8,5.3
733.5,75.0,73.1,83.8,77.3,5.7
738.0,74.7,75.1,82.8,77.5,4.5
742.5,74.5,76.4,85.4,78.8,5.8
747.0,74.2,78.5,84.3,79.0,5.0
751.5,78.6,77.3,84.1,80.0,3.6
756.0,79.2,79.1,85.6,81.3,3.7
760.5,79.5,78.3,85.5,81.1,3.9
765.0,78.5,78.6,86.8,81.3,4.8
769.5,79.3,78.6,87.1,81.6,4.7
774.0,78.7,78.5,87.3,81.5,5.0
778.5,79.3,80.4,89.5,83.1,5.6
783.0,80.3,79.4,91.5,83.7,6.8
787.5,81.7,81.9,91.1,84.9,5.4
792.0,81.2,85.4,89.1,85.2,3.9
796.5,82.1,85.2,91.1,86.1,4.5
801.0,85.3,85.1,94.2,88.2,5.2
805.5,84.7,84.3,93.7,87.5,5.3
810.0,86.6,86.0,92.6,88.4,3.6
814.5,87.3,86.7,95.7,89.9,5.0
819.0,88.9,86.5,95.9,90.4,4.9
823.5,88.7,87.3,97.1,91.0,5.3
828.0,89.5,88.2,95.8,91.1,4.1
832.5,90.2,87.7,96.8,91.6,4.7
837.0,91.9,91.1,99.7,94.2,4.7
841.5,91.2,93.2,100.0,94.8,4.6
846.0,93.6,95.5,99.9,96.3,3.2
850.5,93.0,94.4,102.6,96.7,5.2
855.0,94.7,95.0,104.2,98.0,5.4
859.5,96.6,94.9,105.0,98.8,5.4
864.0,97.8,95.3,106.5,99.9,5.9
868.5,100.1,98.1,106.6,101.6,4.5
873.0,100.7,99.7,107.9,102.8,4.5
877.5,103.3,98.2,110.2,103.9,6.0
882.0,104.2,97.6,110.7,104.2,6.5
886.5,105.5,103.1,114.5,107.7,6.0
891.0,107.2,103.5,116.3,109.0,6.6
895.5,106.7,106.4,114.8,109.3,4.8
900.0,113.5,107.7,116.3,112.5,4.4
904.5,111.6,108.6,121.6,113.9,6.8
909.0,115.3,111.9,122.7,116.6,5.5
913.5,118.3,112.4,125.8,118.8,6.7
918.0,118.0,114.6,123.9,118.9,4.7
922.5,121.7,117.6,128.2,122.5,5.3
927.0,120.3,119.9,133.0,124.4,7.4
931.5,123.8,120.6,135.9,126.8,8.0
936.0,127.3,126.3,140.7,131.4,8.1
940.5,130.1,129.2,138.6,132.7,5.2
945.0,130.6,131.8,142.7,135.1,6.7
949.5,136.0,135.6,148.9,140.2,7.6
954.0,140.0,141.0,151.7,144.2,6.5
958.5,139.7,145.3,156.7,147.3,8.6
963.0,144.8,145.0,158.1,149.3,7.6
967.5,146.1,149.7,158.5,151.4,6.4
972.0,150.3,151.5,166.5,156.1,9.0
976.5,155.1,154.1,168.2,159.2,7.9
981.0,155.2,158.7,172.5,162.1,9.1
985.5,160.5,163.2,177.7,167.2,9.3
990.0,161.7,165.9,179.7,169.1,9.4
994.5,165.9,172.7,184.6,174.4,9.5
999.0,166.2,175.3,189.6,177.0,11.8
1003.5,170.7,183.3,193.6,182.5,11.5
1008.0,172.3,185.5,199.8,185.9,13.7
1012.5,176.8,189.4,199.7,188.6,11.5
1017.0,180.9,188.5,204.4,191.3,12.0
1021.5,183.7,193.8,211.1,196.2,13.9
1026.0,184.2,202.2,210.7,199.0,13.5
1030.5,188.7,201.2,215.8,201.9,13.5
1035.0,192.2,208.0,217.3,205.8,12.7
1039.5,196.6,211.7,219.5,209.3,11.7
1044.0,205.2,212.0,218.7,212.0,6.7
1048.5,205.9,221.5,234.3,220.5,14.2
1053.0,212.0,214.8,231.0,219.3,10.3
1057.5,216.5,219.1,234.8,223.4,9.9
1062.0,212.8,225.8,238.9,225.8,13.0
1066.5,225.4,228.2,239.6,231.1,7.6
1071.0,224.3,228.6,245.4,232.8,11.2
1075.5,231.1,224.7,248.8,234.8,12.5
1080.0,236.8,224.4,251.9,237.7,13.8
1084.5,237.5,229.5,253.7,240.2,12.3
1089.0,247.9,235.9,258.3,247.4,11.3
1093.5,250.3,241.2,257.9,249.8,8.4
1098.0,249.3,241.6,256.4,249.1,7.4
1102.5,254.1,249.8,252.8,252.2,2.2
1107.0,261.3,248.0,245.6,251.6,8.4
1111.5,255.0,248.4,238.1,247.2,8.5
1116.0,254.6,247.5,226.6,242.9,14.6
1120.5,254.4,246.9,215.3,238.9,20.7
1125.0,253.2,238.2,198.2,229.9,28.4
1129.5,245.2,228.4,186.0,219.9,30.5
1134.0,236.1,209.7,168.6,204.8,34.0
1138.5,225.2,194.3,150.6,190.0,37.5
1143.0,206.2,173.6,141.6,173.8,32.3
1147.5,190.4,152.1,130.6,157.7,30.3
1152.0,172.0,141.2,122.0,145.1,25.2
1156.5,150.3,130.8,121.7,134.2,14.6
1161.0,138.9,121.5,113.7,124.7,12.9
1165.5,124.8,119.0,105.3,116.4,10.0
1170.0,120.4,112.3,102.0,111.6,9.2
1174.5,112.7,110.2,96.4,106.4,8.8
1179.0,104.1,104.2,91.3,99.9,7.4
1183.5,99.0,100.0,90.4,96.5,5.3
1188.0,90.7,97.4,83.4,90.5,7.0
1192.5,85.5,94.8,80.0,86.8,7.5
1197.0,82.1,91.8,81.1,85.0,5.9
1201.5,76.9,87.6,76.2,80.3,6.4
1206.0,73.6,82.2,74.6,76.8,4.7
1210.5,70.2,80.8,76.3,75.8,5.4
1215.0,67.9,79.6,77.3,74.9,6.2
1219.5,67.4,80.0,76.7,74.7,6.5
1224.0,67.0,77.2,72.7,72.3,5.1
1228.5,65.6,74.9,71.5,70.7,4.7
1233.0,62.7,77.6,72.9,71.1,7.7
1237.5,62.2,77.1,71.1,70.2,7.5
1242.0,62.7,75.4,70.2,69.5,6.4
1246.5,62.5,74.0,75.4,70.6,7.1
1251.0,65.1,72.9,73.8,70.6,4.8
1255.5,63.9,73.1,72.2,69.7,5.0
1260.0,63.2,74.5,69.2,69.0,5.6
1264.5,57.5,74.1,69.4,67.0,8.6
1269.0,60.5,73.6,67.2,67.1,6.6
1273.5,61.9,74.1,64.2,66.7,6.5
1278.0,61.8,73.3,58.6,64.6,7.7
1282.5,61.2,71.3,,66.3,7.2
1287.0,61.2,72.1,,66.6,7.7
1291.5,58.9,70.9,,64.9,8.5
1296.0,57.5,68.5,,63.0,7.8
1300.5,57.1,65.8,,61.5,6.2
1305.0,56.2,64.2,,60.2,5.7
1309.5,57.3,59.2,,58.3,1.3
1314.0,57.4,56.4,,56.9,0.7
1318.5,56.6,,,56.6,
1323.0,57.0,,,57.0,
1327.5,55.4,,,55.4,
1332.0,53.4,,,53.4,
1336.5,52.0,,,52.0,
1341.0,53.2,,,53.2,
1345.5,49.6,,,49.6,
1345.75,49.2,,,49.2,

File: MDF_HRRPUA_50.csv
Time after Ignition,MDF_R1,MDF_R2,MDF_R3,Mean,Std. Dev.
0.0,45.7,34.8,15.7,32.1,15.2
3.5,136.1,151.8,104.3,130.8,24.2
7.0,232.7,233.9,209.4,225.3,13.8
10.5,298.0,286.4,288.5,290.9,6.2
14.0,326.9,314.4,320.9,320.7,6.2
17.5,322.5,314.0,331.2,322.6,8.6
21.0,331.4,316.6,339.2,329.1,11.5
24.5,330.5,310.0,327.5,322.7,11.1
28.0,322.0,305.9,321.3,316.4,9.1
31.5,313.4,304.6,321.0,313.0,8.2
35.0,307.1,299.3,308.6,305.0,5.0
38.5,300.5,294.7,301.7,299.0,3.8
42.0,282.9,280.4,293.2,285.5,6.8
45.5,280.8,268.9,270.7,273.5,6.4
49.0,263.2,261.0,270.3,264.8,4.9
52.5,255.0,248.9,259.4,254.4,5.3
56.0,251.8,248.7,250.7,250.4,1.6
59.5,250.2,230.5,246.6,242.4,10.5
63.0,242.5,232.8,239.0,238.1,4.9
66.5,228.8,222.4,233.1,228.1,5.4
70.0,225.6,217.1,228.7,223.8,6.0
73.5,220.9,217.5,224.3,220.9,3.4
77.0,215.1,211.4,214.5,213.7,2.0
80.5,211.3,207.5,211.2,210.0,2.2
84.0,204.1,202.0,205.8,203.9,1.9
87.5,206.2,202.5,200.4,203.0,2.9
91.0,198.3,201.7,198.2,199.4,2.0
94.5,199.1,193.7,195.9,196.2,2.7
98.0,195.2,193.0,192.8,193.6,1.3
101.5,193.3,190.3,191.0,191.6,1.6
105.0,190.3,182.7,188.5,187.2,4.0
108.5,192.5,186.6,189.1,189.4,3.0
112.0,190.6,180.4,183.4,184.8,5.2
115.5,187.4,179.8,185.4,184.2,3.9
119.0,190.6,179.4,178.4,182.8,6.8
122.5,189.1,177.1,178.3,181.5,6.6
126.0,188.3,177.7,177.1,181.0,6.3
129.5,184.8,176.9,180.2,180.6,4.0
133.0,184.5,175.9,175.8,178.7,5.0
136.5,182.0,173.3,176.0,177.1,4.4
140.0,184.1,177.3,174.0,178.5,5.2
143.5,183.8,175.8,171.1,176.9,6.4
147.0,181.5,181.2,174.2,179.0,4.1
150.5,182.6,180.5,176.3,179.8,3.2
154.0,178.8,175.5,177.3,177.2,1.6
157.5,179.4,179.2,170.6,176.4,5.0
161.0,177.1,176.4,170.0,174.5,3.9
164.5,175.1,174.1,170.9,173.4,2.2
168.0,176.0,170.0,174.0,173.3,3.1
171.5,174.2,170.9,172.9,172.7,1.7
175.0,172.2,165.1,170.3,169.2,3.7
178.5,172.2,169.2,167.1,169.5,2.6
182.0,169.1,162.6,167.8,166.5,3.4
185.5,168.1,164.4,167.4,166.6,2.0
189.0,167.0,160.9,162.9,163.6,3.1
192.5,166.7,163.2,158.2,162.7,4.3
196.0,164.9,163.8,157.7,162.2,3.9
199.5,165.3,160.4,155.3,160.3,5.0
203.0,165.7,158.5,156.2,160.2,5.0
206.5,163.8,158.6,156.9,159.7,3.6
210.0,163.4,159.0,154.0,158.8,4.7
213.5,162.0,157.4,152.4,157.2,4.8
217.0,162.5,157.3,150.0,156.6,6.3
220.5,160.2,156.1,152.0,156.1,4.1
224.0,163.5,155.8,146.9,155.4,8.3
227.5,159.3,156.0,144.2,153.2,7.9
231.0,158.7,154.5,145.7,152.9,6.7
234.5,159.9,156.5,145.9,154.1,7.3
238.0,158.3,153.8,146.0,152.7,6.2
241.5,156.9,153.5,148.4,152.9,4.2
245.0,158.9,150.4,146.6,152.0,6.3
248.5,152.7,152.3,145.6,150.2,4.0
252.0,152.5,152.3,142.8,149.2,5.5
255.5,154.6,152.5,142.8,150.0,6.3
259.0,151.0,148.6,143.4,147.7,3.9
262.5,154.8,148.1,141.4,148.1,6.7
266.0,153.4,147.6,144.6,148.5,4.5
269.5,150.3,144.8,141.7,145.6,4.3
273.0,146.7,143.7,142.7,144.4,2.1
276.5,145.8,144.4,141.3,143.8,2.3
280.0,145.2,145.6,138.6,143.1,3.9
283.5,147.0,142.8,136.9,142.2,5.1
287.0,147.8,142.3,134.2,141.4,6.9
290.5,144.9,140.6,135.3,140.3,4.8
294.0,143.6,142.0,132.4,139.3,6.1
297.5,144.6,139.5,133.8,139.3,5.4
301.0,143.1,138.7,134.6,138.8,4.2
304.5,142.6,137.7,133.1,137.8,4.8
308.0,141.9,136.0,129.2,135.7,6.3
311.5,144.1,135.4,129.6,136.4,7.3
315.0,142.3,132.3,127.9,134.2,7.4
318.5,137.8,135.8,128.5,134.1,4.9
322.0,136.4,131.8,127.4,131.8,4.5
325.5,137.4,130.7,126.3,131.5,5.6
329.0,138.1,131.6,128.8,132.9,4.7
332.5,134.8,129.7,127.1,130.5,3.9
336.0,135.0,127.3,123.9,128.7,5.7
339.5,135.3,130.2,123.6,129.7,5.9
343.0,135.4,128.5,122.4,128.8,6.5
346.5,129.3,129.3,123.5,127.4,3.4
350.0,129.0,128.3,122.2,126.5,3.8
353.5,128.7,124.9,122.2,125.3,3.2
357.0,128.4,125.6,119.0,124.4,4.9
360.5,126.6,123.1,121.7,123.8,2.5
364.0,127.9,123.5,119.6,123.6,4.1
367.5,127.2,122.5,119.6,123.1,3.8
371.0,128.0,120.3,120.0,122.7,4.5
374.5,123.7,119.9,120.0,121.2,2.2
378.0,126.2,119.9,116.7,120.9,4.8
381.5,123.7,120.3,116.1,120.0,3.9
385.0,122.5,119.0,115.5,119.0,3.5
388.5,124.6,118.8,114.6,119.4,5.0
392.0,124.8,118.0,115.4,119.4,4.9
395.5,124.2,117.0,114.0,118.4,5.3
399.0,124.1,115.8,114.8,118.2,5.1
402.5,125.4,118.2,113.1,118.9,6.2
406.0,124.8,116.5,113.2,118.2,5.9
409.5,126.5,117.6,113.6,119.2,6.6
413.0,125.4,118.3,110.7,118.1,7.4
416.5,124.9,115.5,110.8,117.1,7.2
420.0,124.9,119.4,112.1,118.8,6.4
423.5,124.3,117.0,112.4,117.9,6.0
427.0,125.3,116.6,112.2,118.0,6.7
430.5,123.0,117.4,110.1,116.8,6.5
434.0,124.0,115.0,107.0,115.3,8.5
437.5,122.3,112.8,109.0,114.7,6.9
441.0,121.8,112.4,110.0,114.7,6.2
444.5,120.8,112.1,107.4,113.5,6.8
448.0,122.4,113.2,109.2,114.9,6.8
451.5,121.1,114.5,109.8,115.2,5.7
455.0,122.7,115.8,110.0,116.2,6.4
458.5,122.9,114.3,109.9,115.7,6.6
462.0,124.9,113.4,110.1,116.2,7.8
465.5,124.4,113.7,109.4,115.8,7.7
469.0,125.1,114.2,109.0,116.1,8.3
472.5,124.6,111.5,105.9,114.0,9.6
476.0,126.6,112.3,108.3,115.8,9.6
479.5,123.5,114.6,107.0,115.1,8.2
483.0,124.4,113.8,106.6,114.9,9.0
486.5,125.7,112.5,107.5,115.3,9.4
490.0,127.2,112.2,107.5,115.6,10.3
493.5,127.8,113.8,109.8,117.2,9.4
497.0,128.3,115.8,111.4,118.5,8.8
500.5,130.7,114.6,110.2,118.5,10.8
504.0,128.6,116.7,111.6,119.0,8.7
507.5,129.2,120.1,110.4,119.9,9.4
511.0,128.9,121.5,110.6,120.4,9.2
514.5,131.4,121.5,111.3,121.4,10.1
518.0,132.6,121.8,111.3,121.9,10.6
521.5,130.1,121.8,114.6,122.2,7.8
525.0,131.6,121.9,113.3,122.2,9.1
528.5,136.0,122.3,113.8,124.0,11.2
532.0,134.7,123.1,114.3,124.0,10.2
535.5,134.7,124.4,115.6,124.9,9.6
539.0,138.5,126.0,114.2,126.2,12.2
542.5,137.2,128.7,117.2,127.7,10.0
546.0,141.5,126.9,113.8,127.4,13.9
549.5,143.5,131.5,117.2,130.8,13.2
553.0,141.3,132.7,114.9,129.6,13.5
556.5,144.2,134.2,115.8,131.4,14.4
560.0,143.6,137.1,116.0,132.2,14.4
563.5,145.5,137.3,117.8,133.5,14.2
567.0,147.2,135.6,119.7,134.2,13.8
570.5,148.7,137.8,120.7,135.7,14.1
574.0,148.5,143.4,123.7,138.5,13.1
577.5,149.3,142.4,124.0,138.6,13.1
581.0,148.1,143.7,123.1,138.3,13.4
584.5,149.7,145.7,127.1,140.8,12.1
588.0,158.8,148.7,128.5,145.4,15.4
591.5,153.4,150.1,130.3,144.6,12.5
595.0,150.9,150.0,130.1,143.7,11.7
598.5,154.2,154.1,131.7,146.7,13.0
602.0,154.7,154.7,133.7,147.7,12.1
605.5,155.6,156.8,135.1,149.2,12.2
609.0,154.4,158.7,136.9,150.0,11.6
612.5,157.8,161.9,137.3,152.3,13.2
616.0,156.4,164.6,136.7,152.6,14.4
619.5,158.7,165.1,137.7,153.8,14.3
623.0,159.5,167.7,140.8,156.0,13.8
626.5,159.1,175.2,145.3,159.9,14.9
630.0,163.3,175.4,145.1,161.3,15.3
633.5,164.3,180.0,146.6,163.7,16.7
637.0,162.9,176.9,148.0,162.6,14.5
640.5,168.4,180.2,150.1,166.2,15.2
644.0,168.0,180.4,148.2,165.5,16.3
647.5,169.9,181.6,152.2,167.9,14.8
651.0,171.4,183.4,153.3,169.4,15.2
654.5,173.8,184.9,152.4,170.4,16.5
658.0,172.2,187.8,153.8,171.3,17.0
661.5,171.6,185.1,156.9,171.2,14.1
665.0,174.7,189.4,159.3,174.5,15.0
668.5,178.7,191.4,160.0,176.7,15.8
672.0,178.2,191.5,161.0,176.9,15.3
675.5,184.0,193.7,163.8,180.5,15.2
679.0,183.0,195.0,169.2,182.4,12.9
682.5,188.5,193.4,173.5,185.1,10.3
686.0,190.6,192.2,171.3,184.7,11.7
689.5,193.5,197.1,175.7,188.8,11.5
693.0,191.7,193.9,170.0,185.2,13.2
696.5,202.2,199.7,175.3,192.4,14.9
700.0,198.4,196.2,174.3,189.6,13.3
703.5,201.0,201.6,173.7,192.1,15.9
707.0,205.5,198.9,175.9,193.4,15.6
710.5,207.6,198.5,177.9,194.7,15.2
714.0,209.1,205.6,179.3,198.0,16.3
717.5,212.7,206.3,175.2,198.1,20.1
721.0,212.3,207.7,180.9,200.3,17.0
724.5,218.2,212.6,187.1,206.0,16.6
728.0,216.4,211.8,188.4,205.5,15.0
731.5,222.7,213.1,188.3,208.0,17.8
735.0,223.5,215.5,185.2,208.1,20.2
738.5,227.3,221.7,189.6,212.9,20.3
742.0,230.8,221.5,191.2,214.5,20.7
745.5,227.3,225.9,194.8,216.0,18.4
749.0,228.7,226.9,197.7,217.7,17.4
752.5,227.6,236.7,196.5,220.3,21.1
756.0,233.1,232.5,198.7,221.5,19.7
759.5,238.5,231.3,199.4,223.1,20.8
763.0,238.0,240.5,200.0,226.1,22.7
766.5,235.7,240.6,197.0,224.5,23.9
770.0,238.5,241.7,205.4,228.5,20.1
773.5,243.5,242.8,207.9,231.4,20.4
777.0,241.6,247.9,210.6,233.4,20.0
780.5,245.8,242.6,211.4,233.3,19.0
784.0,247.7,246.8,211.1,235.2,20.9
787.5,249.6,248.3,209.2,235.7,22.9
791.0,249.3,247.0,212.4,236.2,20.7
794.5,251.5,246.2,216.9,238.2,18.6
798.0,249.2,248.2,214.1,237.2,20.0
801.5,243.2,241.6,218.0,234.3,14.1
805.0,242.4,236.8,219.5,232.9,11.9
808.5,235.1,231.7,223.0,229.9,6.2
812.0,227.9,230.6,221.8,226.8,4.5
815.5,221.9,226.7,227.8,225.5,3.2
819.0,212.7,218.1,221.9,217.6,4.6
822.5,198.2,213.1,226.2,212.5,14.0
826.0,183.9,201.4,232.2,205.8,24.4
829.5,164.2,190.3,231.8,195.4,34.1
833.0,154.1,174.8,232.4,187.1,40.6
836.5,132.4,160.4,238.0,177.0,54.7
840.0,122.9,140.7,233.4,165.7,59.4
843.5,110.4,129.6,233.9,158.0,66.5
847.0,101.1,114.7,232.2,149.3,72.1
850.5,92.3,107.0,230.6,143.3,76.0
854.0,89.0,100.5,234.3,141.3,80.8
857.5,82.6,94.9,230.0,135.8,81.8
861.0,78.2,87.0,227.5,130.9,83.8
864.5,75.9,79.9,222.5,126.1,83.5
868.0,75.6,75.3,217.4,122.8,82.0
871.5,74.7,72.4,207.2,118.1,77.2
875.0,71.6,71.2,198.1,113.6,73.1
878.5,71.0,67.3,190.0,109.4,69.8
882.0,70.2,66.1,179.3,105.2,64.2
885.5,69.4,64.8,164.5,99.6,56.3
889.0,67.6,63.1,150.2,93.7,49.0
892.5,67.3,61.2,134.9,87.8,40.9
896.0,66.1,59.3,120.7,82.0,33.7
899.5,66.2,58.3,109.3,77.9,27.5
903.0,65.2,56.8,100.3,74.1,23.1
906.5,66.8,56.5,95.0,72.7,20.0
910.0,66.0,56.4,86.7,69.7,15.5
913.5,62.6,57.5,83.4,67.8,13.7
917.0,62.8,59.4,79.3,67.2,10.6
920.5,62.9,61.3,75.5,66.6,7.8
924.0,63.9,61.1,72.9,66.0,6.2
927.5,65.4,59.8,71.3,65.5,5.7
931.0,65.0,57.5,69.1,63.9,5.9
934.5,63.7,55.6,69.4,62.9,6.9
938.0,62.8,54.1,65.3,60.7,5.9
941.5,63.3,53.4,64.1,60.3,6.0
945.0,62.9,51.6,64.3,59.6,7.0
948.5,60.5,51.3,63.9,58.6,6.5
952.0,59.6,50.4,60.9,56.9,5.7
955.5,60.5,49.8,59.8,56.7,6.0
959.0,61.0,50.3,58.6,56.6,5.6
962.5,59.9,51.4,57.4,56.2,4.4
966.0,56.6,54.9,56.1,55.9,0.9
969.5,56.3,55.6,55.2,55.7,0.6
973.0,57.4,55.4,54.8,55.9,1.4
976.5,57.5,55.9,54.3,55.9,1.6
980.0,56.5,55.5,53.7,55.2,1.4
983.5,56.3,53.3,51.3,53.6,2.6
987.0,56.8,52.8,51.3,53.6,2.9
990.5,55.5,51.3,51.0,52.6,2.5
994.0,56.8,50.6,52.3,53.2,3.2
997.5,59.3,51.8,53.2,54.8,4.0
1001.0,62.8,53.5,53.4,56.6,5.4
1002.75,63.5,53.9,53.3,56.9,5.7