Folder: fsri_materials_database/01_Data/Masonite_Board/Cone

Note: README.md
# Materials and Products Database
### Repository of materials and products properties and fire test data to improve fire modeling and fire investigation.

This project was supported in part by Award No. 2019-DU-BX-0018, awarded by the National Institute of Justice, Office of Justice Programs, U.S. Department of Justice. The opinions, findings, and conclusions or recommendations expressed in this publication / program / exhibition are those of the author(s) and do not necessarily reflect those of the Department of Justice.

***
***

__Cite this database:__ "McKinnon, M., Weinschenk, C., Dow, N., DiDomizio, M., and Madrzykowski, D. Materials and Products Database (Version 1.0.0), Fire Safety Research Institute, UL Research Institutes. Columbia, MD 21045, 2023."

__Cite the Technical Reference Guide:__ "McKinnon, M., Weinschenk, C., and Madrzykowski, D. Materials and Products Database - Technical Reference Guide, Fire Safety Research Institute, UL Research Institutes. Columbia, MD 21045, 2023."

__Cite the User Guide:__ "McKinnon, M., and Weinschenk, C. Materials and Products Database - User Guide, Fire Safety Research Institute, UL Research Institutes. Columbia, MD 21045, 2023."

***
***

## Database Structure

## 01_Data/
Raw data generated from each apparatus are included here in plain-text format. The data is organized first by material, next by the short name of test apparatus used, and where applicable additional filtering by test settings.

### Test Apparatus and Data File Structure
- __Cone Calorimeter__ (Cone)
    + Data file structure includes the material, the short name for the apparatus, heat flux setting and scan/scalar, date of test, and replicate number. Scan is for the raw output data and scalar is for the initial conditions and high-level test parameters. 
        * Example: __MDF_Cone_HF25scalar_210323_R1__ stands for the first replicate of scalar data generated from a medium density fiber board test in cone calorimeter exposed to 25 kW/m<sup>2</sup> on March 23, 2021.
    + A _Cone_Notes.csv_ is generated for each material from the __plot_Cone_data.py__ script. For materials whose experiments deviated from typical behavior relevant pictures are included in the respective material directory.
- __Fourier Transform Infrared Spectrometer__ (FTIR)
    + The FTIR directory contains subdirectories for the Attenuated Total Reflectance method (ATR) and the Integrating Sphere (IS)
    + Data file structure for the ATR experiment files includes the material, the abbreviated name for the apparatus, date of test, and replicate number. 
        * Example: __MDF_ATR_210323_R5__ stands for the fifth replicate of data collected with the ATR accessory conducted on June 8, 2021.
    + Data file structure for the IS experiment files includes the material, the abbreviated name for the apparatus, the measurand, whether the test is a sample measurement or standard reference, date of test, and replicate number.
        * Example: __OSB_IS_REFLECT_MEAS_2

File: Masonite_Board_HRRPUA_25.csv
Time after Ignition,Masonite_Board_R1,Masonite_Board_R2,Masonite_Board_R3,Mean,Std. Dev.
0.0,-0.8,2.1,13.8,5.1,7.7
0.75,-0.8,2.3,13.4,5.0,7.5
1.5,-0.8,2.3,13.1,4.9,7.3
2.25,-0.7,2.4,12.9,4.9,7.1
3.0,-0.4,2.4,12.6,4.9,6.8
3.75,-0.2,2.4,11.9,4.7,6.4
4.5,-0.0,2.4,11.6,4.7,6.1
5.25,0.1,2.5,11.4,4.6,5.9
6.0,0.2,2.5,11.1,4.6,5.8
6.75,0.2,2.4,11.0,4.5,5.7
7.5,0.6,2.8,10.8,4.7,5.4
8.25,1.1,3.1,10.4,4.9,4.9
9.0,1.5,3.3,10.1,5.0,4.5
9.75,2.6,3.4,9.8,5.3,4.0
10.5,3.3,4.2,9.6,5.7,3.4
11.25,5.4,5.6,10.6,7.2,3.0
12.0,7.0,8.1,14.1,9.7,3.8
12.75,11.3,12.1,18.3,13.9,3.8
13.5,16.1,19.6,27.8,21.2,6.0
14.25,22.5,30.5,41.8,31.6,9.7
15.0,32.9,44.5,54.2,43.9,10.6
15.75,46.6,57.0,69.1,57.6,11.3
16.5,59.0,73.2,79.1,70.5,10.3
17.25,72.8,85.1,92.2,83.4,9.8
18.0,86.6,96.9,104.2,95.9,8.8
18.75,97.8,108.2,121.7,109.2,12.0
19.5,109.3,117.7,133.1,120.0,12.1
20.25,122.9,129.6,143.7,132.1,10.6
21.0,128.8,137.0,157.1,141.0,14.5
21.75,144.0,148.6,163.5,152.1,10.2
22.5,155.7,157.7,173.0,162.1,9.5
23.25,162.0,170.5,177.7,170.1,7.8
24.0,177.1,183.2,186.4,182.2,4.7
24.75,187.7,181.4,193.3,187.5,6.0
25.5,200.9,193.1,195.7,196.6,4.0
26.25,207.5,193.0,209.5,203.3,9.0
27.0,212.2,202.6,207.7,207.5,4.8
27.75,219.0,202.9,215.8,212.6,8.5
28.5,223.2,210.6,221.9,218.6,6.9
29.25,224.5,217.1,221.8,221.1,3.7
30.0,237.1,225.4,227.8,230.1,6.2
30.75,242.2,225.1,232.6,233.3,8.6
31.5,242.6,234.1,233.8,236.8,4.9
32.25,244.1,233.4,236.2,237.9,5.6
33.0,249.6,239.1,241.2,243.3,5.6
33.75,245.7,237.4,244.6,242.5,4.5
34.5,256.1,236.8,245.4,246.1,9.7
35.25,259.0,244.2,250.9,251.4,7.4
36.0,254.0,240.8,251.5,248.8,7.0
36.75,260.8,243.5,251.7,252.0,8.7
37.5,260.8,253.3,263.2,259.1,5.2
38.25,266.0,251.2,267.2,261.5,8.9
39.0,264.7,256.3,264.0,261.7,4.7
39.75,263.5,261.7,265.4,263.5,1.8
40.5,277.0,263.8,269.5,270.1,6.6
41.25,273.4,263.7,276.8,271.3,6.8
42.0,274.0,267.5,274.5,272.0,3.9
42.75,289.0,271.9,276.8,279.2,8.8
43.5,283.0,273.3,287.6,281.3,7.3
44.25,283.8,271.9,286.3,280.7,7.7
45.0,292.1,271.8,296.4,286.8,13.1
45.75,288.0,275.4,297.4,286.9,11.0
46.5,296.6,270.5,295.5,287.6,14.8
47.25,295.9,280.8,304.5,293.7,12.0
48.0,302.8,287.6,300.4,296.9,8.2
48.75,303.1,289.7,298.2,297.0,6.8
49.5,302.7,293.5,311.3,302.5,8.9
50.25,311.4,295.1,310.8,305.8,9.2
51.0,306.7,303.9,309.1,306.6,2.6
51.75,318.7,296.7,318.7,311.4,12.7
52.5,317.1,299.0,319.6,311.9,11.3
53.25,315.9,304.9,325.1,315.3,10.1
54.0,329.5,304.0,317.7,317.1,12.8
54.75,327.9,311.4,330.5,323.3,10.3
55.5,316.5,310.0,319.3,315.3,4.8
56.25,327.4,314.1,328.4,323.3,8.0
57.0,331.2,314.8,341.5,329.2,13.4
57.75,332.5,320.3,334.1,329.0,7.6
58.5,340.3,319.4,342.6,334.1,12.8
59.25,336.9,326.3,347.6,336.9,10.7
60.0,346.2,333.1,343.8,341.0,7.0
60.75,331.3,329.8,353.9,338.3,13.5
61.5,339.7,329.1,349.7,339.5,10.3
62.25,351.5,321.7,356.1,343.1,18.7
63.0,357.9,337.0,347.1,347.3,10.4
63.75,348.8,342.8,360.8,350.8,9.1
64.5,349.9,345.0,369.1,354.7,12.7
65.25,366.8,344.3,363.9,358.3,12.2
66.0,367.0,348.6,378.7,364.8,15.1
66.75,372.3,361.7,370.5,368.2,5.7
67.5,375.3,348.9,374.5,366.2,15.0
68.25,376.1,352.9,388.2,372.4,17.9
69.0,379.1,364.8,382.4,375.5,9.4
69.75,384.2,359.9,387.3,377.1,15.0
70.5,386.1,370.1,386.8,381.0,9.5
71.25,387.3,357.2,399.3,381.3,21.7
72.0,391.2,375.5,401.3,389.3,13.0
72.75,386.4,377.4,404.4,389.4,13.8
73.5,399.8,374.5,405.8,393.4,16.6
74.25,403.1,376.8,407.6,395.8,16.7
75.0,411.2,373.6,408.2,397.6,20.9
75.75,400.6,376.5,405.3,394.2,15.4
76.5,398.6,389.4,415.2,401.1,13.1
77.25,404.4,383.6,423.3,403.8,19.8
78.0,403.4,387.0,421.4,403.9,17.2
78.75,411.6,388.3,424.9,408.3,18.5
79.5,411.8,387.3,427.8,409.0,20.4
80.25,416.9,384.5,420.7,407.4,19.9
81.0,410.2,392.4,428.9,410.5,18.2
81.75,424.0,387.4,428.1,413.2,22.4
82.5,415.3,404.8,431.2,417.1,13.3
83.25,414.3,397.2,446.1,419.2,24.8
84.0,416.4,410.4,435.0,420.6,12.8
84.75,413.9,408.1,440.5,420.8,17.2
85.5,427.0,418.4,440.1,428.5,10.9
86.25,424.3,412.4,444.0,426.9,16.0
87.0,438.3,405.4,448.6,430.8,22.6
87.75,421.1,412.2,438.2,423.8,13.2
88.5,440.5,411.5,426.9,426.3,14.5
89.25,428.7,423.8,448.0,433.5,12.8
90.0,436.6,416.5,441.9,431.7,13.4
90.75,434.8,421.6,443.6,433.3,11.1
91.5,432.3,419.9,453.2,435.1,16.9
92.25,436.3,436.5,454.3,442.3,10.3
93.0,439.1,434.2,444.8,439.4,5.3
93.75,432.8,435.3,443.5,437.2,5.6
94.5,438.9,444.2,436.8,440.0,3.8
95.25,445.9,438.5,451.2,445.2,6.4
96.0,440.7,437.9,449.8,442.8,6.2
96.75,450.4,426.7,449.3,442.2,13.4
97.5,443.5,438.3,439.2,440.3,2.8
98.25,443.6,440.2,439.4,441.1,2.3
99.0,446.4,440.8,456.1,447.8,7.8
99.75,428.1,454.5,468.5,450.4,20.6
100.5,451.9,440.1,447.8,446.6,6.0
101.25,448.9,445.6,451.1,448.6,2.8
102.0,435.8,439.2,446.4,440.4,5.4
102.75,444.2,438.0,452.7,444.9,7.3
103.5,438.0,438.9,445.9,440.9,4.3
104.25,441.9,447.7,453.6,447.7,5.8
105.0,442.9,451.6,442.9,445.8,5.0
105.75,440.3,443.7,436.4,440.1,3.7
106.5,443.6,452.4,445.5,447.2,4.6
107.25,434.5,455.2,437.5,442.4,11.2
108.0,428.6,447.5,436.5,437.5,9.5
108.75,429.8,445.9,433.1,436.3,8.5
109.5,422.3,438.3,436.5,432.4,8.7
110.25,431.1,437.4,430.8,433.1,3.7
111.0,422.8,441.1,419.5,427.8,11.6
111.75,422.3,440.1,425.1,429.1,9.6
112.5,416.6,443.3,420.7,426.9,14.4
113.25,414.4,440.5,413.7,422.9,15.3
114.0,406.9,427.3,416.2,416.8,10.2
114.75,411.2,428.9,415.3,418.4,9.2
115.5,410.0,429.7,407.4,415.7,12.2
116.25,400.2,430.0,399.9,410.0,17.3
117.0,396.4,411.7,399.4,402.5,8.1
117.75,394.7,411.2,398.4,401.5,8.6
118.5,393.6,417.2,390.3,400.4,14.6
119.25,375.3,407.2,397.6,393.3,16.4
120.0,388.7,401.7,385.2,391.9,8.7
120.75,376.8,395.1,384.0,385.3,9.2
121.5,369.5,394.8,386.7,383.7,12.9
122.25,365.4,389.2,382.6,379.1,12.3
123.0,364.6,387.0,383.4,378.3,12.0
123.75,365.2,379.8,378.6,374.5,8.1
124.5,362.8,384.1,377.0,374.6,10.8
125.25,360.3,376.0,366.4,367.6,7.9
126.0,368.7,386.4,369.3,374.8,10.0
126.75,361.4,387.7,369.5,372.9,13.5
127.5,369.0,371.6,375.9,372.2,3.5
128.25,363.4,377.3,371.8,370.8,7.0
129.0,373.7,370.0,366.6,370.1,3.5
129.75,373.0,381.1,366.6,373.6,7.2
130.5,377.4,377.1,371.5,375.3,3.3
131.25,377.2,378.5,367.1,374.3,6.3
132.0,377.4,378.3,361.4,372.4,9.5
132.75,383.4,382.1,365.0,376.8,10.3
133.5,380.5,389.4,359.0,376.3,15.6
134.25,377.9,384.9,350.3,371.0,18.3
135.0,374.3,383.2,350.3,369.3,17.0
135.75,366.6,384.6,347.3,366.2,18.7
136.5,361.1,371.9,334.6,355.9,19.2
137.25,354.1,368.5,331.0,351.2,18.9
138.0,342.9,355.8,318.4,339.0,19.0
138.75,329.2,353.1,309.1,330.5,22.0
139.5,312.6,341.5,302.6,318.9,20.2
140.25,297.8,329.4,280.9,302.7,24.7
141.0,282.2,318.9,264.9,288.7,27.6
141.75,260.0,306.6,247.0,271.2,31.3
142.5,240.2,289.0,233.4,254.2,30.3
143.25,219.7,270.4,221.0,237.0,28.9
144.0,201.7,261.2,205.8,222.9,33.2
144.75,185.7,239.3,192.7,205.9,29.1
145.5,164.3,223.2,178.1,188.5,30.8
146.25,151.4,213.0,166.5,177.0,32.1
147.0,138.3,195.4,153.2,162.3,29.6
147.75,122.3,187.4,145.9,151.9,32.9
148.5,111.8,171.8,136.3,140.0,30.1
149.25,102.5,153.1,128.1,127.9,25.3
150.0,91.5,141.8,121.5,118.2,25.3
150.75,82.8,130.4,113.1,108.7,24.1
151.5,78.8,119.4,107.6,102.0,20.9
152.25,73.2,111.8,100.3,95.1,19.8
153.0,69.6,100.3,91.9,87.3,15.8
153.75,65.5,92.4,84.9,80.9,13.9
154.5,62.9,84.4,79.2,75.5,11.2
155.25,60.2,78.8,74.5,71.1,9.7
155.5,59.2,75.3,71.4,68.6,8.4

File: Masonite_Board_HRRPUA_50.csv
Time after Ignition,Masonite_Board_R1,Masonite_Board_R2,Masonite_Board_R3,Masonite_Board_R4,Masonite_Board_R5,Masonite_Board_R6,Mean,Std. Dev.
0.0,2.3,3.7,7.3,1.7,4.4,-2.0,2.9,3.1
0.5,1.9,3.9,7.0,1.6,4.6,-1.9,2.9,3.0
1.0,1.6,4.0,6.9,1.6,4.8,-1.8,2.9,3.0
1.5,1.5,4.1,6.8,1.6,5.1,-1.7,2.9,3.1
2.0,1.3,4.3,6.5,1.6,5.3,-1.7,2.9,3.0
2.5,1.1,4.3,6.3,1.5,5.5,-1.5,2.9,3.0
3.0,1.0,4.4,6.0,1.5,5.5,-1.3,2.8,2.9
3.5,0.8,4.5,5.8,1.7,5.6,-1.1,2.9,2.8
4.0,0.8,4.7,5.7,1.9,5.7,-1.0,3.0,2.8
4.5,0.9,4.8,5.6,1.8,5.7,-0.9,3.0,2.7
5.0,1.1,5.0,5.6,1.7,5.8,-0.8,3.1,2.8
5.5,1.3,5.1,5.4,1.9,5.7,-0.7,3.1,2.7
6.0,1.8,5.2,5.4,2.0,5.8,-0.6,3.3,2.6
6.5,2.3,5.4,5.3,2.1,5.8,-0.6,3.4,2.5
7.0,2.7,5.4,5.0,2.2,5.8,-0.5,3.4,2.5
7.5,3.5,5.5,4.8,2.3,5.7,-0.6,3.5,2.4
8.0,4.4,5.5,4.7,2.3,5.6,-0.9,3.6,2.5
8.5,5.1,5.5,4.5,2.3,5.7,-1.0,3.7,2.6
9.0,5.9,5.6,4.5,2.4,5.8,-1.2,3.8,2.8
9.5,7.1,5.5,4.5,2.3,5.9,-1.4,4.0,3.1
10.0,8.4,6.2,4.5,2.1,6.8,-1.5,4.4,3.6
10.5,9.2,6.7,5.2,2.0,7.6,-1.4,4.9,3.9
11.0,12.2,8.1,6.2,2.2,8.1,-1.3,5.9,4.8
11.5,14.8,9.9,8.5,2.5,10.0,0.4,7.7,5.3
12.0,19.6,14.3,11.7,4.7,12.8,1.8,10.8,6.5
12.5,25.8,20.1,16.6,6.6,16.2,6.6,15.3,7.6
13.0,33.1,26.5,23.2,13.1,20.0,12.5,21.4,8.0
13.5,42.3,34.0,30.8,19.3,26.9,19.2,28.7,8.9
14.0,56.0,41.8,39.0,28.7,33.0,25.0,37.2,11.1
14.5,69.9,50.1,47.3,37.1,42.5,32.2,46.5,13.2
15.0,84.1,55.7,56.0,47.8,49.4,38.4,55.2,15.5
15.5,96.6,60.6,65.6,54.8,59.7,43.9,63.5,17.8
16.0,109.7,67.1,75.1,58.0,66.2,51.2,71.2,20.6
16.5,124.5,74.0,80.5,67.8,72.9,56.3,79.3,23.5
17.0,133.0,79.0,91.3,77.0,82.1,63.2,87.6,24.0
17.5,140.5,85.7,97.2,83.9,87.8,70.6,94.3,24.2
18.0,153.6,91.4,101.8,90.0,94.0,76.6,101.2,26.9
18.5,163.1,99.4,110.0,98.2,99.9,83.0,108.9,27.9
19.0,175.0,105.0,117.0,105.1,105.5,89.9,116.2,30.1
19.5,182.3,111.5,124.9,109.1,114.2,100.6,123.8,29.7
20.0,192.8,118.4,132.1,118.3,119.3,103.6,130.8,31.7
20.5,196.7,126.9,137.7,125.7,124.3,113.6,137.5,30.0
21.0,201.9,137.8,142.2,133.0,131.0,118.8,144.1,29.4
21.5,222.4,142.4,154.5,138.5,138.0,127.1,153.8,34.7
22.0,227.0,150.5,158.6,147.1,141.4,130.5,159.2,34.5
22.5,234.2,154.3,168.6,150.2,150.8,138.0,166.0,34.8
23.0,242.2,162.7,171.1,153.9,157.4,147.9,172.5,35.0
23.5,252.3,167.5,174.4,156.1,164.6,149.2,177.4,37.7
24.0,258.8,174.6,186.1,163.1,167.0,154.4,184.0,38.2
24.5,267.6,183.9,192.1,170.6,175.6,159.2,191.5,38.9
25.0,270.3,181.7,192.7,169.5,177.6,165.0,192.8,39.2
25.5,278.6,191.0,198.1,178.1,180.5,169.1,199.2,40.2
26.0,286.3,191.4,206.9,181.4,188.0,175.7,205.0,41.2
26.5,281.6,198.8,210.6,185.3,187.5,181.9,207.6,37.7
27.0,294.8,201.8,213.7,193.3,189.0,187.7,213.4,41.0
27.5,302.2,215.1,218.3,195.7,196.5,188.7,219.4,42.2
28.0,307.0,218.6,221.7,207.4,200.8,198.2,225.6,41.0
28.5,316.4,216.3,228.0,202.2,204.6,199.8,227.9,44.7
29.0,316.6,222.9,232.4,208.4,206.9,200.2,231.2,43.4
29.5,327.7,221.4,233.7,218.5,214.5,214.1,238.3,44.4
30.0,326.2,227.9,240.6,219.6,217.3,213.4,240.8,42.9
30.5,334.4,230.6,248.2,219.7,216.4,218.9,244.7,45.5
31.0,344.4,226.7,243.4,220.8,222.8,226.9,247.5,48.1
31.5,328.8,238.9,248.5,228.4,232.7,226.7,250.6,39.1
32.0,363.1,238.7,256.1,227.0,233.5,234.9,258.9,52.0
32.5,355.4,243.0,256.6,235.3,233.2,240.0,260.6,47.2
33.0,351.6,243.6,262.7,232.7,235.3,243.9,261.6,45.3
33.5,360.8,249.3,263.6,239.4,241.1,248.0,267.0,46.7
34.0,365.7,251.5,273.6,238.3,242.6,253.2,270.8,48.1
34.5,363.0,249.3,274.8,250.7,246.1,258.3,273.7,44.9
35.0,367.7,261.8,278.2,253.7,252.7,274.2,281.4,43.6
35.5,384.3,262.1,287.1,253.6,261.6,268.4,286.2,49.4
36.0,371.5,271.9,295.4,261.2,263.2,280.3,290.6,41.6
36.5,392.2,277.5,293.9,263.0,272.0,286.5,297.5,47.6
37.0,395.0,276.3,296.2,277.8,273.3,278.6,299.5,47.5
37.5,396.2,279.4,303.1,277.1,279.0,290.5,304.2,46.1
38.0,405.2,278.9,301.1,273.1,284.3,294.3,306.1,49.6
38.5,412.6,286.6,318.0,286.0,283.4,298.0,314.1,49.9
39.0,403.2,284.7,325.8,291.8,289.2,303.6,316.4,45.0
39.5,408.9,288.8,326.6,282.5,290.0,305.8,317.1,47.7
40.0,423.4,297.4,313.3,298.0,297.4,307.1,322.8,49.7
40.5,405.2,290.5,319.6,299.2,288.3,308.6,318.6,44.0
41.0,421.4,308.8,320.7,293.5,300.8,319.0,327.4,47.2
41.5,432.2,305.4,334.8,311.5,298.8,328.4,335.2,49.5
42.0,443.9,304.4,338.8,306.6,303.6,335.2,338.7,53.9
42.5,439.4,304.5,350.2,313.2,304.1,328.1,339.9,51.8
43.0,451.5,317.0,347.0,309.2,318.3,342.1,347.5,53.1
43.5,460.2,320.4,347.6,316.4,316.7,341.5,350.5,55.4
44.0,457.4,320.8,352.0,324.4,317.5,349.9,353.7,53.0
44.5,497.4,335.9,357.0,325.6,324.6,355.4,366.0,65.9
45.0,466.0,329.8,366.7,317.7,326.5,360.1,361.1,55.0
45.5,476.1,331.4,369.6,335.7,337.1,359.7,368.3,54.9
46.0,482.3,327.6,367.8,329.8,329.1,356.0,365.4,59.6
46.5,494.9,335.6,371.6,341.3,341.8,366.2,375.2,60.4
47.0,480.6,344.3,382.2,332.9,341.7,368.2,375.0,54.9
47.5,496.3,351.3,387.0,343.4,340.9,378.5,382.9,58.7
48.0,496.6,362.1,409.8,363.4,338.8,372.7,390.6,56.8
48.5,509.6,356.5,412.6,361.5,355.1,372.9,394.7,60.2
49.0,503.8,357.3,424.3,359.2,356.0,376.5,396.2,58.7
49.5,518.9,355.0,408.1,354.2,353.0,387.4,396.1,64.2
50.0,563.4,370.0,404.6,381.0,358.9,382.4,410.0,76.7
50.5,550.3,369.3,411.9,373.8,369.1,381.6,409.4,70.9
51.0,564.9,364.2,417.5,373.4,378.6,393.4,415.3,75.6
51.5,568.1,372.6,427.8,377.4,372.0,390.2,418.0,76.4
52.0,567.4,380.1,429.3,389.1,371.2,406.2,423.9,73.3
52.5,594.8,377.7,419.8,382.4,375.9,412.7,427.2,84.2
53.0,586.4,374.3,446.6,399.0,398.3,401.9,434.4,78.1
53.5,603.8,395.6,439.1,392.3,387.5,407.9,437.7,83.5
54.0,609.7,381.3,458.1,396.5,392.5,409.9,441.3,86.7
54.5,623.1,394.9,443.8,401.7,396.3,394.6,442.4,90.5
55.0,635.7,400.3,465.3,409.7,407.2,428.6,457.8,90.3
55.5,620.9,397.6,456.0,413.1,402.6,426.6,452.8,85.0
56.0,650.1,398.0,462.3,413.3,413.4,428.2,460.9,95.2
56.5,646.3,412.5,460.3,429.6,407.9,431.3,464.6,90.9
57.0,669.7,412.5,482.6,416.0,416.4,429.1,471.1,100.8
57.5,662.9,424.3,472.6,421.3,422.1,433.4,472.8,95.2
58.0,668.3,416.0,476.4,436.5,447.3,450.6,482.5,93.1
58.5,696.1,421.8,492.0,440.1,422.0,451.4,487.2,105.5
59.0,730.2,444.0,478.4,449.8,435.0,453.6,498.5,114.4
59.5,737.0,436.9,481.7,443.2,434.2,458.5,498.6,118.1
60.0,753.8,437.6,502.3,451.4,447.6,451.3,507.3,122.8
60.5,728.5,455.8,494.5,442.8,431.0,454.5,501.2,113.4
61.0,729.4,444.1,521.8,470.9,451.9,470.9,514.8,108.5
61.5,784.2,447.0,490.3,439.4,457.3,485.8,517.3,132.3
62.0,752.8,477.3,515.7,456.6,439.4,469.2,518.5,117.6
62.5,780.8,469.4,524.9,478.0,458.1,477.5,531.5,124.3
63.0,787.4,474.6,534.7,463.1,460.0,494.0,535.6,126.3
63.5,779.0,471.1,530.3,473.9,466.0,501.3,536.9,121.0
64.0,773.4,477.3,546.6,481.5,476.3,481.9,539.5,117.7
64.5,811.1,482.4,553.5,488.0,467.3,499.3,550.2,131.1
65.0,806.2,491.2,563.1,484.9,460.2,498.9,550.7,129.8
65.5,792.1,493.6,558.5,479.8,494.3,499.9,553.0,120.3
66.0,767.9,509.2,551.6,492.7,483.0,504.9,551.6,108.6
66.5,826.9,508.9,583.1,503.0,479.4,508.2,568.2,131.5
67.0,812.2,526.2,584.4,491.6,485.4,505.6,567.6,125.1
67.5,827.7,522.5,563.7,491.3,485.3,499.9,565.1,131.8
68.0,819.9,531.8,591.4,498.2,491.3,519.0,575.3,125.0
68.5,835.6,548.2,590.8,505.4,475.2,513.7,578.2,132.2
69.0,834.0,560.6,585.9,514.6,478.1,528.1,583.5,128.2
69.5,829.4,562.4,595.4,498.8,510.0,528.9,587.5,123.7
70.0,827.9,569.1,594.4,521.9,498.6,540.5,592.1,120.4
70.5,813.1,571.9,610.3,512.7,499.9,555.1,593.8,114.7
71.0,792.5,577.5,649.2,533.2,502.4,554.6,601.6,105.8
71.5,838.1,593.6,623.9,535.9,517.7,560.9,611.7,117.4
72.0,851.6,592.1,646.7,539.8,508.2,557.6,616.0,124.8
72.5,812.5,605.0,662.3,547.3,509.7,547.0,614.0,111.0
73.0,841.3,603.4,640.4,551.7,527.5,550.7,619.2,116.3
73.5,837.8,597.3,658.5,552.3,522.5,558.1,621.1,116.1
74.0,841.8,637.2,660.8,541.7,509.9,569.0,626.7,119.8
74.5,833.7,635.1,683.3,557.2,526.7,564.0,633.3,113.7
75.0,847.6,620.9,669.4,558.4,529.8,570.0,632.7,116.4
75.5,862.6,638.9,674.0,557.4,535.3,575.2,640.6,120.6
76.0,835.6,653.8,672.2,564.8,522.1,586.8,639.2,111.3
76.5,851.9,653.8,680.3,563.2,529.8,564.3,640.5,118.7
77.0,863.3,643.2,690.9,566.7,541.7,583.3,648.2,118.6
77.5,858.6,660.9,700.8,568.3,540.8,582.6,652.0,117.8
78.0,834.4,658.4,714.2,588.4,540.4,589.9,654.3,107.2
78.5,830.5,664.9,712.0,591.5,558.6,593.4,658.5,101.2
79.0,829.5,660.3,712.7,581.4,553.8,589.4,654.5,103.7
79.5,816.8,665.1,738.6,596.1,562.4,587.8,661.1,99.6
80.0,824.9,663.4,705.6,587.9,560.4,590.9,655.5,99.0
80.5,825.1,670.0,733.4,584.7,575.9,601.4,665.1,98.7
81.0,819.2,672.6,728.0,614.3,567.8,608.3,668.4,92.7
81.5,826.6,662.6,732.8,596.5,557.1,595.9,661.9,101.8
82.0,801.9,662.7,735.7,600.0,567.1,592.4,660.0,92.4
82.5,802.4,670.8,750.5,608.7,600.0,599.0,671.9,86.8
83.0,790.3,680.4,740.2,605.2,577.5,603.8,666.2,85.5
83.5,801.1,691.0,749.8,618.0,591.9,600.2,675.3,86.6
84.0,787.1,649.2,755.5,616.0,594.8,604.3,667.8,82.8
84.5,780.0,676.0,746.2,609.4,556.2,606.7,662.4,87.4
85.0,778.6,676.3,761.8,625.9,578.8,611.7,672.2,82.3
85.5,755.4,686.9,741.7,611.5,587.0,605.9,664.7,73.5
86.0,738.7,695.7,723.4,611.1,580.4,610.8,660.0,67.3
86.5,748.5,687.5,776.2,612.9,591.5,615.5,672.0,77.6
87.0,718.2,675.0,746.8,616.4,581.2,599.1,656.1,67.6
87.5,708.1,669.7,746.2,613.3,585.5,611.3,655.7,63.0
88.0,701.1,675.6,761.5,619.6,589.3,589.1,656.0,69.0
88.5,686.8,666.5,742.1,609.7,598.2,620.0,653.9,55.2
89.0,679.7,692.4,740.5,616.6,580.0,606.3,652.6,61.2
89.5,676.4,696.1,748.5,631.8,590.6,605.0,658.1,60.1
90.0,663.9,675.3,741.9,603.9,589.5,598.7,645.5,59.3
90.5,642.7,686.6,753.0,619.1,580.4,591.9,645.6,64.9
91.0,635.4,698.4,734.7,597.1,570.3,599.5,639.2,64.4
91.5,621.6,668.0,731.6,609.1,588.6,576.1,632.5,58.1
92.0,600.3,674.8,724.4,595.6,578.6,587.8,626.9,58.9
92.5,582.4,681.6,728.0,589.7,566.0,592.5,623.4,65.4
93.0,577.5,685.1,728.7,592.7,572.0,589.1,624.2,66.0
93.5,552.7,669.0,722.3,588.6,565.7,573.4,612.0,68.0
94.0,528.2,675.6,724.4,581.9,576.5,568.7,609.2,74.4
94.5,519.0,680.9,718.6,575.9,545.0,564.9,600.7,80.0
95.0,494.8,677.5,722.8,572.9,560.7,559.3,598.0,84.9
95.5,484.4,661.4,712.8,556.9,565.3,546.9,588.0,83.5
95.75,470.4,677.5,722.4,559.2,547.4,555.6,588.8,93.2