Folder: fsri_materials_database/01_Data/Masonite_Board/Cone (part 4)

File: Masonite_Cone_HF25Scan_230106_R1.csv
Names,Time,Stack TC,Smoke TC,Exh Press,Smoke Comp,Smoke Meas,CO Meter,CO2 Meter,O2 Meter,Sample Mass,Ext Coeff,Start Test,Flame Verif
Chan Gain,,500,500,1,1,1,1,1,1,1,1,1.0,1.0
Offset,,0,0,0.303564,0,0,0,0,0,0,0,0.0,0.0
Gain,,1,1,25.011,13.2951,15.9845,1,1,1,1.00088,1.03447,1.0,1.0
Units,sec,C,C,Pa,%,%,%,%,%,g,/m,,
Baseline,,23.4813,24.5364,155.15,99.7912,99.8051,0.000748472,0.0499833,20.9606,-443.801,-0.00126491,,
18,4.25,21.0575,22.0553,155.471,100.578,100.535,0.00104624,0.0644914,20.9385,177.135,0.00388695,0.0,0.0
36,8.75,21.3355,22.368,156.041,100.571,100.381,0.000854488,0.0566779,20.9433,177.095,0.0171899,0.0,0.0
54,13.25,21.8131,22.9396,150.27,100.561,100.386,0.000884274,0.0510883,20.952,176.985,0.0158251,0.0,0.0
72,17.75,21.891,22.7086,152.264,100.553,100.452,0.000723868,0.0495377,20.9578,176.995,0.00910587,0.0,0.0
90,22.25,21.3689,22.5733,155.584,100.565,100.527,0.000517029,0.0501109,20.9592,176.945,0.00345659,0.0,0.0
108,26.75,21.4554,23.5031,151.447,100.554,100.253,0.00072211,0.0551948,20.9577,176.865,0.0272115,0.0,0.0
126,31.25,22.2021,23.3512,158.234,100.548,100.201,0.00100202,0.0557962,20.9542,176.845,0.0313811,0.0,0.0
144,35.75,22.4928,23.1792,151.868,100.533,100.346,0.00125533,0.0520376,20.9536,176.735,0.0168422,0.0,0.0
162,40.25,22.1343,23.5924,154.495,100.528,100.024,0.00105446,0.0504672,20.9571,176.705,0.0455642,0.0,0.0
180,44.75,22.4946,23.5721,159.137,100.48,100.107,0.00052745,0.0503905,20.959,176.575,0.033802,0.0,0.0
198,49.25,22.784,23.5783,154.85,100.414,100.136,0.000690675,0.0492936,20.9595,176.535,0.0252117,0.0,0.0
216,53.75,22.6658,23.6321,155.18,100.321,99.7671,0.000756064,0.04864,20.959,176.445,0.0502192,0.0,0.0
234,58.25,22.8606,23.4631,151.224,100.206,99.452,0.000528844,0.048311,20.9605,176.244,0.068534,0.0,0.0
252,62.75,22.8024,24.091,156.561,100.036,99.1642,0.000595666,0.0484751,20.961,176.164,0.0794245,0.0,0.0
270,67.25,22.6943,23.5936,150.934,99.8452,99.1334,0.000835438,0.0487304,20.9594,175.954,0.0649217,0.0,0.0
288,71.75,22.3565,23.8143,155.013,99.7308,99.0261,0.000772736,0.0488473,20.959,175.894,0.0643471,0.0,0.0
306,76.25,23.0951,23.9439,156.625,99.6748,98.9427,0.000625634,0.0494912,20.9597,175.674,0.0668977,0.0,0.0
324,80.75,22.9231,23.7568,155.829,99.8963,99.2564,0.000501297,0.0495605,20.9598,175.574,0.0583226,0.0,0.0
342,85.25,22.8924,23.8357,157.724,100.017,99.2047,0.000542096,0.0491413,20.9592,175.484,0.0740271,0.0,0.0
360,89.75,22.632,23.8813,152.468,100.062,99.5086,0.00084037,0.048728,20.959,175.354,0.0503192,0.0,0.0
378,94.25,22.721,24.1356,154.564,100.097,99.4207,0.00111246,0.0488035,20.96,175.263,0.0614938,0.0,0.0
396,98.75,22.7458,23.8595,154.674,100.087,99.3017,0.00115343,0.049139,20.9603,175.083,0.0714816,0.0,0.0
414,103.25,23.0276,23.7137,151.807,100.081,99.4276,0.000917671,0.049233,20.9603,175.033,0.059436,0.0,0.0
432,107.75,22.5293,23.7193,150.065,100.045,99.129,0.000838994,0.0501769,20.9603,174.933,0.0834491,0.0,0.0
450,112.25,22.5713,23.9317,156.896,100.034,99.1086,0.000855961,0.0525864,20.9593,174.903,0.0843301,0.0,0.0
468,116.75,22.8842,23.9766,154.395,100.024,99.0212,0.000977603,0.0516777,20.9563,174.773,0.0914458,0.0,0.0
486,121.25,22.8508,24.0023,153.502,100.015,99.0817,0.000905454,0.0499969,20.9577,174.663,0.0850943,0.0,0.0
504,125.75,22.6308,23.7949,152.502,100.021,98.7988,0.00100215,0.0492371,20.9598,174.673,0.111522,0.0,0.0
522,130.25,22.4521,23.7577,155.286,100.015,98.8232,0.0012819,0.0490571,20.9602,174.623,0.108766,0.0,0.0
540,134.75,22.957,23.9445,154.943,100.027,98.2783,0.00130124,0.0487822,20.9603,174.563,0.160042,0.0,0.0
558,139.25,23.0643,24.7404,154.469,100.029,98.091,0.000937817,0.0487009,20.9609,174.443,0.177502,0.0,0.0
576,143.75,22.8112,23.7623,152.137,100.056,97.6993,0.00116287,0.048984,20.9613,174.433,0.216277,0.0,0.0
594,148.25,22.9031,24.5992,152.908,100.042,98.6285,0.00124736,0.0508138,20.9619,174.303,0.129122,0.0,0.0
612,152.75,23.937,25.3475,142.543,100.095,99.5949,0.00139741,0.0523316,20.9609,174.072,0.0454286,0.0,1.0
630,157.25,24.4582,27.5153,143.861,100.094,98.7944,0.00170027,0.0636763,20.9585,173.652,0.118547,0.0,0.0
648,161.75,27.1524,31.7341,135.751,100.104,97.8959,0.00205153,0.156981,20.9384,172.991,0.20245,0.0,0.0
666,166.25,31.0273,37.0524,132.404,100.116,98.3076,0.00232332,0.291435,20.8142,172.351,0.165396,0.0,0.0
684,170.75,35.3862,41.6187,140.819,100.096,98.3427,0.00284431,0.398354,20.6769,171.58,0.160391,0.0,0.0
702,175.25,38.1407,45.8098,136.26,100.098,98.2378,0.0034124,0.467442,20.5422,170.86,0.170221,0.0,0.0
720,179.75,41.1704,50.1928,136.871,100.046,97.7837,0.00351427,0.505193,20.4703,170.009,0.207558,0.0,0.0
738,184.25,43.9015,52.912,134.885,99.9978,97.7159,0.00360898,0.534772,20.4298,169.238,0.209473,0.0,0.0
756,188.75,47.1117,56.8567,124.472,99.9195,97.8759,0.00373536,0.565257,20.3953,168.407,0.187519,0.0,0.0
774,193.25,50.0045,60.614,127.327,99.7945,96.9329,0.00394755,0.598954,20.3553,167.507,0.264007,0.0,0.0
792,197.75,52.4537,63.9741,128.878,99.6748,96.9983,0.00438061,0.634724,20.3151,166.566,0.247,0.0,0.0
810,202.25,55.6732,67.6968,123.724,99.7328,96.608,0.00444487,0.674659,20.2703,165.585,0.288863,0.0,0.0
828,206.75,59.1842,71.1289,123.314,99.8335,96.2758,0.00451718,0.710065,20.2283,164.574,0.32927,0.0,0.0
846,211.25,61.8567,75.1672,124.869,99.9264,95.7383,0.00470276,0.751958,20.1875,163.483,0.38852,0.0,0.0
864,215.75,64.456,78.5913,124.041,100.036,96.4568,0.00505767,0.793576,20.1351,162.452,0.330576,0.0,0.0
882,220.25,66.9207,81.0082,122.104,100.154,95.4719,0.00538097,0.822318,20.0911,161.261,0.43441,0.0,0.0
900,224.75,69.1994,84.6854,121.972,100.285,95.528,0.00566315,0.852935,20.0572,160.19,0.440982,0.0,0.0
918,229.25,71.8363,86.226,124.084,100.397,95.3193,0.00609406,0.877484,20.0244,159.059,0.470927,0.0,0.0
936,233.75,73.5361,89.0722,116.524,100.49,94.5788,0.0059961,0.899081,19.9985,157.908,0.550164,0.0,0.0
954,238.25,75.9558,90.9832,119.212,100.551,94.4339,0.00642703,0.912169,19.9715,156.757,0.569532,0.0,0.0
972,242.75,76.685,92.0427,118.073,100.563,94.3792,0.00661685,0.913842,19.9559,155.606,0.575881,0.0,0.0
990,247.25,77.6846,92.5665,123.566,100.542,94.4071,0.00674186,0.904535,19.9525,154.595,0.571342,0.0,0.0
1008,251.75,77.9304,92.8747,126.2,100.473,93.9778,0.0070435,0.887016,19.9617,153.534,0.606433,0.0,0.0
1026,256.25,78.2296,91.2673,125.807,100.341,92.387,0.00697031,0.856329,19.9818,152.634,0.74943,0.0,0.0
1044,260.75,76.667,89.9376,129.154,100.198,92.0387,0.00697002,0.810269,20.0246,151.693,0.77078,0.0,0.0
1062,265.25,75.8052,87.6851,130.178,100.023,94.37,0.00752962,0.756915,20.079,150.752,0.527876,0.0,0.0
1080,269.75,74.1398,85.7052,131.425,99.8326,94.7846,0.00850411,0.716165,20.1374,149.821,0.470849,0.0,0.0
1098,274.25,73.3489,84.2088,131.45,99.6793,93.5612,0.00873513,0.710742,20.1749,149.061,0.574787,0.0,0.0
1116,278.75,71.5508,80.7048,141.487,99.5129,96.7622,0.0097777,0.707153,20.1786,148.58,0.254364,0.0,0.0
1134,283.25,67.6456,75.1958,146.163,99.3673,99.7051,0.0107861,0.631942,20.1858,148.26,-0.0308029,0.0,0.0
1152,287.75,63.6057,68.9841,148.977,99.2147,99.7198,0.00843961,0.450735,20.2974,148.22,-0.0460763,0.0,0.0
1170,292.25,59.3704,64.2115,148.455,99.0906,99.6817,0.00562606,0.268782,20.5218,148.06,-0.0539764,0.0,0.0
1188,296.75,56.5621,59.8647,144.251,98.994,99.7715,0.00602163,0.172391,20.7147,148.06,-0.0709911,0.0,0.0
1206,301.25,53.2584,56.1216,148.519,98.9076,99.411,0.00801218,0.135257,20.8167,147.95,-0.0460692,0.0,0.0
1224,305.75,48.6799,51.0485,150.828,98.8508,99.4525,0.0111406,0.11537,20.8507,147.95,-0.0550663,0.0,0.0
1242,310.25,46.2914,48.0129,156.016,98.8142,99.5251,0.0138294,0.101492,20.8726,147.879,-0.065049,0.0,0.0
1260,314.75,44.5899,45.801,152.523,98.7895,99.5315,0.0168385,0.0914732,20.8869,147.849,-0.0679002,0.0,0.0
1278,319.25,42.7525,44.0653,147.849,98.8017,99.2144,0.0198462,0.086873,20.8939,147.779,-0.0378272,0.0,0.0
1296,323.75,41.0981,41.7697,149.546,98.7968,99.3495,0.0205052,0.0851624,20.8963,147.679,-0.0506248,0.0,0.0
1314,328.25,39.9804,40.5632,149.273,98.8317,99.3964,0.0204236,0.0849186,20.8999,147.679,-0.0516969,0.0,0.0
1332,332.75,38.6411,38.9972,148.956,98.8601,99.3256,0.0204842,0.0856379,20.901,147.589,-0.0426298,0.0,0.0
1350,337.25,37.6185,38.5947,151.353,98.8958,99.5032,0.020704,0.08536,20.9012,147.589,-0.055561,0.0,0.0
1368,341.75,36.6296,37.3939,148.203,98.9169,99.2246,0.0208282,0.0848843,20.9012,147.529,-0.028188,0.0,0.0
1386,346.25,35.8531,36.0271,151.579,98.9461,99.4178,0.0205712,0.0846405,20.9012,147.479,-0.0431575,0.0,0.0
1404,350.75,35.0519,35.9389,147.783,98.9709,99.4622,0.0205939,0.0844396,20.9025,147.429,-0.0449385,0.0,0.0
1422,355.25,34.3188,34.8219,155.77,98.9952,99.47,0.0206335,0.0845696,20.9023,147.359,-0.0434189,0.0,0.0
1440,359.75,33.6972,33.6115,154.123,99.0451,99.4925,0.0206122,0.0844748,20.9044,147.319,-0.0408921,0.0,0.0
1458,364.25,33.1775,33.1986,151.159,99.0833,99.4188,0.0207011,0.0844234,20.905,147.179,-0.0306776,0.0,0.0
1476,368.75,32.3296,32.5763,157.159,99.1401,99.3134,0.0200142,0.0841588,20.905,147.199,-0.0158554,0.0,0.0
1494,373.25,31.9242,32.1108,150.47,99.2001,99.6832,0.0196711,0.0840827,20.9039,147.089,-0.044083,0.0,0.0
1512,377.75,31.6945,32.3179,153.979,99.2646,99.832,0.0201438,0.083962,20.9042,147.099,-0.051717,0.0,0.0
1530,382.25,31.2075,31.932,153.224,99.308,99.7295,0.0201762,0.0835245,20.9042,147.069,-0.0384334,0.0,0.0
1548,386.75,31.1193,31.0319,151.75,99.334,99.6368,0.0202449,0.083496,20.9042,146.979,-0.0276238,0.0,0.0
1566,391.25,30.6728,31.1657,150.468,99.3758,99.5568,0.0201765,0.0839017,20.9042,146.939,-0.0165181,0.0,0.0
1584,395.75,30.5698,30.4868,155.745,99.3847,99.6154,0.0198684,0.0834755,20.9028,146.789,-0.0210367,0.0,0.0
1602,400.25,29.8992,30.2687,152.15,99.4111,99.93,0.0199877,0.0829382,20.9029,146.789,-0.0472457,0.0,0.0
1620,404.75,29.0689,29.167,151.71,99.4306,99.7549,0.0197647,0.0820278,20.9035,146.668,-0.0295515,0.0,0.0
1638,409.25,29.4538,29.1323,151.798,99.4642,99.769,0.0196292,0.0824251,20.9048,146.708,-0.0277654,0.0,0.0
1656,413.75,29.1487,29.3223,153.412,99.4724,99.8115,0.0198183,0.0826529,20.903,146.668,-0.0308849,0.0,0.0
1674,418.25,28.8853,29.3217,147.979,99.4995,99.8354,0.0198947,0.0822877,20.9027,146.638,-0.0305783,0.0,0.0
1692,422.75,28.6588,29.1797,153.516,99.5478,100.014,0.0198914,0.0824836,20.9034,146.598,-0.0423885,0.0,0.0
1698,424.25,28.1216,29.2573,149.252,99.5701,100.209,0.0199132,0.0827613,20.9034,146.598,-0.0579965,0.0,0.0

File: Masonite_Cone_HF25Scan_230106_R2.csv
Names,Time,Stack TC,Smoke TC,Exh Press,Smoke Comp,Smoke Meas,CO Meter,CO2 Meter,O2 Meter,Sample Mass,Ext Coeff,Start Test,Flame Verif
Chan Gain,,500,500,1,1,1,1,1,1,1,1,1.0,1.0
Offset,,0,0,0.303564,0,0,0,0,0,0,0,0.0,0.0
Gain,,1,1,25.011,13.3149,15.9198,1,1,1,1.00088,1.03447,1.0,1.0
Units,sec,C,C,Pa,%,%,%,%,%,g,/m,,
Baseline,,26.7355,27.8287,153.932,98.9512,98.5187,0.000788324,0.0475668,20.9602,-444.426,0.0397497,,
19,4.5,23.8855,24.9986,151.833,98.9906,98.4042,0.000735325,0.0502064,20.9549,181.399,0.0539126,0.0,0.0
38,9.25,24.0396,25.224,154.803,98.9951,98.5558,0.000565729,0.0522483,20.9559,181.299,0.0403554,0.0,0.0
57,14,24.2842,25.5094,154.445,99.0068,98.4722,0.000513176,0.0556638,20.9511,181.219,0.0491326,0.0,0.0
76,18.75,24.1505,25.2481,153.878,99.0369,98.582,0.000695382,0.0548797,20.9457,181.189,0.0417758,0.0,0.0
95,23.5,24.1963,24.8592,150.715,99.0617,98.7807,0.00067798,0.0519484,20.9466,181.149,0.0257748,0.0,0.0
114,28.25,24.5349,25.822,153.624,99.0804,98.5611,0.000769382,0.0495443,20.9513,181.059,0.0476821,0.0,0.0
133,33,24.4132,25.5653,155.941,99.0979,98.5738,0.00085297,0.0489531,20.9543,181.009,0.048119,0.0,0.0
152,37.75,24.697,25.4266,150.971,99.1251,98.3099,0.000644394,0.0491041,20.9566,180.878,0.0749294,0.0,0.0
171,42.5,24.5133,25.5073,151.023,99.1377,98.3109,0.000421122,0.0485361,20.9552,180.808,0.0759936,0.0,0.0
190,47.25,24.6342,25.3318,148.913,99.1787,98.5189,0.000562166,0.0476463,20.9604,180.768,0.0605762,0.0,0.0
209,52,24.5851,25.933,153.001,99.223,98.2026,0.0007353,0.0474771,20.9619,180.668,0.0938058,0.0,0.0
228,56.75,24.7485,25.9262,156.153,99.2437,98.4057,0.0004596,0.0473326,20.962,180.538,0.0769547,0.0,0.0
247,61.5,24.7406,26.1535,155.01,99.2458,98.2959,0.00068193,0.0477629,20.9599,180.368,0.0872716,0.0,0.0
266,66.25,24.4872,25.8562,150.862,99.2494,98.2604,0.000899144,0.0484623,20.9599,180.198,0.0908804,0.0,0.0
285,71,24.4296,25.937,156.91,99.2632,98.2035,0.000600306,0.0521673,20.9591,180.118,0.0973948,0.0,0.0
304,75.75,24.486,26.3622,152.066,99.288,98.0559,0.000754897,0.0562703,20.9513,179.978,0.113317,0.0,0.0
323,80.5,25.0584,26.1491,148.619,99.3238,98.1827,0.000742174,0.0540675,20.9492,179.837,0.104859,0.0,0.0
342,85.25,24.919,26.192,153.714,99.2892,98.084,0.000608368,0.0513206,20.9518,179.707,0.110822,0.0,0.0
361,90,24.7811,26.4427,151.334,99.2771,98.2273,0.000489004,0.0504777,20.9553,179.557,0.0964584,0.0,0.0
380,94.75,24.9795,26.1217,156.188,99.2685,97.9393,0.000678352,0.0498316,20.9576,179.447,0.122331,0.0,0.0
399,99.5,25.335,26.228,150.526,99.2957,98.2099,0.000645612,0.0488615,20.9588,179.377,0.0997821,0.0,0.0
418,104.25,25.0318,26.3425,154.726,99.2693,97.9665,0.000647869,0.0490076,20.9594,179.287,0.119885,0.0,0.0
437,109,25.2014,26.3693,154.923,99.2701,97.9582,0.000754635,0.0490131,20.959,179.217,0.120725,0.0,0.0
456,113.75,24.6511,26.2645,151.346,99.2364,97.8251,0.000737524,0.0490526,20.958,179.077,0.129982,0.0,0.0
475,118.5,25.2529,26.4482,152.687,99.2324,97.7619,0.000796416,0.0489911,20.9568,179.007,0.135469,0.0,0.0
494,123.25,25.1372,26.5907,154.449,99.2287,97.7012,0.000669884,0.0493056,20.9562,179.007,0.140774,0.0,0.0
513,128,24.6748,26.994,152.108,99.2283,97.398,0.000791753,0.0492861,20.9561,178.947,0.168938,0.0,0.0
532,132.75,25.4047,26.5193,152.615,99.2141,97.1172,0.000921215,0.0492016,20.9561,178.857,0.193838,0.0,0.0
551,137.5,25.5148,26.6947,152.189,99.2108,97.1371,0.000784245,0.0495543,20.9567,178.797,0.19168,0.0,0.0
570,142.25,25.035,26.8604,151.335,99.2157,96.8719,0.000761723,0.0501615,20.9576,178.656,0.21694,0.0,0.0
589,147,25.2701,26.8904,153.974,99.1929,96.1533,0.00110998,0.0507856,20.9576,178.586,0.282418,0.0,0.0
608,151.75,25.5816,27.2103,147.284,99.2137,98.6374,0.00139817,0.0521441,20.9558,178.416,0.0528598,0.0,1.0
627,156.5,26.7481,28.7457,137.003,99.2226,96.798,0.001806,0.0535795,20.9555,177.956,0.224492,0.0,0.0
646,161.25,29.7188,33.6801,135.638,99.2779,97.0327,0.0022261,0.131468,20.9482,177.245,0.207573,0.0,0.0
665,166,32.5588,37.2202,140.026,99.31,96.6737,0.00254411,0.275163,20.8239,176.765,0.244144,0.0,0.0
684,170.75,36.0913,42.909,131.718,99.3746,97.3767,0.00314659,0.378369,20.6811,175.904,0.184298,0.0,0.0
703,175.5,39.5176,46.6125,138.861,99.4668,97.108,0.00356565,0.436769,20.5648,175.303,0.217788,0.0,0.0
722,180.25,42.7082,51.3921,131.477,99.5737,96.6907,0.00347281,0.486797,20.4933,174.413,0.266614,0.0,0.0
741,185,45.9832,54.8382,132.485,99.6765,96.2349,0.00362109,0.515873,20.4538,173.662,0.318846,0.0,0.0
760,189.75,48.8909,58.5301,129.663,99.776,96.6183,0.00366895,0.546091,20.4133,172.791,0.291832,0.0,0.0
779,194.5,51.6844,61.7602,126.252,99.9142,97.0147,0.00385112,0.578838,20.3818,171.75,0.267231,0.0,0.0
798,199.25,54.2441,65.2846,130.228,100.061,96.3156,0.00413738,0.617871,20.3371,170.84,0.346173,0.0,0.0
817,204,57.1557,69.0552,124.469,100.204,95.6228,0.00444226,0.646108,20.2972,169.899,0.424679,0.0,0.0
836,208.75,59.4123,71.6085,123.959,100.364,95.8108,0.00450079,0.685471,20.2571,168.898,0.421341,0.0,0.0
855,213.5,62.6618,75.1434,126.17,100.477,95.6121,0.00463647,0.721311,20.2096,167.757,0.45035,0.0,0.0
874,218.25,65.0597,76.9818,124.64,100.571,95.7904,0.00517811,0.748091,20.173,166.566,0.441954,0.0,0.0
893,223,67.0268,79.5845,120.153,100.642,95.7331,0.00535477,0.792372,20.1362,165.375,0.4538,0.0,0.0
912,227.75,68.758,82.4428,122.553,100.672,93.9603,0.00572894,0.818118,20.0908,164.234,0.626089,0.0,0.0
931,232.5,71.1573,85.0666,126.969,100.66,93.8772,0.00616261,0.853374,20.0585,163.073,0.633054,0.0,0.0
950,237.25,73.4734,87.998,120.311,100.616,94.4864,0.00634383,0.882933,20.0165,161.862,0.570361,0.0,0.0
969,242,75.0689,89.8511,124.772,100.543,93.9724,0.00637467,0.909809,19.9774,160.631,0.613262,0.0,0.0
988,246.75,77.0977,91.7882,124.335,100.469,92.9182,0.006653,0.913587,19.9545,159.35,0.709,0.0,0.0
1007,251.5,78.1689,92.8494,121.332,100.409,93.2048,0.00718285,0.919457,19.9487,158.299,0.67558,0.0,0.0
1026,256.25,78.9029,93.116,127.777,100.358,92.9755,0.00701841,0.902296,19.9474,157.218,0.693379,0.0,0.0
1045,261,79.1199,92.3581,126.149,100.306,91.4781,0.00734209,0.865872,19.9671,156.227,0.835966,0.0,0.0
1064,265.75,78.5056,91.7251,121.287,100.274,90.2767,0.00746964,0.811678,20.0133,155.236,0.953033,0.0,0.0
1083,270.5,78.1555,90.0634,127.533,100.268,94.3902,0.0076554,0.769414,20.0781,154.205,0.54818,0.0,0.0
1102,275.25,77.4886,89.1917,131.372,100.304,93.9948,0.00826124,0.743182,20.1169,153.334,0.589551,0.0,0.0
1121,280,75.5091,86.5582,134.377,100.336,94.2042,0.00715707,0.731545,20.1442,152.724,0.572262,0.0,0.0
1140,284.75,72.0665,81.9668,144.661,100.377,99.0989,0.00567017,0.662348,20.1651,152.263,0.11632,0.0,0.0
1159,289.5,68.5549,75.3699,146.19,100.44,100.478,0.00542361,0.514171,20.2664,152.113,-0.00344601,0.0,0.0
1178,294.25,64.0506,69.6968,147.019,100.478,100.576,0.00509037,0.334516,20.4624,151.933,-0.00881779,0.0,0.0
1197,299,59.6377,64.3602,145.63,100.512,100.654,0.00514922,0.204202,20.6523,151.833,-0.0128191,0.0,0.0
1216,303.75,56.6753,60.1716,152.531,100.553,100.653,0.00724303,0.147164,20.783,151.803,-0.00907116,0.0,0.0
1235,308.5,53.7141,56.3631,147.725,100.59,100.629,0.00916305,0.1258,20.8408,151.723,-0.00358831,0.0,0.0
1254,313.25,51.6596,53.5382,150.642,100.601,100.622,0.0112973,0.119933,20.8611,151.653,-0.00190461,0.0,0.0
1273,318,49.8218,51.3056,148.957,100.612,100.559,0.0132004,0.115852,20.8649,151.513,0.00481897,0.0,0.0
1292,322.75,46.9097,48.5814,150.676,100.619,100.553,0.0149798,0.107828,20.8696,151.433,0.00593142,0.0,0.0
1311,327.5,45.487,46.6353,151.693,100.65,100.606,0.0155728,0.103551,20.8788,151.453,0.00401887,0.0,0.0
1330,332.25,44.3845,45.416,145.122,100.687,100.616,0.0167816,0.106156,20.8806,151.393,0.00646868,0.0,0.0
1349,337,41.5917,42.4887,150.506,100.71,100.631,0.0178831,0.102622,20.8775,151.333,0.00712373,0.0,0.0
1368,341.75,40.1205,41.3428,147.699,100.715,100.604,0.0183318,0.0980859,20.8831,151.282,0.0100903,0.0,0.0
1387,346.5,38.9736,39.8697,151.792,100.677,100.584,0.0182459,0.0961626,20.8873,151.112,0.00836451,0.0,0.0
1406,351.25,38.2861,38.9089,149.886,100.607,100.662,0.0194491,0.0916252,20.8902,151.062,-0.00498442,0.0,0.0
1425,356,37.408,37.8426,150.088,100.499,100.423,0.0214542,0.0904544,20.8933,151.032,0.00686539,0.0,0.0
1444,360.75,36.2845,37.2399,148.768,100.328,100.254,0.0219382,0.090895,20.8934,151.012,0.00674,0.0,0.0
1463,365.5,35.8049,36.4727,148.514,100.112,100.09,0.0220682,0.0911329,20.8938,150.962,0.00203453,0.0,0.0
1482,370.25,35.481,35.7303,149.279,99.8573,99.7393,0.0220971,0.0903967,20.8948,150.842,0.0107332,0.0,0.0
1501,375,34.8664,35.6023,151.497,99.5716,99.5959,0.0219132,0.0900741,20.8948,150.762,-0.00221406,0.0,0.0
1520,379.75,34.7707,34.8053,150.324,99.3421,99.2146,0.0218469,0.0907565,20.8948,150.772,0.0116537,0.0,0.0
1539,384.5,33.7316,34.4743,151.758,99.1145,99.1859,0.0217227,0.0910077,20.8937,150.742,-0.00653283,0.0,0.0
1558,389.25,33.6317,33.4692,147.411,98.9755,98.8808,0.0215537,0.0918785,20.8931,150.642,0.00869089,0.0,0.0
1577,394,32.9383,33.7673,151.343,98.9207,99.0159,0.0211911,0.0920018,20.8916,150.572,-0.00872575,0.0,0.0
1596,398.75,32.9866,33.2439,151.199,98.9686,98.7904,0.0213716,0.0922928,20.8909,150.412,0.0163542,0.0,0.0
1615,403.5,32.3075,32.2186,146.175,99.1243,99.1781,0.0213823,0.0924563,20.8897,150.462,-0.00492976,0.0,0.0
1634,408.25,32.0898,32.3654,150.996,99.3522,99.1048,0.0212926,0.0914411,20.8896,150.372,0.02263,0.0,0.0
1653,413,31.5635,32.1118,152.218,99.5777,99.4696,0.0214898,0.091057,20.8923,150.302,0.00985798,0.0,0.0
1672,417.75,31.7371,32.0866,148.24,99.8025,99.5138,0.0213165,0.0908479,20.893,150.282,0.0262796,0.0,0.0
1691,422.5,30.9784,31.8104,149.179,99.965,99.852,0.0209991,0.0897838,20.8942,150.141,0.0102632,0.0,0.0
1710,427.25,30.4952,31.2762,148.971,100.087,99.9113,0.0209252,0.0893463,20.8958,150.111,0.0159374,0.0,0.0
1729,432,30.4733,31.473,149.853,100.144,100.108,0.0209832,0.089116,20.8959,150.111,0.00324032,0.0,0.0
1748,436.75,30.3643,30.5272,152.637,100.139,99.8486,0.0202837,0.0882651,20.8973,150.071,0.0263832,0.0,0.0
1767,441.5,30.5826,30.7364,149.856,100.083,100.113,0.0200913,0.0878179,20.8982,150.021,-0.00276806,0.0,0.0
1786,446.25,29.6318,30.6067,154.3,100.039,99.8151,0.0204227,0.0876552,20.8993,149.941,0.020368,0.0,0.0
1805,451,29.6918,30.5534,150.987,99.9597,99.5921,0.0204186,0.087538,20.8993,149.831,0.0334367,0.0,0.0
1824,455.75,29.8249,30.2551,147.139,99.9146,99.6246,0.0202421,0.0876999,20.8997,149.851,0.0263746,0.0,0.0