Folder: fsri_materials_database/01_Data/Masonite_Board/Cone (part 5)

File: Masonite_Cone_HF25Scan_230106_R3.csv
Names,Time,Stack TC,Smoke TC,Exh Press,Smoke Comp,Smoke Meas,CO Meter,CO2 Meter,O2 Meter,Sample Mass,Ext Coeff,Start Test,Flame Verif
Chan Gain,,500,500,1,1,1,1,1,1,1,1,1.0,1.0
Offset,,0,0,0.303564,0,0,0,0,0,0,0,0.0,0.0
Gain,,1,1,25.011,13.226,15.8999,1,1,1,1.00088,1.03447,1.0,1.0
Units,sec,C,C,Pa,%,%,%,%,%,g,/m,,
Baseline,,27.1942,28.2122,153.79,99.9164,99.8235,0.000599543,0.0470715,20.9641,-444.601,0.00845375,,
19,4.5,24.1408,24.6124,155.61,99.1949,99.0654,0.000721167,0.0528137,20.9561,180.678,0.0118492,0.0,0.0
38,9.25,25.1649,25.5159,150.012,99.0827,99.0067,0.000564771,0.0518575,20.953,180.608,0.00695943,0.0,0.0
57,14,25.1107,26.3719,154.577,99.1949,98.9689,0.000509082,0.0551343,20.956,180.528,0.0206983,0.0,0.0
76,18.75,24.8143,25.7749,153.199,99.3374,99.0921,0.000693553,0.0544578,20.9534,180.478,0.0224303,0.0,0.0
95,23.5,24.6417,25.5887,152.772,99.4681,99.376,0.000849487,0.0513291,20.9528,180.498,0.00841098,0.0,0.0
114,28.25,24.7555,26.3755,147.713,99.5037,99.2634,0.000842083,0.0488482,20.9575,180.368,0.0219361,0.0,0.0
133,33,25.2337,25.7944,154.762,99.4883,99.44,0.00079681,0.0478888,20.9604,180.308,0.00440487,0.0,0.0
152,37.75,24.9867,26.336,158.258,99.4617,99.1271,0.00076247,0.0476382,20.9609,180.188,0.0305801,0.0,0.0
171,42.5,24.5254,25.9771,150.768,99.3563,99.0611,0.000502737,0.0477741,20.9609,180.068,0.0270066,0.0,0.0
190,47.25,25.12,26.0303,154.618,99.2611,98.8481,0.000813708,0.0509265,20.9625,180.038,0.0378372,0.0,0.0
209,52,25.1476,26.0503,148.577,99.1812,98.9179,0.000847243,0.0536793,20.9579,179.928,0.0241157,0.0,0.0
228,56.75,25.4741,27.0464,154.71,99.1093,98.5865,0.000795303,0.0516875,20.955,179.797,0.0479931,0.0,0.0
247,61.5,25.1582,26.0836,149.006,99.0637,98.5419,0.000521565,0.0511485,20.9582,179.637,0.0479264,0.0,0.0
266,66.25,25.2399,26.4599,150.46,99.077,98.6806,0.00041587,0.0504682,20.9591,179.447,0.0363763,0.0,0.0
285,71,25.5783,26.59,151.379,99.0956,98.7476,0.0006128,0.0539641,20.9601,179.327,0.0319212,0.0,0.0
304,75.75,25.4186,26.7008,155.156,99.1662,98.5778,0.000697183,0.0635535,20.9518,179.207,0.0540073,0.0,0.0
323,80.5,25.8378,26.2283,153.165,99.2203,98.816,0.000951239,0.0624563,20.9421,179.077,0.0370497,0.0,0.0
342,85.25,25.006,26.7578,149.945,99.2566,98.7549,0.00113045,0.0554617,20.9456,178.947,0.0459872,0.0,0.0
361,90,25.5395,26.618,152.027,99.2728,98.7379,0.000798133,0.0527363,20.9534,178.787,0.0490239,0.0,0.0
380,94.75,25.5294,26.4578,148.413,99.2825,98.652,0.000756161,0.0527862,20.9567,178.686,0.0578056,0.0,0.0
399,99.5,25.37,26.9834,152.253,99.2841,98.7622,0.00081734,0.0555878,20.9563,178.606,0.0478274,0.0,0.0
418,104.25,25.2713,26.7495,152.719,99.2853,98.7481,0.000975363,0.0535483,20.9549,178.526,0.0492305,0.0,0.0
437,109,25.498,26.4946,153.336,99.2461,98.5001,0.000758227,0.0539558,20.9557,178.456,0.0684664,0.0,0.0
456,113.75,25.565,26.6056,154.671,99.2268,98.3051,0.000585504,0.0539781,20.9564,178.376,0.0846827,0.0,0.0
475,118.5,25.0749,26.5579,152.421,99.1646,98.1173,0.000501257,0.0558988,20.9554,178.276,0.096346,0.0,0.0
494,123.25,25.4445,27.0227,152.139,99.1315,98.1188,0.000713145,0.055656,20.9543,178.306,0.0931827,0.0,0.0
513,128,25.5312,27.0395,151.217,99.1053,97.9955,0.000807328,0.0526513,20.9538,178.246,0.102186,0.0,0.0
532,132.75,25.6906,26.769,155.218,99.0581,97.7985,0.000885728,0.0537323,20.9571,178.156,0.116122,0.0,0.0
551,137.5,25.002,26.9071,154.722,98.9963,97.3254,0.000758703,0.0563675,20.9549,178.156,0.154466,0.0,0.0
570,142.25,25.0976,26.9813,151.343,98.9612,97.2497,0.000820116,0.0615983,20.952,177.996,0.158307,0.0,0.0
589,147,25.8223,26.8232,154.27,98.8825,97.1163,0.00109446,0.0687504,20.9417,177.946,0.163547,0.0,0.0
608,151.75,25.4779,26.7676,151.53,98.8506,96.255,0.00131165,0.0664323,20.938,177.856,0.241455,0.0,0.0
627,156.5,26.8939,28.5263,143.215,98.8361,98.7403,0.0012727,0.0634628,20.9409,177.596,0.00879356,0.0,1.0
646,161.25,27.7134,30.9114,138.318,98.8022,96.6801,0.00137782,0.0738343,20.9437,177.045,0.197024,0.0,0.0
665,166,31.4275,36.1329,135.261,98.7461,96.845,0.00218549,0.202404,20.9213,176.414,0.176398,0.0,0.0
684,170.75,35.249,40.519,136.431,98.7501,96.732,0.00229187,0.340666,20.7587,175.634,0.187369,0.0,0.0
703,175.5,37.688,45.1603,134.383,98.7747,96.4947,0.00276556,0.4219,20.6135,174.933,0.211917,0.0,0.0
722,180.25,41.9444,49.4469,133.853,98.826,96.8251,0.00323744,0.475355,20.5292,174.163,0.185604,0.0,0.0
741,185,44.3339,53.2837,129.904,98.8373,96.0798,0.00336082,0.511189,20.4711,173.312,0.25676,0.0,0.0
760,189.75,48.2609,57.4083,124.801,98.8704,95.8489,0.00369144,0.549823,20.4241,172.421,0.281639,0.0,0.0
779,194.5,50.975,61.5604,125.666,98.9192,95.9183,0.00381338,0.59327,20.375,171.45,0.279554,0.0,0.0
798,199.25,54.8002,65.8315,124.179,98.9479,96.206,0.00387701,0.634021,20.3254,170.489,0.255002,0.0,0.0
817,204,57.6392,68.9805,121.52,98.987,95.7872,0.00434775,0.669608,20.2805,169.418,0.298175,0.0,0.0
836,208.75,60.8224,74.0751,131.949,98.9769,95.1288,0.00461443,0.710383,20.2386,168.367,0.359843,0.0,0.0
855,213.5,64.5703,77.3084,119.846,98.9656,95.0128,0.00458015,0.754289,20.1906,167.186,0.369876,0.0,0.0
874,218.25,67.0014,80.5436,118.175,98.9475,93.5091,0.00498391,0.798097,20.1342,166.015,0.512974,0.0,0.0
893,223,69.8026,84.1097,117.747,98.9293,94.1874,0.00563437,0.840141,20.0826,164.754,0.445717,0.0,0.0
912,227.75,72.4672,87.1666,122.32,98.9269,92.8836,0.00580942,0.876355,20.0354,163.633,0.571985,0.0,0.0
931,232.5,75.1293,90.1565,123.479,98.916,92.9564,0.00579029,0.906238,19.9959,162.392,0.563878,0.0,0.0
950,237.25,77.1942,92.2869,125.405,98.8873,92.5129,0.00631745,0.92683,19.9606,161.161,0.604646,0.0,0.0
969,242,78.7769,94.3636,123.015,98.8865,93.0418,0.00673676,0.935579,19.9358,159.96,0.552841,0.0,0.0
988,246.75,80.1061,95.2769,117.531,98.8712,92.2732,0.0065653,0.928299,19.9265,158.719,0.626706,0.0,0.0
1007,251.5,80.9768,95.3588,124.892,98.853,93.1956,0.00664285,0.912782,19.9328,157.668,0.534777,0.0,0.0
1026,256.25,81.219,95.4062,128.615,98.8478,91.5177,0.00696283,0.896803,19.9496,156.557,0.69916,0.0,0.0
1045,261,80.6246,94.0048,125.563,98.8191,90.1557,0.00754267,0.858514,19.9764,155.566,0.832595,0.0,0.0
1064,265.75,79.9504,92.6329,128.775,98.7892,90.309,0.00763078,0.806521,20.0235,154.585,0.814431,0.0,0.0
1083,270.5,78.9313,91.1791,127.334,98.7541,92.4654,0.00811612,0.764952,20.0776,153.574,0.597081,0.0,0.0
1102,275.25,78.1451,89.4787,131.078,98.9232,91.2737,0.0080946,0.728101,20.122,152.774,0.73032,0.0,0.0
1121,280,76.1565,86.7773,135.525,99.1251,94.4271,0.00789915,0.703375,20.1621,152.013,0.440591,0.0,0.0
1140,284.75,73.5777,82.4916,138.363,99.3301,98.5928,0.00837563,0.650984,20.1904,151.553,0.0676053,0.0,0.0
1159,289.5,69.5477,76.6429,141.416,99.4899,99.4721,0.00683085,0.527691,20.2657,151.292,0.00163004,0.0,0.0
1178,294.25,65.8214,71.3175,147.3,99.5311,100.199,0.00454221,0.359543,20.4378,151.162,-0.0606827,0.0,0.0
1197,299,61.5479,66.312,143.641,99.4508,99.7331,0.00419293,0.240765,20.6191,150.972,-0.025724,0.0,0.0
1216,303.75,58.1218,61.3944,147.51,99.2712,99.8238,0.0054882,0.167404,20.7389,150.972,-0.0503795,0.0,0.0
1235,308.5,55.1694,57.828,149.632,99.142,99.6831,0.00839624,0.12652,20.8237,150.942,-0.0493935,0.0,0.0
1254,313.25,51.6192,54.8449,148.242,99.293,99.6336,0.0112188,0.109002,20.8632,150.882,-0.0310803,0.0,0.0
1273,318,48.3467,50.1123,151.187,99.4907,100.077,0.0134519,0.101274,20.8789,150.812,-0.0532832,0.0,0.0
1292,322.75,46.1356,47.6087,148.084,99.6421,100.16,0.0156227,0.0938675,20.8871,150.692,-0.0470086,0.0,0.0
1311,327.5,44.2308,45.9993,150.739,99.7709,100.414,0.0192655,0.0867189,20.8933,150.672,-0.058297,0.0,0.0
1330,332.25,43.0823,43.9081,147.697,99.8762,100.637,0.0215088,0.0849638,20.8986,150.642,-0.068825,0.0,0.0
1349,337,42.1118,42.8445,148.778,99.9517,100.636,0.0222536,0.0843296,20.8999,150.572,-0.0619259,0.0,0.0
1368,341.75,40.2922,41.498,149.812,99.9941,100.297,0.0220789,0.0837567,20.9012,150.522,-0.0274442,0.0,0.0
1387,346.5,39.8525,40.2562,147.149,99.9904,100.537,0.0222656,0.0846085,20.9016,150.382,-0.0494789,0.0,0.0
1406,351.25,38.4228,39.3,147.262,99.9702,100.565,0.0224485,0.0840442,20.903,150.292,-0.0538072,0.0,0.0
1425,356,37.514,38.6092,148.116,99.925,100.325,0.0221022,0.0841984,20.9029,150.312,-0.0362561,0.0,0.0
1444,360.75,36.9373,37.1817,150.789,99.8423,100.291,0.0222141,0.0840109,20.9024,150.282,-0.0407003,0.0,0.0
1463,365.5,36.3818,36.5799,152.234,99.7325,99.9422,0.0226051,0.0845072,20.9023,150.222,-0.019063,0.0,0.0
1482,370.25,35.6262,36.1846,149.912,99.5912,100.198,0.0224688,0.0850483,20.9023,150.141,-0.0551566,0.0,0.0
1501,375,35.4198,35.5925,148.719,99.4241,99.902,0.0226191,0.0878094,20.8986,150.021,-0.0435064,0.0,0.0
1520,379.75,34.75,35.1302,150.27,99.278,99.5186,0.0223605,0.089829,20.8963,150.041,-0.0219659,0.0,0.0
1539,384.5,34.3719,34.8409,150.686,99.1493,99.5012,0.0226221,0.0887542,20.8952,149.971,-0.0321484,0.0,0.0
1558,389.25,34.1556,34.2158,153.51,99.0282,99.1411,0.022884,0.0876311,20.8968,149.931,-0.0103436,0.0,0.0
1577,394,33.6937,34.1749,150.131,98.9176,99.2149,0.0228884,0.0864994,20.897,149.871,-0.0272315,0.0,0.0
1596,398.75,32.834,33.26,155.713,98.8252,99.0455,0.0226599,0.0851563,20.8983,149.721,-0.0202127,0.0,0.0
1615,403.5,32.766,33.2296,149.814,98.7537,99.0543,0.0222634,0.0840861,20.9004,149.751,-0.0275755,0.0,0.0
1634,408.25,32.4262,32.9456,147.365,98.6956,98.9791,0.0219387,0.0835262,20.9007,149.741,-0.0260251,0.0,0.0
1653,413,32.6428,32.5268,151.455,98.6621,98.8786,0.0226267,0.084695,20.8994,149.561,-0.0198923,0.0,0.0
1672,417.75,31.671,32.206,149.093,98.6476,98.8044,0.022594,0.0843829,20.8999,149.591,-0.0144132,0.0,0.0
1691,422.5,31.725,31.6466,154.633,98.6419,98.5991,0.0222276,0.0842949,20.9012,149.531,0.00393561,0.0,0.0
1710,427.25,31.9271,31.9813,152.346,98.6488,98.769,0.0227217,0.0858285,20.8995,149.381,-0.0110486,0.0,0.0
1729,432,31.0593,31.7799,149.163,98.6847,98.9024,0.0227708,0.0849989,20.8985,149.491,-0.0199959,0.0,0.0
1737,434,31.3405,31.5591,152.105,98.7041,99.1659,0.0225644,0.084847,20.8996,149.431,-0.0423565,0.0,0.0

File: Masonite_Cone_HF50Scalar_221212_R1.csv
LABORATORY,FSRI
TEST IDENT,Masonite_HF50_1
OPERATOR,Dow
MATERIAL,masonite
ORIENTATION,Horizontal
HEAT FLUX,50
SURF AREA,0.01
C FACTOR,0.0381022
SPEC HOLDER DIFF,-566
SPECIMEN MASS,34.92
SCAN TIME,0.25
O2 DELAY TIME,11
CO DELAY TIME,11
CO2 DELAY TIME,8
FLOW FACTOR,1
SCAN COUNT,1044
TIME TO IGN,45.25
END OF TEST SCAN,564
END OF TEST TIME,141
TEST STATUS,1
PRE TEST CMT,Dimensions: 101.49 x 101.48 x 2.92 mm
POST TEST CMT,"Significant warping during test, beginging with corners lifting upwards prior to igntion then becoming more dramatic after ignition. Test pictures available."

File: Masonite_Cone_HF50Scalar_221212_R2.csv
LABORATORY,FSRI
TEST IDENT,Masonite_HF50_2
OPERATOR,Dow
MATERIAL,masonite
ORIENTATION,Horizontal
HEAT FLUX,50
SURF AREA,0.01
C FACTOR,0.0381022
SPEC HOLDER DIFF,-566
SPECIMEN MASS,33.77
SCAN TIME,0.25
O2 DELAY TIME,11
CO DELAY TIME,11
CO2 DELAY TIME,8
FLOW FACTOR,1
SCAN COUNT,1571
TIME TO IGN,39.5
END OF TEST SCAN,1091
END OF TEST TIME,272.75
TEST STATUS,1
PRE TEST CMT,Dimensions: 101.54 x 101.52 x 3.01 mm; with tie wires
POST TEST CMT,"Sample layers started to delaminate near end of test, but were limited by tie wires. Test pictures available. "

File: Masonite_Cone_HF50Scalar_221212_R3.csv
LABORATORY,FSRI
TEST IDENT,Masonite_HF50_3
OPERATOR,Dow
MATERIAL,masonite
ORIENTATION,Horizontal
HEAT FLUX,50
SURF AREA,0.01
C FACTOR,0.0381022
SPEC HOLDER DIFF,-566
SPECIMEN MASS,34.09
SCAN TIME,0.25
O2 DELAY TIME,11
CO DELAY TIME,11
CO2 DELAY TIME,8
FLOW FACTOR,1
SCAN COUNT,1303
TIME TO IGN,42.25
END OF TEST SCAN,823
END OF TEST TIME,205.75
TEST STATUS,1
PRE TEST CMT,Dimensions: 101.53 x 101.46 x 2.91 mm; with tie wires
POST TEST CMT,"Sample layers started to delaminate and warp near end of test, but were limited by tie wires. "

File: Masonite_Cone_HF50Scalar_230105_R4.csv
LABORATORY,FSRI
TEST IDENT,Masonite_HF50_4
OPERATOR,Dow
MATERIAL,masonite
ORIENTATION,Horizontal
HEAT FLUX,50
SURF AREA,0.01
C FACTOR,0.0381022
SPEC HOLDER DIFF,-566
SPECIMEN MASS,34.6
SCAN TIME,0.25
O2 DELAY TIME,11
CO DELAY TIME,11
CO2 DELAY TIME,8
FLOW FACTOR,1
SCAN COUNT,1486
TIME TO IGN,43.5
END OF TEST SCAN,1006
END OF TEST TIME,251.5
TEST STATUS,1
PRE TEST CMT,Dimensions: 101.05 x 101.62 x 2.95 mm; with calcium silicate substrate; with tie wires
POST TEST CMT,"Sample layers started to delaminate and warp near end of test, but were limited by tie wires. "

File: Masonite_Cone_HF50Scalar_230105_R5.csv
LABORATORY,FSRI
TEST IDENT,Masonite_HF50_5
OPERATOR,Dow
MATERIAL,masonite
ORIENTATION,Horizontal
HEAT FLUX,50
SURF AREA,0.01
C FACTOR,0.0381022
SPEC HOLDER DIFF,-566
SPECIMEN MASS,34.62
SCAN TIME,0.25
O2 DELAY TIME,11
CO DELAY TIME,11
CO2 DELAY TIME,8
FLOW FACTOR,1
SCAN COUNT,1443
TIME TO IGN,40.75
END OF TEST SCAN,963
END OF TEST TIME,240.75
TEST STATUS,1
PRE TEST CMT,Dimensions: 101.05 x 101.61 x 3.03 mm; with calcium silicate substrate; with tie wires

File: Masonite_Cone_HF50Scalar_230105_R6.csv
LABORATORY,FSRI
TEST IDENT,Masonite_HF50_6
OPERATOR,Dow
MATERIAL,masonite
ORIENTATION,Horizontal
HEAT FLUX,50
SURF AREA,0.01
C FACTOR,0.0381022
SPEC HOLDER DIFF,-566
SPECIMEN MASS,35.53
SCAN TIME,0.25
O2 DELAY TIME,11
CO DELAY TIME,11
CO2 DELAY TIME,8
FLOW FACTOR,1
SCAN COUNT,1520
TIME TO IGN,46
END OF TEST SCAN,1040
END OF TEST TIME,260
TEST STATUS,1
PRE TEST CMT,Dimensions: 101.03 x 101.61 x 2.96 mm; with calcium silicate substrate; with tie wires

File: Masonite_Cone_HF50Scan_221212_R1.csv
Names,Time,Stack TC,Smoke TC,Exh Press,Smoke Comp,Smoke Meas,CO Meter,CO2 Meter,O2 Meter,Sample Mass,Ext Coeff,Start Test,Flame Verif
Chan Gain,,500,500,1,1,1,1,1,1,1,1,1.0,1.0
Offset,,0,0,0.131978,0,0,0,0,0,0,0,0.0,0.0
Gain,,1,1,25.011,13.4278,14.1503,1,1,1,1.00089,1.02125,1.0,1.0
Units,sec,C,C,Pa,%,%,%,%,%,g,/m,,
Baseline,,30.6781,31.5392,156.571,99.8918,99.8833,0.000952378,0.0476023,20.9377,-448.047,0.000771405,,
11,2.5,30.4397,30.4562,154.302,99.9108,99.8998,0.00089862,0.0542968,20.9295,80.3616,0.000986703,0.0,0.0
22,5.25,30.1056,30.7235,153.862,99.9801,100.036,0.000996734,0.0544318,20.9295,80.2515,-0.00499658,0.0,0.0
33,8,29.9328,30.5643,155.291,100.133,100.051,0.00117613,0.0543947,20.9295,80.1514,0.00741043,0.0,0.0
44,10.75,30.1338,30.7817,157.781,100.315,100.042,0.0014159,0.0536639,20.9295,80.0813,0.0244103,0.0,0.0
55,13.5,29.969,31.1686,159.02,100.47,100.245,0.00143068,0.0529301,20.9307,80.0213,0.0200747,0.0,0.0
66,16.25,30.3916,30.9117,156.316,100.612,99.9244,0.00122757,0.0527473,20.9307,79.9512,0.0613899,0.0,0.0
77,19,30.7136,31.2545,154.549,100.694,99.8934,0.00119033,0.0522617,20.9299,79.8211,0.071509,0.0,0.0
88,21.75,30.5036,31.3887,155.951,100.718,99.6187,0.00109355,0.0517858,20.9322,79.761,0.0983232,0.0,0.0
99,24.5,30.5387,31.6295,152.29,100.652,99.1238,0.0011058,0.0534892,20.9337,79.681,0.137031,0.0,0.0
110,27.25,30.6124,31.2901,156.44,100.485,98.7594,0.00108772,0.0570039,20.9319,79.5308,0.15521,0.0,0.0
121,30,30.4607,31.6372,152.564,100.246,98.1311,0.000999716,0.0594422,20.9267,79.3307,0.191062,0.0,0.0
132,32.75,31.2011,31.6231,153.278,99.9334,97.7497,0.000843732,0.0589496,20.924,79.1605,0.197918,0.0,0.0
143,35.5,30.8397,31.6419,155.772,99.5863,96.9051,0.00081895,0.0572817,20.924,78.9403,0.244497,0.0,0.0
154,38.25,30.5678,31.4348,160.445,99.2421,96.1895,0.00087371,0.0553602,20.9259,78.7802,0.279873,0.0,0.0
165,41,31.0251,31.4593,153.343,98.9306,94.78,0.000854804,0.053541,20.9278,78.64,0.383957,0.0,0.0
176,43.75,30.7558,31.5716,152.994,98.7028,93.4457,0.000950944,0.052292,20.9306,78.4599,0.49032,0.0,0.0
187,46.5,31.4413,32.2656,150.423,98.6167,98.6821,0.00124472,0.0520537,20.9345,78.1696,-0.00593265,0.0,1.0
198,49.25,31.8347,31.6636,144.71,98.6143,96.9077,0.001578,0.0539528,20.9361,77.8193,0.156391,0.0,1.0
209,52,33.5344,33.8774,138.149,98.7421,95.9093,0.00176745,0.0609435,20.9324,77.3389,0.26077,0.0,0.0
220,54.75,36.3146,35.5506,133.71,98.9765,95.8821,0.0021154,0.0940282,20.9221,76.8084,0.284552,0.0,0.0
231,57.5,37.949,37.3133,134.655,99.2744,96.5976,0.0026572,0.205105,20.8874,76.2479,0.244869,0.0,0.0
242,60.25,40.9253,40.3878,132.419,99.5728,95.5616,0.00315512,0.336728,20.7505,75.7174,0.368342,0.0,0.0
253,63,43.2268,43.1049,134.58,99.8113,95.5936,0.00371339,0.445286,20.5959,75.0268,0.386778,0.0,0.0
264,65.75,45.6877,45.1598,123.99,99.9637,94.9035,0.00435439,0.53583,20.4793,74.4463,0.465353,0.0,0.0
275,68.5,48.4799,47.9249,127.555,99.983,94.8245,0.00493852,0.619163,20.3683,73.7657,0.474541,0.0,0.0
286,71.25,50.9385,50.872,128.124,99.9801,91.8418,0.00523415,0.687949,20.2735,73.0651,0.760593,0.0,0.0
297,74,53.8919,54.4124,122.804,99.9248,92.3341,0.00529515,0.75011,20.1873,72.2844,0.707744,0.0,0.0
308,76.75,56.205,57.149,110.658,99.8055,91.8073,0.005584,0.805776,20.1078,71.4737,0.748308,0.0,0.0
319,79.5,59.7008,60.0949,121.924,99.6941,89.9279,0.0061173,0.864276,20.0413,70.6429,0.923582,0.0,0.0
330,82.25,63.011,63.8615,120.024,99.9731,88.5387,0.00678759,0.925509,19.9679,69.612,1.08809,0.0,0.0
341,85,66.1016,67.2757,110.695,100.364,85.6658,0.00738779,1.00096,19.8988,68.5911,1.4186,0.0,0.0
352,87.75,69.3588,71.0881,111.539,100.492,84.8543,0.00801517,1.09417,19.8047,67.5301,1.51519,0.0,0.0
363,90.5,73.1913,74.6386,113.289,100.382,83.1918,0.00866935,1.18274,19.7164,66.299,1.68266,0.0,0.0
374,93.25,76.4826,78.4228,108.813,100.015,84.3871,0.00950684,1.30207,19.6235,64.9879,1.5221,0.0,0.0
385,96,80.4081,82.8819,110.104,100.047,86.7177,0.0108802,1.42595,19.4663,63.6467,1.28087,0.0,0.0
396,98.75,84.0746,87.229,108.767,100.29,83.7933,0.0131888,1.56383,19.3127,62.3856,1.60992,0.0,0.0
407,101.5,86.9558,90.6849,121.307,100.552,86.8757,0.015272,1.71389,19.1858,61.0944,1.30965,0.0,0.0
418,104.25,90.0862,94.3715,113.557,100.718,86.6244,0.0163883,1.86855,18.987,59.7933,1.35042,0.0,0.0
429,107,93.1579,98.1757,105.125,100.705,89.2331,0.0172095,1.94408,18.8258,58.5321,1.08345,0.0,0.0
440,109.75,96.1503,101.603,113.774,100.502,88.3582,0.018243,1.97535,18.7453,57.271,1.15362,0.0,0.0
451,112.5,98.129,104.328,109.69,100.136,86.6559,0.0182828,1.9966,18.711,56.15,1.29521,0.0,0.0
462,115.25,100.716,107.491,114.265,99.651,87.7744,0.0173665,2.01535,18.6885,54.959,1.13686,0.0,0.0
473,118,102.186,109.449,106.976,99.1716,86.7756,0.0169263,2.01058,18.6681,53.9881,1.19618,0.0,0.0
484,120.75,103.148,110.987,122.504,98.7848,87.9497,0.0165941,1.96044,18.6661,53.0272,1.04076,0.0,0.0
495,123.5,103.341,111.972,117.41,98.627,90.4051,0.0162915,1.8687,18.7189,52.2465,0.779771,0.0,0.0
506,126.25,103.03,111.81,126.218,98.7118,89.1623,0.0159567,1.77131,18.8187,51.5659,0.911478,0.0,0.0
517,129,101.421,111.027,130.589,98.9925,88.8941,0.0152104,1.62708,18.9206,51.0655,0.963901,0.0,0.0
528,131.75,99.8336,110.237,137.381,99.3843,95.1544,0.0141952,1.45198,19.0992,50.6451,0.389624,0.0,0.0
539,134.5,98.1023,108.423,140.65,99.7531,98.3824,0.0130056,1.24612,19.2901,50.3849,0.123949,0.0,0.0
550,137.25,96.1785,106.704,136.591,99.9879,100.291,0.0117434,1.04509,19.4765,50.1947,-0.027124,0.0,0.0
561,140,93.5665,104.19,139.509,100.001,100.885,0.0102122,0.848184,19.7348,49.9845,-0.078832,0.0,0.0
572,142.75,90.4119,101.234,141.975,99.9129,100.884,0.00862742,0.680004,19.9724,49.8344,-0.0866889,0.0,0.0
583,145.5,87.862,98.6845,146.673,99.7719,100.609,0.00730905,0.555041,20.167,49.7343,-0.0748381,0.0,0.0
594,148.25,85.0366,96.589,145.465,99.651,100.501,0.00659473,0.441293,20.3191,49.6742,-0.0760809,0.0,0.0
605,151,82.8321,93.784,146.968,100.012,100.787,0.00668524,0.353044,20.4519,49.6142,-0.069133,0.0,0.0
616,153.75,80.9658,91.7583,146.484,100.373,101.207,0.00705758,0.295577,20.5512,49.5141,-0.0741591,0.0,0.0
627,156.5,78.9356,89.646,145.997,100.451,101.136,0.00740782,0.258712,20.6107,49.444,-0.0609023,0.0,0.0
638,159.25,77.3468,87.8521,143.611,100.264,101.166,0.00776178,0.236625,20.6539,49.364,-0.0801842,0.0,0.0
649,162,75.0289,85.408,150.325,99.8989,100.618,0.00812892,0.222297,20.6796,49.3439,-0.0642468,0.0,0.0
660,164.75,73.4914,83.8685,152.538,100.104,100.93,0.0084226,0.211792,20.7008,49.2539,-0.0735712,0.0,0.0
671,167.5,72.5998,82.2391,149.935,100.36,101.259,0.00862824,0.203039,20.7192,49.2138,-0.0798787,0.0,0.0
682,170.25,70.947,80.3314,143.969,100.585,101.41,0.0087888,0.196726,20.7333,49.1238,-0.0731777,0.0,0.0
693,173,69.5225,78.4021,146.22,100.699,101.457,0.0090266,0.193075,20.7435,49.0937,-0.0671966,0.0,0.0
704,175.75,68.2176,76.8378,147.118,100.7,101.486,0.00927211,0.191623,20.7492,49.0537,-0.0696393,0.0,0.0
715,178.5,66.5227,75.0045,151.898,100.561,101.459,0.0094516,0.190215,20.7532,48.9836,-0.0796428,0.0,0.0
726,181.25,65.8837,73.5697,147.293,100.292,101.133,0.00960238,0.188456,20.7565,48.9036,-0.0748262,0.0,0.0
737,184,64.5763,72.6023,145.019,99.9395,100.733,0.00992068,0.186787,20.759,48.8835,-0.0708696,0.0,0.0
748,186.75,63.1442,71.1985,150.982,99.5752,100.419,0.0100873,0.185117,20.763,48.7734,-0.0755822,0.0,0.0
759,189.5,62.223,69.6613,145.225,99.2236,99.9465,0.00995278,0.182838,20.767,48.7634,-0.0650255,0.0,0.0
770,192.25,61.0227,69.1862,152.678,98.9507,99.7988,0.00975585,0.180982,20.7718,48.7334,-0.0764519,0.0,0.0
781,195,59.8664,67.4469,149.669,98.7491,99.5336,0.0097407,0.179607,20.7751,48.6734,-0.0708906,0.0,0.0
792,197.75,59.4431,66.9233,148.354,98.6417,99.2784,0.0097391,0.177524,20.7774,48.6033,-0.0576364,0.0,0.0
803,200.5,58.6528,65.5419,149.252,98.6483,99.3134,0.00965113,0.176149,20.7802,48.5532,-0.060197,0.0,0.0
814,203.25,57.6759,64.6142,145.262,98.7729,99.5418,0.00950897,0.174979,20.7826,48.5132,-0.0694741,0.0,0.0
825,206,56.7435,63.5402,150.111,98.9216,99.7392,0.00939118,0.173406,20.7838,48.4832,-0.0737359,0.0,0.0
836,208.75,56.58,62.3402,150.237,99.131,99.861,0.00958182,0.171947,20.7843,48.4031,-0.0657232,0.0,0.0
847,211.5,55.6789,61.6439,152.304,99.3482,100.123,0.00985517,0.171063,20.7857,48.3931,-0.0695624,0.0,0.0
858,214.25,54.8569,60.389,149.583,99.5531,100.279,0.0100114,0.169704,20.7876,48.3531,-0.0650831,0.0,0.0
869,217,54.0451,60.3026,152.323,99.7252,100.368,0.00992422,0.167572,20.7887,48.3531,-0.0575133,0.0,0.0
880,219.75,53.6475,59.2767,150.635,99.8518,100.514,0.00986584,0.164768,20.7914,48.293,-0.0592412,0.0,0.0
891,222.5,53.0606,58.1722,151.954,99.9342,100.594,0.00985465,0.160618,20.7952,48.233,-0.0589725,0.0,0.0
902,225.25,52.3964,57.7584,151.841,99.9768,100.603,0.00977049,0.157416,20.7998,48.1829,-0.0559222,0.0,0.0
913,228,51.3586,56.5396,151.052,99.9887,100.754,0.00968164,0.154641,20.804,48.1629,-0.0683441,0.0,0.0
924,230.75,51.8306,56.0207,152.377,99.9727,100.756,0.00945193,0.152568,20.8088,48.1129,-0.0698917,0.0,0.0
935,233.5,50.9087,55.5253,151.936,99.9223,100.611,0.00909532,0.149388,20.8119,48.0728,-0.061499,0.0,0.0
946,236.25,50.4879,55.0452,154.491,99.858,100.501,0.0086894,0.144802,20.8177,48.0628,-0.057459,0.0,0.0
957,239,49.6364,54.1685,153.055,99.8031,100.41,0.00832847,0.141364,20.8244,48.0228,-0.0542986,0.0,0.0
968,241.75,49.5692,54.0228,152.038,99.7883,100.453,0.0083744,0.138369,20.8276,48.0028,-0.0595137,0.0,0.0
979,244.5,49.0391,53.1033,151.88,99.7264,100.421,0.00845982,0.135821,20.8304,48.0028,-0.0621426,0.0,0.0
990,247.25,49.0424,52.2346,153.754,99.6744,100.365,0.00836613,0.13344,20.8337,47.9627,-0.061848,0.0,0.0
1001,250,48.5725,52.1775,150.718,99.6187,100.322,0.00828284,0.131656,20.8373,47.8927,-0.0630035,0.0,0.0
1012,252.75,47.9231,51.0571,153.244,99.5842,100.2,0.00813179,0.130833,20.8388,47.8626,-0.0552571,0.0,0.0
1023,255.5,46.9646,50.5944,150.285,99.5724,100.212,0.00800211,0.130323,20.8398,47.8426,-0.0574064,0.0,0.0
1034,258.25,47.239,50.4262,150.92,99.6793,100.352,0.00796432,0.129265,20.8401,47.7926,-0.0602502,0.0,0.0
1044,260.75,46.8265,50.1415,151.754,99.8293,100.512,0.00783658,0.128238,20.8408,47.7725,-0.0610329,0.0,0.0