Folder: fsri_materials_database/01_Data/Masonite_Board/Cone (part 3)

File: Masonite_Cone_HF15Scan_230106_R2.csv
Names,Time,Stack TC,Smoke TC,Exh Press,Smoke Comp,Smoke Meas,CO Meter,CO2 Meter,O2 Meter,Sample Mass,Ext Coeff,Start Test,Flame Verif
Chan Gain,,500,500,1,1,1,1,1,1,1,1,1.0,1.0
Offset,,0,0,0.303564,0,0,0,0,0,0,0,0.0,0.0
Gain,,1,1,25.011,13.2774,14.4219,1,1,1,1.00089,1.1066,1.0,1.0
Units,sec,C,C,Pa,%,%,%,%,%,g,/m,,
Baseline,,21.5597,22.1098,150.188,99.8375,99.623,0.000444664,0.0482197,20.9605,-443.47,0.0208792,,
30,7.25,19.351,20.0679,148.137,99.3494,99.1105,0.000736825,0.0564437,20.9526,180.772,0.0233651,0.0,0.0
60,14.75,19.5477,20.2157,150.578,99.1322,98.9411,0.000714032,0.056698,20.9497,180.772,0.0187326,0.0,0.0
90,22.25,19.6383,19.9448,151.298,99.1058,98.8935,0.000302443,0.0548578,20.9507,180.682,0.0208171,0.0,0.0
120,29.75,19.3121,19.9191,152.185,99.1662,98.9261,0.000224722,0.0552781,20.9516,180.652,0.0235325,0.0,0.0
150,37.25,19.5204,20.1593,147.134,99.2136,99.0282,0.00046777,0.0542431,20.9529,180.521,0.0181586,0.0,0.0
180,44.75,19.6117,20.2582,150.549,99.3011,99.022,0.000566484,0.0504643,20.9586,180.491,0.0273215,0.0,0.0
210,52.25,19.4333,19.871,153.121,99.3773,99.1052,0.000373714,0.0491848,20.9602,180.411,0.026613,0.0,0.0
240,59.75,19.9161,19.9786,152.016,99.4515,99.2958,0.0007384,0.0489121,20.9619,180.361,0.015206,0.0,0.0
270,67.25,19.737,20.0756,150.058,99.5674,99.3451,0.000585209,0.0499248,20.96,180.241,0.0216934,0.0,0.0
300,74.75,19.1652,20.5927,147.275,99.6277,99.4243,0.00049683,0.0524039,20.9594,180.211,0.019839,0.0,0.0
330,82.25,19.8941,20.5437,150.693,99.6707,99.3785,0.000628377,0.0514425,20.9565,180.141,0.0284927,0.0,0.0
360,89.75,19.9266,20.721,149.952,99.6719,99.3733,0.000786828,0.0493733,20.9598,179.991,0.0291284,0.0,0.0
390,97.25,19.8374,20.6151,149.962,99.648,99.4512,0.000290136,0.0488422,20.9611,179.941,0.0191923,0.0,0.0
420,104.75,20.158,20.8792,150.738,99.5783,99.2399,0.000234,0.0486077,20.9616,179.871,0.0330433,0.0,0.0
450,112.25,20.2949,20.99,149.743,99.4255,99.0427,0.000686058,0.0488666,20.9606,179.741,0.0374453,0.0,0.0
480,119.75,19.964,20.4108,152.709,99.2116,98.8491,0.000493879,0.0489065,20.9591,179.641,0.0355339,0.0,0.0
510,127.25,19.8399,20.5261,147.175,98.9146,98.5577,0.000384629,0.0491795,20.9599,179.49,0.0350854,0.0,0.0
540,134.75,19.9593,20.5022,148.559,98.6338,98.2505,0.000683112,0.04877,20.9622,179.34,0.0377934,0.0,0.0
570,142.25,19.7434,20.954,151.2,98.4381,98.1017,0.00044513,0.0485834,20.964,179.27,0.033222,0.0,0.0
600,149.75,19.8774,20.6963,147.773,98.4085,98.0322,0.000592869,0.0495152,20.9634,179.13,0.0371883,0.0,0.0
630,157.25,20.1515,20.7415,150.157,98.5159,98.1202,0.000518978,0.0491032,20.9617,179.05,0.0390613,0.0,0.0
660,164.75,20.2031,20.5462,146.549,98.682,98.3319,0.00041713,0.0493424,20.9634,178.93,0.0344962,0.0,0.0
690,172.25,19.7584,20.2098,149.644,98.8781,98.603,0.000219915,0.0511798,20.9621,178.82,0.0270411,0.0,0.0
720,179.75,19.9447,20.6263,154.223,99.0301,98.7157,0.000324923,0.0547269,20.9568,178.74,0.0308611,0.0,0.0
750,187.25,19.5423,20.0776,150.761,99.1569,98.7663,0.000429293,0.0527667,20.9559,178.64,0.0383098,0.0,0.0
780,194.75,18.9696,20.1197,149.425,99.2582,98.9107,0.000457367,0.0496039,20.9613,178.56,0.0340431,0.0,0.0
810,202.25,18.8307,19.5553,146.062,99.2647,98.9525,0.000449395,0.049176,20.9616,178.44,0.030575,0.0,0.0
840,209.75,19.0254,19.672,148.407,99.2861,98.9014,0.000574195,0.0488165,20.9599,178.419,0.0376851,0.0,0.0
870,217.25,19.531,19.7583,151.091,99.2756,98.8429,0.000684549,0.0488725,20.9607,178.389,0.0424019,0.0,0.0
900,224.75,19.0344,19.7649,148.796,99.2371,98.8315,0.000561967,0.0488297,20.9619,178.359,0.0397597,0.0,0.0
930,232.25,19.5586,20.402,152.404,99.2343,98.8231,0.000455997,0.0488486,20.962,178.329,0.0403048,0.0,0.0
960,239.75,19.279,20.4504,149.347,99.2132,98.6387,0.000265952,0.0490071,20.9629,178.219,0.056374,0.0,0.0
990,247.25,19.3337,20.2077,148.279,99.1913,98.6369,0.000324076,0.0491576,20.9629,178.239,0.0544065,0.0,0.0
1020,254.75,19.2962,20.3516,151.66,99.0965,98.5766,0.000278797,0.04917,20.9627,178.199,0.0510585,0.0,0.0
1050,262.25,19.5077,20.3831,147.284,98.9948,98.3781,0.000679942,0.0491119,20.9608,178.179,0.0606574,0.0,0.0
1080,269.75,20.067,20.6555,151.35,98.8712,98.166,0.000543714,0.049284,20.9612,178.139,0.0694862,0.0,0.0
1110,277.25,19.6346,20.7585,151.13,98.7383,98.0269,0.000557788,0.050756,20.9604,178.079,0.0701904,0.0,0.0
1140,284.75,19.7505,20.545,148.766,98.6127,97.769,0.000409194,0.0502185,20.9602,178.089,0.0834067,0.0,0.0
1170,292.25,20.0613,20.54,152.331,98.4968,97.5481,0.000527657,0.0496037,20.9598,178.049,0.0939547,0.0,0.0
1200,299.75,20.0117,20.6719,155.027,98.4312,97.4169,0.000306503,0.049438,20.9624,177.989,0.100543,0.0,0.0
1230,307.25,20.0073,21.0073,155.958,98.4393,97.3962,0.00079601,0.0494811,20.9601,177.939,0.103404,0.0,0.0
1260,314.75,19.6078,20.8413,151.312,98.5268,97.3285,0.000618988,0.0496668,20.9597,177.859,0.118788,0.0,0.0
1290,322.25,19.8434,20.5128,149.47,98.7047,97.3491,0.00102099,0.0498907,20.9617,177.829,0.134234,0.0,0.0
1320,329.75,20.2928,20.9026,153.06,98.9466,97.618,0.000809428,0.0498695,20.9609,177.759,0.131218,0.0,0.0
1350,337.25,20.0166,21.3366,147.11,99.1816,97.6916,0.000605177,0.050246,20.9588,177.699,0.146939,0.0,0.0
1380,344.75,19.7693,20.9113,151.098,99.4089,97.9477,0.000960998,0.0506427,20.9604,177.629,0.143743,0.0,0.0
1410,352.25,20.142,21.6767,146.52,99.5787,98.0221,0.00101249,0.0572295,20.9565,177.529,0.152938,0.0,0.0
1440,359.75,20.2971,20.6523,148.031,99.6865,97.9481,0.00115477,0.0633467,20.9458,177.449,0.170765,0.0,0.0
1470,367.25,20.2421,21.4431,146.945,99.7116,97.7853,0.00111648,0.0569515,20.9502,177.369,0.189363,0.0,0.0
1500,374.75,20.4597,21.2141,150.288,99.6265,98.0124,0.000855363,0.0533099,20.9554,177.238,0.158557,0.0,0.0
1530,382.25,20.2107,21.6646,148.023,99.4964,97.4622,0.00124626,0.0532653,20.9557,177.158,0.200516,0.0,0.0
1560,389.75,20.4411,21.0812,146.562,99.3571,97.5428,0.0012759,0.0530556,20.9561,177.028,0.178888,0.0,0.0
1590,397.25,20.3788,21.3024,148.603,99.2306,97.104,0.00125436,0.0544187,20.9562,176.928,0.210297,0.0,0.0
1620,404.75,20.393,21.0576,149.693,99.1103,97.0058,0.00123641,0.0604424,20.9536,176.798,0.208333,0.0,0.0
1650,412.25,20.4569,21.1458,151.977,99.5394,97.3425,0.00151208,0.0580866,20.9509,176.628,0.216635,0.0,0.0
1680,419.75,20.9789,21.5975,147.413,99.8919,97.3064,0.00178925,0.0538699,20.9546,176.518,0.254553,0.0,1.0
1710,427.25,20.2475,21.4088,145.742,99.9543,97.8658,0.00164377,0.0563709,20.9553,176.328,0.204971,0.0,0.0
1740,434.75,19.9846,21.9599,144.234,99.7319,99.6202,0.00175698,0.0573672,20.9508,176.057,0.0108771,0.0,1.0
1770,442.25,23.7528,26.8682,134.452,99.5937,98.4684,0.00225634,0.0989427,20.9435,175.257,0.110305,0.0,0.0
1800,449.75,28.9663,34.3885,126.883,99.9353,99.1264,0.00234064,0.303559,20.7792,174.146,0.0788923,0.0,0.0
1830,457.25,34.0674,39.8615,125.64,100.268,99.283,0.00241842,0.437815,20.5649,173.115,0.0958202,0.0,0.0
1860,464.75,38.5516,45.989,127.283,100.362,99.4798,0.00332647,0.488781,20.4698,171.914,0.085701,0.0,0.0
1890,472.25,41.7753,50.2483,132.751,100.206,99.1484,0.0032709,0.519927,20.4281,170.703,0.103033,0.0,0.0
1920,479.75,45.3018,54.4697,121.564,99.8271,97.9904,0.00319368,0.544186,20.3977,169.451,0.180259,0.0,0.0
1950,487.25,48.6177,57.5293,129.019,99.3096,97.2404,0.00334222,0.572015,20.3681,168.07,0.204393,0.0,0.0
1980,494.75,51.3215,61.0908,127.838,98.8258,96.4108,0.00374876,0.604348,20.3286,166.719,0.240161,0.0,0.0
2010,502.25,53.9291,64.0506,123.311,98.511,95.6991,0.00393755,0.626081,20.3013,165.368,0.281107,0.0,0.0
2040,509.75,56.2287,66.4896,122.251,98.4867,94.4082,0.00403768,0.643747,20.279,163.907,0.410539,0.0,0.0
2070,517.25,57.8478,68.7595,130.58,98.6958,94.8541,0.00431087,0.660621,20.2556,162.495,0.385391,0.0,0.0
2100,524.75,59.9664,70.1083,118.587,98.9936,93.7542,0.00484852,0.676274,20.2384,161.014,0.527851,0.0,0.0
2130,532.25,60.8293,71.3936,126.136,99.2813,93.9003,0.00504156,0.676132,20.2271,159.503,0.540904,0.0,0.0
2160,539.75,62.7448,73.1562,127.914,99.5054,89.868,0.0055984,0.684969,20.2191,157.971,0.988854,0.0,0.0
2190,547.25,64.4886,75.4537,121.49,99.6375,93.4307,0.00651711,0.707759,20.1986,156.32,0.624334,0.0,0.0
2220,554.75,66.1861,76.8464,125.746,99.7047,91.2733,0.00749168,0.784609,20.1424,154.578,0.857663,0.0,0.0
2250,562.25,63.7026,72.4063,134.199,99.71,95.0341,0.00969248,0.807266,20.0444,153.597,0.466227,0.0,0.0
2280,569.75,57.9948,65.7585,140.741,99.633,99.5643,0.00982255,0.577023,20.1853,153.097,0.00669768,0.0,0.0
2310,577.25,52.7972,57.7389,138.797,99.5374,99.5779,0.00524633,0.309492,20.5323,152.857,-0.00395311,0.0,0.0
2340,584.75,48.0704,51.9284,146.675,99.4049,99.4362,0.00715209,0.172717,20.7687,152.797,-0.00305829,0.0,0.0
2370,592.25,41.726,44.2166,142.44,99.3052,99.4644,0.0127134,0.114053,20.8559,152.636,-0.0155462,0.0,0.0
2400,599.75,38.3993,40.324,143.176,99.2302,99.3601,0.0149235,0.0876361,20.8944,152.596,-0.012692,0.0,0.0
2430,607.25,35.9746,37.242,146.925,99.2217,99.3358,0.014753,0.0779561,20.9115,152.556,-0.0111592,0.0,0.0
2460,614.75,33.8387,34.3823,143.459,99.1642,99.1875,0.0141516,0.075887,20.9144,152.456,-0.00228451,0.0,0.0
2490,622.25,31.7417,32.521,144.114,99.1565,99.1554,0.0135635,0.0744715,20.9154,152.416,0.000106459,0.0,0.0
2520,629.75,30.2005,30.9555,145.772,99.1431,99.2263,0.0141115,0.0747207,20.9146,152.336,-0.00813713,0.0,0.0
2550,637.25,29.4976,29.4101,147.561,99.1443,99.1083,0.0143872,0.074532,20.9141,152.296,0.00352756,0.0,0.0
2580,644.75,28.1195,28.5589,145.598,99.1958,99.2408,0.0151838,0.0753668,20.9127,152.326,-0.0044017,0.0,0.0
2610,652.25,27.7744,27.9134,147.491,99.2278,99.2918,0.016333,0.0759972,20.9132,152.086,-0.00626229,0.0,0.0
2640,659.75,27.0955,27.2527,146.994,99.2898,99.3697,0.017138,0.0766302,20.9119,152.156,-0.00781228,0.0,0.0
2670,667.25,26.6393,26.5727,147.408,99.2943,99.3662,0.0179954,0.0774808,20.9104,152.086,-0.00703233,0.0,0.0
2700,674.75,25.4437,26.0583,143.398,99.3165,99.272,0.0184833,0.0779999,20.9084,152.006,0.00435113,0.0,0.0
2730,682.25,25.2654,24.7762,145.33,99.3408,99.4027,0.019107,0.0785138,20.9069,151.956,-0.00604634,0.0,0.0
2760,689.75,24.8914,24.9005,148.455,99.3639,99.3882,0.0200804,0.0790511,20.9057,151.846,-0.00237132,0.0,0.0
2790,697.25,23.7271,24.529,147.106,99.3757,99.3517,0.0202777,0.0789736,20.9064,151.706,0.00234529,0.0,0.0
2820,704.75,24.011,24.1808,146.757,99.4397,99.4784,0.0208306,0.07987,20.9061,151.626,-0.00378062,0.0,0.0
2835,708.5,24.2797,24.4085,147.199,99.4786,99.4208,0.0216171,0.0804061,20.9056,151.656,0.00564417,0.0,0.0

File: Masonite_Cone_HF15Scan_230106_R3.csv
Names,Time,Stack TC,Smoke TC,Exh Press,Smoke Comp,Smoke Meas,CO Meter,CO2 Meter,O2 Meter,Sample Mass,Ext Coeff,Start Test,Flame Verif
Chan Gain,,500,500,1,1,1,1,1,1,1,1,1.0,1.0
Offset,,0,0,0.303564,0,0,0,0,0,0,0,0.0,0.0
Gain,,1,1,25.011,13.3266,14.4891,1,1,1,1.00089,1.1066,1.0,1.0
Units,sec,C,C,Pa,%,%,%,%,%,g,/m,,
Baseline,,21.4337,21.9732,149.901,99.862,99.8678,0.000507439,0.0498404,20.9588,-443.532,-0.000557067,,
29,7,19.2275,19.9673,150.47,99.8848,99.7514,0.000578103,0.0617641,20.9453,177.238,0.0129724,0.0,0.0
58,14.25,19.2935,20.2453,149.327,99.7335,99.6616,0.000589153,0.0563755,20.9465,177.228,0.00699718,0.0,0.0
87,21.5,19.7545,20.0152,148.001,99.6497,99.5519,0.000259575,0.0526204,20.9554,177.188,0.0095269,0.0,0.0
116,28.75,19.7399,20.6182,152.187,99.5631,99.502,0.000285769,0.0523637,20.9561,177.138,0.00595758,0.0,0.0
145,36,19.6154,20.0425,157.26,99.476,99.3729,0.000349511,0.0503201,20.959,177.038,0.0100725,0.0,0.0
174,43.25,19.7022,19.9051,152.485,99.4427,99.2972,0.00083514,0.0491495,20.9602,176.998,0.0142065,0.0,0.0
203,50.5,19.6485,20.353,152.51,99.4093,99.3401,0.000493623,0.0494844,20.9615,176.918,0.00675897,0.0,0.0
232,57.75,20.0113,20.4535,148.66,99.4256,99.4405,0.000260981,0.0495653,20.9596,176.878,-0.00145582,0.0,0.0
261,65,19.9165,20.4486,151.393,99.4752,99.4202,4.5835e-06,0.0506146,20.9603,176.818,0.00537239,0.0,0.0
290,72.25,19.9028,20.7643,149.055,99.6001,99.4617,8.62251e-06,0.0518009,20.957,176.738,0.0134913,0.0,0.0
319,79.5,19.4552,20.6524,146.188,99.7802,99.6373,0.000137064,0.0500168,20.9583,176.698,0.0139165,0.0,0.0
348,86.75,19.6277,20.5854,152.421,99.9608,99.8336,0.00029948,0.0494654,20.9579,176.608,0.0123599,0.0,0.0
377,94,20.0132,20.7801,146.815,100.108,99.9181,0.000529747,0.0492212,20.9583,176.448,0.0183989,0.0,0.0
406,101.25,19.4159,20.4133,150.321,100.286,100.064,0.000512203,0.0492145,20.9579,176.368,0.0214902,0.0,0.0
435,108.5,20.0859,20.3283,150.341,100.454,100.298,-6.39549e-05,0.0491546,20.9612,176.278,0.0150708,0.0,0.0
464,115.75,20.2479,20.5712,148.823,100.577,100.324,0.00039889,0.0490706,20.9621,176.127,0.0244513,0.0,0.0
493,123,20.3389,20.6743,148.574,100.664,100.423,0.000429086,0.0513185,20.961,176.027,0.0232647,0.0,0.0
522,130.25,20.4507,20.8013,147.737,100.66,100.469,0.000575087,0.0517203,20.9576,175.897,0.0184243,0.0,0.0
551,137.5,19.8838,20.9267,147.531,100.609,100.449,0.000388206,0.0497691,20.9596,175.777,0.0154509,0.0,0.0
580,144.75,20.2251,20.9355,150.235,100.506,100.288,0.000147302,0.0491847,20.9619,175.687,0.0210411,0.0,0.0
609,152,20.1081,20.8277,148.264,100.368,100.148,0.000353035,0.0489621,20.9622,175.547,0.0212547,0.0,0.0
638,159.25,20.1026,20.56,152.007,100.209,99.9278,0.000553752,0.0486606,20.9622,175.447,0.0273077,0.0,0.0
667,166.5,19.8684,20.7117,146.449,100.082,99.834,0.0007199,0.0487333,20.9618,175.337,0.0240404,0.0,0.0
696,173.75,19.9812,20.6903,154.047,99.9555,99.6797,0.000584063,0.0488213,20.9613,175.207,0.0268196,0.0,0.0
725,181,19.7563,20.5585,147.09,99.8534,99.5679,0.000286969,0.0487602,20.9635,175.147,0.0278016,0.0,0.0
754,188.25,19.9721,20.5653,147.826,99.825,99.5157,0.000315758,0.0487361,20.9637,175.087,0.0301217,0.0,0.0
783,195.5,19.6617,20.8237,151.74,100.05,99.6828,6.76059e-05,0.0487109,20.9625,175.036,0.0357173,0.0,0.0
812,202.75,20.1655,20.8562,151.221,100.215,99.8809,-0.000145883,0.0523292,20.9617,174.996,0.0324528,0.0,0.0
841,210,19.6597,20.8995,152.288,100.253,99.7938,0.000148251,0.0513431,20.9594,174.916,0.044586,0.0,0.0
870,217.25,20.0922,20.5421,151.767,100.208,99.7602,0.000493903,0.0494755,20.962,174.816,0.0434422,0.0,0.0
899,224.5,20.0179,20.6705,149.04,100.004,99.555,0.000158639,0.0491002,20.9602,174.866,0.0436691,0.0,0.0
928,231.75,20.4378,20.6208,148.047,99.7176,99.2287,0.000519683,0.049208,20.9626,174.826,0.0477083,0.0,0.0
957,239,19.8226,21.0623,155.401,99.4,98.909,0.000384663,0.0491698,20.9617,174.766,0.0480629,0.0,0.0
986,246.25,20.117,21.2344,150.844,99.5208,98.9961,0.000346206,0.0490196,20.9619,174.776,0.0513072,0.0,0.0
1015,253.5,20.2706,20.4018,152.676,99.6822,99.0306,0.000355958,0.051068,20.9614,174.746,0.0636606,0.0,0.0
1044,260.75,19.3005,21.327,149.954,99.8567,99.276,0.000435374,0.0538165,20.9568,174.626,0.056611,0.0,0.0
1073,268,20.0493,21.1745,153.036,99.9901,99.2681,0.000370435,0.0511039,20.9581,174.616,0.0703478,0.0,0.0
1102,275.25,20.1553,20.9771,146.031,100.04,99.3163,0.000363031,0.0499075,20.9597,174.586,0.0704524,0.0,0.0
1131,282.5,20.1763,20.9082,146.952,99.975,99.1686,0.000579084,0.0519804,20.9584,174.546,0.0786203,0.0,0.0
1160,289.75,20.1343,20.8844,149.464,99.8205,98.7206,0.000303283,0.051597,20.9577,174.476,0.107547,0.0,0.0
1189,297,20.2003,21.3208,151.715,99.5773,98.5902,0.000884806,0.0504272,20.9597,174.456,0.0967025,0.0,0.0
1218,304.25,20.0354,21.4288,147.609,99.282,98.2665,0.000594299,0.0499755,20.9611,174.406,0.0997977,0.0,0.0
1247,311.5,20.0271,20.7026,149.902,99.0254,97.7355,0.000726296,0.0498541,20.9621,174.316,0.127274,0.0,0.0
1276,318.75,20.1125,21.2193,148.567,98.8444,97.5878,0.000950695,0.0499351,20.9634,174.266,0.124197,0.0,0.0
1305,326,19.9345,21.0032,150.391,98.7647,97.4972,0.000932595,0.0502403,20.9615,174.126,0.125386,0.0,0.0
1334,333.25,19.9269,21.0611,146.568,98.8448,97.3265,0.000557764,0.0504865,20.9618,174.096,0.150265,0.0,0.0
1363,340.5,20.4667,21.2425,156.39,99.0966,97.6541,0.00110929,0.0503484,20.9611,174.066,0.142332,0.0,0.0
1392,347.75,20.4425,21.2946,147.294,99.4618,97.9827,0.000793294,0.0520114,20.9599,173.915,0.145439,0.0,0.0
1421,355,20.4075,21.4852,147.437,99.8778,97.7748,0.000959954,0.0515209,20.9585,173.875,0.206569,0.0,0.0
1450,362.25,20.2587,20.9569,153.249,100.189,97.9566,0.00102573,0.0519417,20.9596,173.755,0.218774,0.0,0.0
1479,369.5,20.5281,20.9626,148.483,100.444,98.2356,0.0012306,0.0516018,20.9591,173.555,0.215761,0.0,0.0
1508,376.75,20.5089,21.2544,150.932,100.601,99.36,0.00109155,0.0515217,20.9589,173.525,0.12052,0.0,0.0
1537,384,20.1131,21.84,148.156,100.666,98.2621,0.0014685,0.0523056,20.9596,173.345,0.234654,0.0,0.0
1566,391.25,20.278,21.9149,148.564,100.64,98.0623,0.0014113,0.0528372,20.9583,173.235,0.251868,0.0,0.0
1595,398.5,20.517,21.1511,149.918,100.535,99.1544,0.00143688,0.0522971,20.9581,173.115,0.134189,0.0,1.0
1624,405.75,19.989,21.4339,142.781,100.405,99.8327,0.00166435,0.0533562,20.9581,172.704,0.0554777,0.0,0.0
1653,413,23.2169,26.5027,136.559,100.253,99.5356,0.00197495,0.134874,20.9355,171.934,0.0696964,0.0,0.0
1682,420.25,28.4769,32.3191,130.769,100.064,99.2557,0.00278358,0.285396,20.767,171.083,0.0787018,0.0,0.0
1711,427.5,32.6073,38.0807,127.669,99.886,98.9665,0.00278698,0.381437,20.6235,170.002,0.0897685,0.0,0.0
1740,434.75,36.8422,43.9043,131.111,99.7924,98.622,0.00305602,0.46204,20.5214,168.861,0.114518,0.0,0.0
1769,442,40.5469,48.7143,131.772,100.073,99.1712,0.00326978,0.512152,20.4515,167.66,0.0878732,0.0,0.0
1798,449.25,44.5134,53.4132,126.697,100.215,98.6587,0.00365989,0.554071,20.4008,166.369,0.151962,0.0,0.0
1827,456.5,48.0311,57.1968,124.015,100.263,98.3824,0.00381023,0.590797,20.354,165.018,0.18376,0.0,0.0
1856,463.75,50.9096,60.6304,120.752,100.291,98.7463,0.00375753,0.622179,20.3108,163.616,0.150676,0.0,0.0
1885,471,53.8384,63.6803,124.047,100.3,97.5538,0.00408909,0.647431,20.2801,162.205,0.269447,0.0,0.0
1914,478.25,56.7415,66.3022,126.408,100.292,97.2602,0.00417998,0.67275,20.2489,160.814,0.297997,0.0,0.0
1943,485.5,57.9602,68.5873,124.213,100.282,96.2975,0.00443386,0.688031,20.221,159.372,0.393525,0.0,0.0
1972,492.75,59.8803,70.0175,127.842,100.255,95.8549,0.00492222,0.687998,20.2159,157.921,0.435645,0.0,0.0
2001,500,61.2443,71.7314,122.845,100.137,96.2538,0.00501834,0.690983,20.2095,156.49,0.383913,0.0,0.0
2030,507.25,61.8971,72.4241,120.708,99.8681,95.5697,0.0055886,0.693271,20.2061,155.079,0.42705,0.0,0.0
2059,514.5,62.5044,72.3191,124.859,99.9462,96.13,0.00588305,0.679028,20.2183,153.737,0.377899,0.0,0.0
2088,521.75,62.0807,71.7323,130.515,100.189,92.7129,0.00565226,0.661453,20.2274,152.446,0.752826,0.0,0.0
2117,529,62.6085,71.4145,121.316,100.442,90.6873,0.00567984,0.635558,20.2584,151.085,0.991734,0.0,0.0
2146,536.25,61.8974,70.4457,129.512,100.614,93.2497,0.00696614,0.659295,20.2608,149.794,0.737876,0.0,0.0
2175,543.5,58.9811,65.9435,137,100.689,100.494,0.0101452,0.625761,20.2212,149.103,0.0188204,0.0,0.0
2204,550.75,53.4649,58.937,142.809,100.653,100.965,0.0102462,0.416518,20.3807,148.833,-0.0300506,0.0,0.0
2233,558,49.3651,52.6433,144.212,100.492,100.714,0.00595941,0.221739,20.6822,148.693,-0.0215043,0.0,0.0
2262,565.25,43.0139,45.8123,145.877,100.257,100.484,0.00885282,0.136931,20.8193,148.613,-0.0220111,0.0,0.0
2291,572.5,39.7251,41.0993,147.156,99.9697,100.228,0.0140411,0.0938132,20.8781,148.493,-0.0250456,0.0,0.0
2320,579.75,36.7785,37.4872,146.746,99.6863,99.8447,0.0150396,0.0757363,20.9105,148.523,-0.0154095,0.0,0.0
2349,587,34.4318,35.2981,143.836,99.3898,99.601,0.0141057,0.0722285,20.9172,148.463,-0.0206061,0.0,0.0
2378,594.25,32.8556,33.5458,147.458,99.1067,99.3499,0.0132123,0.070613,20.9173,148.343,-0.0237828,0.0,0.0
2407,601.5,31.1091,31.8426,143.867,98.8965,99.1398,0.0134774,0.0702239,20.9181,148.353,-0.0238565,0.0,0.0
2436,608.75,30.312,30.407,147.444,98.8143,99.0607,0.014069,0.0697832,20.9184,148.313,-0.0241709,0.0,0.0
2465,616,28.7945,28.8066,146.811,98.818,99.0028,0.0138272,0.0695573,20.9188,148.202,-0.0181329,0.0,0.0
2494,623.25,27.5564,27.8316,147.504,98.9404,99.1089,0.0141512,0.0716081,20.9213,148.213,-0.0165152,0.0,0.0
2523,630.5,27.0575,27.4386,147.053,99.1002,99.3786,0.0147804,0.0706521,20.9205,148.152,-0.0272281,0.0,0.0
2552,637.75,26.715,26.7543,148.069,99.3068,99.4113,0.0148981,0.0703736,20.9213,148.062,-0.0102087,0.0,0.0
2581,645,26.4557,26.548,145.084,99.5423,99.6696,0.0153065,0.0703957,20.9211,148.052,-0.0124006,0.0,0.0
2610,652.25,25.6743,25.585,149.887,99.7619,99.8871,0.0154296,0.0706929,20.9205,148.002,-0.0121723,0.0,0.0
2639,659.5,25.5277,25.2596,147.836,99.9323,100.044,0.0156769,0.070698,20.921,147.932,-0.0108481,0.0,0.0
2668,666.75,24.5214,24.9306,148.038,100.061,100.234,0.0159029,0.0713511,20.9181,147.862,-0.0168027,0.0,0.0
2697,674,24.3068,24.2446,144.661,100.077,100.263,0.0160073,0.0717199,20.9185,147.802,-0.01809,0.0,0.0
2724,680.75,24.109,24.112,146.679,100.024,100.258,0.0158412,0.0713441,20.9196,147.802,-0.0226635,0.0,0.0

File: Masonite_Cone_HF25Scalar_230106_R1.csv
LABORATORY,FSRI
TEST IDENT,Masonite_HF25_R1
OPERATOR,Marino
MATERIAL,Masonite
ORIENTATION,Horizontal
HEAT FLUX,25
SURF AREA,0.01
C FACTOR,0.0414609
SPEC HOLDER DIFF,-566
SPECIMEN MASS,35.01
SCAN TIME,0.25
O2 DELAY TIME,11
CO DELAY TIME,11
CO2 DELAY TIME,8
FLOW FACTOR,1
SCAN COUNT,1698
TIME TO IGN,149
END OF TEST SCAN,1218
END OF TEST TIME,304.5
TEST STATUS,1
PRE TEST CMT,Dimensions: 101.02 x 101.61 x 2.97 mm; with calcium silicate substrate; with tie wires

File: Masonite_Cone_HF25Scalar_230106_R2.csv
LABORATORY,FSRI
TEST IDENT,Masonite_HF25_R2
OPERATOR,Marino
MATERIAL,Masonite
ORIENTATION,Horizontal
HEAT FLUX,25
SURF AREA,0.01
C FACTOR,0.0414609
SPEC HOLDER DIFF,-566
SPECIMEN MASS,35.47
SCAN TIME,0.25
O2 DELAY TIME,11
CO DELAY TIME,11
CO2 DELAY TIME,8
FLOW FACTOR,1
SCAN COUNT,1824
TIME TO IGN,149.75
END OF TEST SCAN,1344
END OF TEST TIME,336
TEST STATUS,1
PRE TEST CMT,Dimensions: 101.63 x 101.51 x 3.00 mm; with calcium silicate substrate; with tie wires
POST TEST CMT,"Sample warped, separating from the underside insulation near center. Charred and fractured while burning. See test pictures.
"

File: Masonite_Cone_HF25Scalar_230106_R3.csv
LABORATORY,FSRI
TEST IDENT,Masonite_HF25_R3
OPERATOR,Marino
MATERIAL,Masonite
ORIENTATION,Horizontal
HEAT FLUX,25
SURF AREA,0.01
C FACTOR,0.0414609
SPEC HOLDER DIFF,-566
SPECIMEN MASS,35.77
SCAN TIME,0.25
O2 DELAY TIME,11
CO DELAY TIME,11
CO2 DELAY TIME,8
FLOW FACTOR,1
SCAN COUNT,1737
TIME TO IGN,153
END OF TEST SCAN,1257
END OF TEST TIME,314.25
TEST STATUS,1
PRE TEST CMT,"
Dimensions: 101.61 x 101.60 x 2.96 mm; with calcium silicate substrate; with tie wires"
POST TEST CMT,"Sample warped, separating from the underside insulation near center. Charred and fractured while burning."