Folder: fsri_materials_database/01_Data/Masonite_Board/Cone (part 2)

File: Masonite_Board_HRRPUA_75.csv
Time after Ignition,Masonite_Board_R1,Masonite_Board_R2,Masonite_Board_R3,Mean,Std. Dev.
0.0,2.1,5.7,5.5,4.4,2.0
0.5,2.2,5.9,5.5,4.5,2.0
1.0,2.4,6.1,5.7,4.7,2.0
1.5,2.5,6.2,6.0,4.9,2.1
2.0,2.6,6.1,6.2,5.0,2.1
2.5,2.8,6.8,6.7,5.4,2.3
3.0,2.9,7.0,7.0,5.6,2.4
3.5,3.1,8.0,7.3,6.1,2.6
4.0,3.1,8.7,8.1,6.6,3.0
4.5,3.2,10.1,8.9,7.4,3.7
5.0,3.3,11.1,9.6,8.0,4.2
5.5,3.3,11.5,10.7,8.5,4.6
6.0,3.4,12.5,11.6,9.2,5.1
6.5,3.4,13.0,12.6,9.6,5.4
7.0,3.4,13.5,13.7,10.2,5.9
7.5,3.4,13.5,14.7,10.5,6.2
8.0,3.3,14.3,15.3,11.0,6.6
8.5,3.3,14.5,15.7,11.2,6.8
9.0,3.3,14.5,17.3,11.7,7.4
9.5,3.6,14.5,17.9,12.0,7.5
10.0,3.9,14.9,19.3,12.7,8.0
10.5,4.2,15.4,23.0,14.2,9.5
11.0,8.5,15.8,27.2,17.2,9.5
11.5,11.7,19.2,33.8,21.6,11.2
12.0,19.6,21.6,43.5,28.2,13.3
12.5,28.3,23.4,50.5,34.1,14.4
13.0,38.7,29.9,61.5,43.4,16.3
13.5,46.4,34.6,72.4,51.1,19.4
14.0,56.8,47.3,80.0,61.4,16.8
14.5,67.7,55.4,90.3,71.1,17.7
15.0,76.0,68.2,105.2,83.1,19.5
15.5,89.1,85.4,109.8,94.8,13.2
16.0,101.3,91.7,122.4,105.1,15.7
16.5,112.0,111.8,130.1,118.0,10.5
17.0,122.2,119.5,142.9,128.2,12.8
17.5,132.3,127.3,147.9,135.8,10.8
18.0,147.2,136.5,157.4,147.0,10.5
18.5,152.2,148.2,168.7,156.4,10.9
19.0,167.2,156.8,180.2,168.1,11.7
19.5,174.8,165.2,189.8,176.6,12.4
20.0,188.8,169.5,195.7,184.7,13.6
20.5,188.1,178.0,209.3,191.8,16.0
21.0,198.9,183.4,210.8,197.7,13.7
21.5,207.0,194.5,215.4,205.6,10.5
22.0,209.2,198.7,233.4,213.7,17.8
22.5,218.5,201.2,240.9,220.2,19.9
23.0,227.2,207.1,246.0,226.8,19.4
23.5,237.6,217.1,248.7,234.5,16.0
24.0,242.2,223.9,254.1,240.1,15.2
24.5,246.6,225.3,262.2,244.7,18.5
25.0,258.2,230.4,267.0,251.9,19.1
25.5,257.4,239.3,269.0,255.2,14.9
26.0,279.6,243.7,276.4,266.6,19.9
26.5,268.6,252.6,280.4,267.2,13.9
27.0,288.0,257.7,279.9,275.2,15.7
27.5,291.4,260.5,284.9,278.9,16.3
28.0,284.8,270.5,304.5,286.6,17.1
28.5,299.8,273.6,296.6,290.0,14.3
29.0,295.2,292.4,306.9,298.2,7.7
29.5,306.2,284.0,315.5,301.9,16.1
30.0,319.6,296.3,315.1,310.3,12.4
30.5,321.0,300.8,316.3,312.7,10.6
31.0,321.6,304.5,329.7,318.6,12.8
31.5,330.6,310.1,330.0,323.6,11.7
32.0,325.4,300.0,320.4,315.3,13.4
32.5,333.4,321.0,342.9,332.5,11.0
33.0,342.1,323.1,338.3,334.5,10.0
33.5,346.1,322.6,338.0,335.6,11.9
34.0,354.7,340.5,348.5,347.9,7.1
34.5,363.2,337.3,371.7,357.4,17.9
35.0,362.7,353.2,361.2,359.0,5.1
35.5,369.7,350.8,378.0,366.2,14.0
36.0,386.5,360.9,381.7,376.4,13.6
36.5,383.4,351.7,372.5,369.2,16.1
37.0,379.0,353.3,400.2,377.5,23.5
37.5,383.4,368.8,381.6,377.9,7.9
38.0,397.1,378.2,399.6,391.6,11.7
38.5,404.8,375.3,402.9,394.4,16.5
39.0,409.2,369.3,400.2,392.9,20.9
39.5,407.5,394.9,405.3,402.6,6.7
40.0,402.2,385.5,407.7,398.5,11.6
40.5,424.6,383.4,429.9,412.6,25.4
41.0,422.8,389.0,418.3,410.0,18.4
41.5,420.9,386.8,423.0,410.2,20.3
42.0,431.2,408.3,423.9,421.1,11.7
42.5,434.9,414.6,450.6,433.4,18.1
43.0,420.1,393.8,441.9,418.6,24.1
43.5,432.4,427.0,449.5,436.3,11.8
44.0,449.0,424.8,432.4,435.4,12.4
44.5,437.7,437.3,471.1,448.7,19.4
45.0,450.0,441.9,467.5,453.1,13.1
45.5,464.1,444.5,472.0,460.2,14.2
46.0,459.1,443.9,492.0,465.0,24.6
46.5,442.7,433.0,484.8,453.5,27.5
47.0,469.9,449.7,482.7,467.5,16.7
47.5,477.9,430.0,494.3,467.4,33.4
48.0,477.1,439.6,499.8,472.1,30.4
48.5,477.3,460.1,521.6,486.3,31.7
49.0,463.7,432.3,509.5,468.5,38.8
49.5,497.7,452.7,508.7,486.4,29.6
50.0,490.6,453.6,493.7,479.3,22.3
50.5,495.4,459.7,509.1,488.1,25.5
51.0,495.3,464.8,522.2,494.1,28.7
51.5,514.3,471.1,512.2,499.2,24.4
52.0,504.8,464.7,532.6,500.7,34.1
52.5,502.2,461.0,532.0,498.4,35.6
53.0,516.7,471.3,545.2,511.1,37.2
53.5,522.5,484.0,521.5,509.3,21.9
54.0,521.4,486.8,551.2,519.8,32.3
54.5,511.7,517.3,537.1,522.1,13.3
55.0,526.3,493.9,542.6,520.9,24.8
55.5,524.3,508.9,551.0,528.1,21.3
56.0,500.8,507.1,559.9,522.6,32.5
56.5,517.1,501.9,548.8,522.6,23.9
57.0,511.2,532.3,552.0,531.8,20.4
57.5,537.2,532.0,561.3,543.5,15.6
58.0,512.2,513.0,557.3,527.5,25.8
58.5,535.8,533.8,552.7,540.8,10.4
59.0,533.1,533.8,572.2,546.4,22.4
59.5,526.6,545.3,597.0,556.3,36.5
60.0,523.7,548.2,584.2,552.0,30.4
60.5,535.4,566.9,584.9,562.4,25.0
61.0,530.5,553.9,574.2,552.8,21.9
61.5,544.4,556.0,611.5,570.6,35.9
62.0,515.8,559.8,598.7,558.1,41.5
62.5,520.7,556.3,610.8,562.6,45.4
63.0,531.0,561.0,584.7,558.9,26.9
63.5,550.9,580.0,613.3,581.4,31.2
64.0,548.5,570.9,597.9,572.4,24.8
64.5,549.7,597.3,601.5,582.9,28.8
65.0,534.5,599.6,623.9,586.0,46.2
65.5,533.5,598.2,612.7,581.5,42.1
66.0,563.6,603.0,594.5,587.0,20.8
66.5,566.0,624.0,633.7,607.9,36.6
67.0,560.3,601.8,606.3,589.5,25.4
67.5,570.9,619.0,610.8,600.2,25.7
68.0,604.0,611.6,612.6,609.4,4.7
68.5,596.6,601.4,610.4,602.8,7.0
69.0,589.9,641.5,631.2,620.9,27.3
69.5,600.6,610.2,614.2,608.3,7.0
70.0,589.6,626.6,641.2,619.1,26.6
70.5,605.4,642.1,647.2,631.6,22.8
71.0,600.6,656.5,616.0,624.4,28.9
71.5,610.5,649.9,624.4,628.3,20.0
72.0,596.2,628.4,660.7,628.5,32.3
72.5,603.5,639.6,638.9,627.3,20.7
73.0,618.6,675.0,644.1,645.9,28.2
73.5,624.3,651.5,645.4,640.4,14.3
74.0,636.6,680.8,643.9,653.7,23.7
74.5,607.2,659.3,647.3,638.0,27.3
75.0,635.7,709.5,640.7,662.0,41.2
75.5,649.6,684.4,661.6,665.2,17.7
76.0,644.7,682.7,648.0,658.5,21.1
76.5,631.5,684.2,642.3,652.7,27.8
77.0,636.0,671.4,644.2,650.5,18.6
77.5,594.6,685.3,664.0,648.0,47.4
78.0,623.8,691.8,652.7,656.1,34.1
78.5,638.6,692.9,653.7,661.7,28.0
79.0,635.6,701.3,647.7,661.5,34.9
79.5,615.1,687.0,642.0,648.1,36.3
80.0,651.7,693.7,652.1,665.8,24.2
80.5,641.8,687.8,638.1,655.9,27.7
81.0,644.5,681.5,653.6,659.9,19.3
81.5,642.5,690.5,635.2,656.1,30.0
82.0,657.9,693.3,639.3,663.5,27.4
82.5,651.7,662.4,627.7,647.3,17.8
83.0,639.8,663.0,620.4,641.1,21.3
83.5,657.3,660.4,636.3,651.3,13.1
84.0,649.3,662.4,631.0,647.6,15.8
84.5,646.9,640.6,621.1,636.2,13.4
85.0,669.1,662.2,627.7,653.0,22.2
85.5,665.2,659.1,643.1,655.8,11.4
86.0,665.6,670.0,636.8,657.5,18.0
86.5,685.6,664.4,637.3,662.4,24.2
87.0,655.5,663.4,636.3,651.7,13.9
87.5,660.0,660.0,641.1,653.7,10.9
88.0,670.5,641.6,630.5,647.5,20.7
88.5,671.8,673.9,628.7,658.1,25.5
89.0,668.1,675.3,640.5,661.3,18.4
89.5,655.9,686.3,650.4,664.2,19.4
90.0,664.7,681.0,663.1,669.6,9.9
90.5,662.1,679.2,666.4,669.3,8.9
91.0,672.4,685.2,644.3,667.3,20.9
91.5,662.6,693.6,658.7,671.6,19.1
92.0,672.9,682.5,657.5,670.9,12.6
92.5,669.7,679.1,661.2,670.0,9.0
93.0,659.0,687.9,656.3,667.8,17.5
93.5,665.1,690.9,646.6,667.6,22.2
94.0,668.9,677.3,639.6,661.9,19.8
94.5,663.2,680.6,668.9,670.9,8.9
95.0,669.8,666.9,654.5,663.7,8.1
95.5,661.1,671.3,655.2,662.5,8.2
96.0,671.0,668.8,654.1,664.6,9.2
96.5,673.0,663.3,664.0,666.8,5.4
97.0,681.0,660.5,653.9,665.1,14.2
97.5,676.6,656.9,667.6,667.0,9.9
98.0,674.7,654.8,652.2,660.6,12.3
98.5,677.8,644.0,650.7,657.5,17.9
99.0,677.3,623.5,663.1,654.6,27.9
99.5,677.1,620.4,645.6,647.7,28.4
100.0,678.5,606.0,658.8,647.7,37.5
100.5,678.5,601.7,640.8,640.3,38.4
101.0,674.9,585.4,623.4,627.9,44.9
101.5,683.1,549.4,625.4,619.3,67.1
102.0,668.9,513.2,605.9,596.0,78.3
102.5,666.2,490.8,589.3,582.1,87.9
103.0,658.8,461.8,580.1,566.9,99.2
103.5,647.6,432.3,568.3,549.4,108.8
104.0,647.1,396.3,554.4,532.6,126.8
104.5,631.6,371.7,533.6,512.3,131.2
105.0,630.6,347.5,520.9,499.7,142.8
105.5,604.3,324.7,495.4,474.8,140.9
106.0,594.6,299.2,470.9,454.9,148.3
106.5,577.7,273.7,441.2,430.9,152.3
107.0,555.6,256.0,426.8,412.8,150.2
107.5,555.1,234.5,411.7,400.4,160.6
108.0,526.9,,381.8,454.3,102.6
108.5,484.8,,364.6,424.7,85.0
109.0,457.6,,350.3,403.9,75.8
109.5,434.8,,332.6,383.7,72.3
110.0,381.5,,309.6,345.6,50.8
110.5,365.9,,298.0,332.0,48.0
111.0,343.5,,267.1,305.3,54.0
111.5,317.3,,256.2,286.7,43.2
112.0,303.6,,243.5,273.6,42.5
112.5,283.1,,219.8,251.4,44.8
113.0,258.5,,201.6,230.0,40.2
113.5,238.9,,185.4,212.1,37.8
114.0,219.9,,171.2,195.5,34.4
114.5,201.2,,158.2,179.7,30.4
115.0,184.2,,144.3,164.3,28.2
115.5,171.4,,134.8,153.1,25.9
116.0,158.4,,126.0,142.2,22.9
116.5,145.2,,118.9,132.1,18.6
117.0,132.7,,112.3,122.5,14.4
117.5,125.4,,108.1,116.8,12.2

File: Masonite_Cone_HF15Scalar_230106_R1.csv
LABORATORY,FSRI
TEST IDENT,Masonite_HF15_R1
OPERATOR,Marino
MATERIAL,Masonite
ORIENTATION,Horizontal
HEAT FLUX,15
SURF AREA,0.01
C FACTOR,0.0411447
SPEC HOLDER DIFF,-566
SPECIMEN MASS,35.48
SCAN TIME,0.25
O2 DELAY TIME,11
CO DELAY TIME,11
CO2 DELAY TIME,8
FLOW FACTOR,1
SCAN COUNT,3062
TIME TO IGN,488.5
END OF TEST SCAN,2582
END OF TEST TIME,645.5
TEST STATUS,1
PRE TEST CMT,Dimensions: 101.61 x 101.61 x 2.99 mm; with calcium silicate substrate; with tie wires
POST TEST CMT,"After ignition the sample warped, charred, and fractured. Bumped weight scale."

File: Masonite_Cone_HF15Scalar_230106_R2.csv
LABORATORY,FSRI
TEST IDENT,Masonite_HF15_R2
OPERATOR,Marino
MATERIAL,Masonite
ORIENTATION,Horizontal
HEAT FLUX,15
SURF AREA,0.01
C FACTOR,0.0411447
SPEC HOLDER DIFF,-566
SPECIMEN MASS,34.12
SCAN TIME,0.25
O2 DELAY TIME,11
CO DELAY TIME,11
CO2 DELAY TIME,8
FLOW FACTOR,1
SCAN COUNT,2835
TIME TO IGN,430.75
END OF TEST SCAN,2355
END OF TEST TIME,588.75
TEST STATUS,1
PRE TEST CMT,Dimensions: 100.87 x 101.53 x 3.04 mm; with calcium silicate substrate; with tie wires
POST TEST CMT,"After ignition the sample warped, charred, and fractured. Bumped weight scale around 20 seconds. Flames intermittenly extended radially outside of cone."

File: Masonite_Cone_HF15Scalar_230106_R3.csv
LABORATORY,FSRI
TEST IDENT,Masonite_HF15_R3
OPERATOR,Marino
MATERIAL,Masonite
ORIENTATION,Horizontal
HEAT FLUX,15
SURF AREA,0.01
C FACTOR,0.0411447
SPEC HOLDER DIFF,-566
SPECIMEN MASS,34.81
SCAN TIME,0.25
O2 DELAY TIME,11
CO DELAY TIME,11
CO2 DELAY TIME,8
FLOW FACTOR,1
SCAN COUNT,2724
TIME TO IGN,398
END OF TEST SCAN,2244
END OF TEST TIME,561
TEST STATUS,1
PRE TEST CMT,Dimensions: 101.63 x 101.06 x 2.97 mm; with calcium silicate substrate; with tie wires
POST TEST CMT,"After ignition the sample warped, charred, and fractured."

File: Masonite_Cone_HF15Scan_230106_R1.csv
Names,Time,Stack TC,Smoke TC,Exh Press,Smoke Comp,Smoke Meas,CO Meter,CO2 Meter,O2 Meter,Sample Mass,Ext Coeff,Start Test,Flame Verif
Chan Gain,,500,500,1,1,1,1,1,1,1,1,1.0,1.0
Offset,,0,0,0.303564,0,0,0,0,0,0,0,0.0,0.0
Gain,,1,1,25.011,13.362,14.5452,1,1,1,1.00089,1.1066,1.0,1.0
Units,sec,C,C,Pa,%,%,%,%,%,g,/m,,
Baseline,,20.503,21.39,150.283,100.704,100.728,0.000358782,0.0494679,20.9641,-443.383,-0.00229613,,
33,8,19.0392,19.8371,149.108,99.1606,99.2173,0.00052779,0.0521374,20.963,181.022,-0.00555715,0.0,0.0
66,16.25,19.2344,19.9788,145.534,99.4737,99.4561,0.000422977,0.0581332,20.9546,180.882,0.00171593,0.0,0.0
99,24.5,19.1517,19.9556,149.31,99.9068,99.9386,0.000772958,0.0672142,20.9448,180.852,-0.00309533,0.0,0.0
132,32.75,19.4454,19.9274,152.908,100.236,100.25,0.000432799,0.061351,20.9447,180.812,-0.00139391,0.0,0.0
165,41,18.9119,19.8699,153.417,100.394,100.414,0.000519838,0.0617599,20.9521,180.712,-0.00197375,0.0,0.0
198,49.25,18.6898,20.4089,155.718,100.411,100.47,0.000264851,0.0573369,20.9483,180.702,-0.00568045,0.0,0.0
231,57.5,18.8489,20.1577,149.293,100.208,100.232,0.000428455,0.0563877,20.955,180.631,-0.00227468,0.0,0.0
264,65.75,19.4518,19.9079,151.023,99.9696,99.9946,0.000357282,0.0559997,20.9546,180.551,-0.00242688,0.0,0.0
297,74,19.33,20.3152,150.091,99.7979,99.8037,0.000154795,0.0564334,20.9541,180.471,-0.000564135,0.0,0.0
330,82.25,19.4495,20.1221,150.084,100.411,100.435,0.000223122,0.0506813,20.9602,180.331,-0.00233486,0.0,0.0
363,90.5,19.4015,19.7752,152.308,100.668,100.639,0.000200817,0.0510561,20.958,180.291,0.0028011,0.0,0.0
396,98.75,19.3841,20.2747,148.506,100.529,100.509,0.000462369,0.050808,20.9611,180.161,0.00197508,0.0,0.0
429,107,19.5657,20.4608,151.374,100.225,100.191,0.000386476,0.0523138,20.9605,180.051,0.00334016,0.0,0.0
462,115.25,20.1898,20.0282,148.959,100.565,100.461,0.000433036,0.0501413,20.957,179.911,0.00998815,0.0,0.0
495,123.5,19.4657,20.7358,150.737,100.897,100.815,0.000427787,0.0461029,20.9638,179.851,0.00793029,0.0,0.0
528,131.75,19.3324,19.8617,147.859,101.022,100.817,0.000192557,0.0447634,20.9668,179.731,0.0197143,0.0,0.0
561,140,19.5212,20.6647,153.891,101.062,100.856,0.000505928,0.0445089,20.968,179.571,0.0197963,0.0,0.0
594,148.25,19.8443,20.2286,147.25,101.033,100.87,0.000183135,0.0452708,20.967,179.38,0.0156866,0.0,0.0
627,156.5,19.6423,20.2614,149.866,100.965,100.85,0.000137351,0.0461539,20.9658,179.32,0.0111036,0.0,0.0
660,164.75,19.7088,20.2959,149.39,100.925,100.697,0.000362717,0.0464349,20.9657,179.22,0.0218909,0.0,0.0
693,173,19.0613,20.1839,151.171,100.888,100.703,-0.000130633,0.0462549,20.9649,178.97,0.0178006,0.0,0.0
726,181.25,19.5487,20.3813,151.547,100.86,100.588,-9.06388e-05,0.0462437,20.9647,178.97,0.0262241,0.0,0.0
759,189.5,19.7295,20.3425,153.652,100.872,100.571,0.000582085,0.0464116,20.9647,178.92,0.0289934,0.0,0.0
792,197.75,19.3922,20.2569,152.1,100.919,100.637,0.00044025,0.0467017,20.9663,178.79,0.0272015,0.0,0.0
825,206,19.703,20.4182,148.569,100.987,100.743,0.000276673,0.0468937,20.9664,178.81,0.0234806,0.0,0.0
858,214.25,19.4176,20.7137,151.452,101.022,100.816,0.000235734,0.0470908,20.9664,178.75,0.0197986,0.0,0.0
891,222.5,19.8018,20.5855,148.758,101.046,100.795,-4.43813e-05,0.0470914,20.9636,178.63,0.0241201,0.0,0.0
924,230.75,19.2117,20.2961,149.43,101.01,100.605,0.000245833,0.0470453,20.9634,178.6,0.038946,0.0,0.0
957,239,19.5579,19.9636,149.857,100.85,100.433,0.000522081,0.0471108,20.9634,178.62,0.0402852,0.0,0.0
990,247.25,19.2813,20.8687,149.248,100.653,100.252,0.000531114,0.0472396,20.9634,178.5,0.0387086,0.0,0.0
1023,255.5,19.1118,20.2786,154.733,100.448,100.001,0.000139682,0.0472081,20.9646,178.49,0.0433431,0.0,0.0
1056,263.75,19.3904,20.6104,148.42,100.262,99.7864,0.000220194,0.0474677,20.9641,178.48,0.0461916,0.0,0.0
1089,272,19.7288,20.1863,147.204,100.153,99.7442,0.00026351,0.0478162,20.9638,178.46,0.0397078,0.0,0.0
1122,280.25,19.536,20.5227,148.033,100.434,99.813,0.000600338,0.0480774,20.9658,178.399,0.0601675,0.0,0.0
1155,288.5,19.5616,20.9263,150.206,100.589,100.03,0.000539871,0.0493757,20.9624,178.349,0.0540854,0.0,0.0
1188,296.75,19.5395,20.7563,150.217,100.632,99.9267,0.000724728,0.0482618,20.9627,178.279,0.068297,0.0,0.0
1221,305,19.4798,20.9376,150.161,100.572,99.924,0.000613351,0.0476259,20.963,178.279,0.0627328,0.0,0.0
1254,313.25,19.8591,20.8334,147.519,100.393,99.8002,0.000285655,0.0482373,20.9635,178.219,0.0575175,0.0,0.0
1287,321.5,19.56,20.5451,148.606,100.118,99.2333,0.00034356,0.0477074,20.9637,178.189,0.0861575,0.0,0.0
1320,329.75,19.7049,20.5253,150.2,99.782,98.9688,0.000480522,0.0476099,20.9637,178.139,0.0794387,0.0,0.0
1353,338,19.5078,20.5082,153.001,99.9251,99.1117,0.00019569,0.047732,20.965,178.099,0.0793434,0.0,0.0
1386,346.25,19.5641,20.781,147.598,100.141,99.1352,0.000360657,0.0483899,20.9654,178.059,0.0980108,0.0,0.0
1419,354.5,19.5307,21.2186,149.532,100.347,99.3203,0.000660779,0.0484373,20.9657,177.969,0.0998045,0.0,0.0
1452,362.75,20.1053,20.6008,147.502,100.259,99.0993,0.000633537,0.0484682,20.9615,177.879,0.11291,0.0,0.0
1485,371,19.3638,20.808,152.776,99.895,98.7362,0.000471712,0.0483166,20.9633,177.819,0.113261,0.0,0.0
1518,379.25,20.0726,20.867,150.742,99.4122,97.962,0.00109049,0.0485741,20.963,177.699,0.142638,0.0,0.0
1551,387.5,19.8881,20.5744,154.713,99.0896,97.4755,0.00101,0.0491634,20.9627,177.599,0.159419,0.0,0.0
1584,395.75,19.6758,20.6046,148.506,99.2409,97.5892,0.000622929,0.0492284,20.9627,177.519,0.162918,0.0,0.0
1617,404,19.5243,20.4074,149.782,99.8309,97.9492,0.000950047,0.0493561,20.961,177.449,0.184721,0.0,0.0
1650,412.25,19.7397,20.2749,148.033,100.514,98.7486,0.000966489,0.0493771,20.9633,177.329,0.172003,0.0,0.0
1683,420.5,19.7311,20.9996,148.158,100.96,99.2471,0.00147897,0.0496802,20.9633,177.208,0.166151,0.0,0.0
1716,428.75,19.701,21.1371,148.41,100.951,99.1885,0.00121771,0.0503029,20.9635,177.058,0.170942,0.0,0.0
1749,437,20.0655,20.7836,151.624,100.637,98.6576,0.00138595,0.0513386,20.9618,176.968,0.192798,0.0,0.0
1782,445.25,19.7877,20.9983,151.647,100.242,98.4934,0.00123319,0.0511005,20.9615,176.798,0.170784,0.0,0.0
1815,453.5,19.8961,20.3932,149.684,100.439,98.4667,0.000999741,0.051777,20.9623,176.638,0.192541,0.0,0.0
1848,461.75,19.9224,20.7365,150.252,100.622,98.393,0.00146645,0.0515221,20.9626,176.578,0.217447,0.0,0.0
1881,470,19.6772,20.7674,151.874,100.227,98.2843,0.00171045,0.0517414,20.9626,176.348,0.190028,0.0,0.0
1914,478.25,19.5778,20.9577,149.17,99.8248,97.1457,0.00185868,0.0531867,20.9607,176.198,0.264076,0.0,0.0
1947,486.5,20.5608,21.2649,152.96,100.07,97.6127,0.00184856,0.0524492,20.96,175.997,0.241329,0.0,0.0
1980,494.75,21.1088,23.3979,137.209,100.281,99.8676,0.00196756,0.0573225,20.9602,175.327,0.0400697,0.0,0.0
2013,503,26.0937,30.4968,135.041,100.345,99.6173,0.00230634,0.22794,20.87,174.386,0.0706672,0.0,0.0
2046,511.25,31.4069,37.3855,132.542,100.188,99.1183,0.00231958,0.371784,20.6434,173.265,0.104168,0.0,0.0
2079,519.5,35.784,43.2099,129.525,99.8709,99.109,0.00281831,0.455101,20.5255,171.864,0.0743334,0.0,0.0
2112,527.75,40.6375,48.9143,131.64,99.5108,97.591,0.00269075,0.508381,20.4552,170.522,0.18911,0.0,0.0
2145,536,45.2302,54.4658,133.14,99.1695,97.4143,0.00320437,0.564272,20.3937,169.021,0.173347,0.0,0.0
2178,544.25,48.7866,58.4346,123.589,99.0223,97.2558,0.00349631,0.607364,20.3308,167.48,0.174732,0.0,0.0
2211,552.5,52.722,63.3791,126.731,99.1924,96.9859,0.00362582,0.64217,20.2961,165.828,0.21836,0.0,0.0
2244,560.75,56.3948,66.8372,125.408,99.6095,96.2886,0.00393885,0.677067,20.2509,164.187,0.329144,0.0,0.0
2277,569,58.7404,69.7247,124.608,100.121,96.0263,0.00435767,0.700273,20.2159,162.475,0.405331,0.0,0.0
2310,577.25,60.6119,72.2028,118.52,100.554,96.4897,0.00490487,0.709622,20.1956,160.794,0.400454,0.0,0.0
2343,585.5,63.2228,74.637,118.52,100.843,95.0741,0.00571278,0.722684,20.1808,159.062,0.571785,0.0,0.0
2376,593.75,64.5211,75.4663,122.419,100.987,93.4349,0.00585676,0.72452,20.1706,157.391,0.754497,0.0,0.0
2409,602,65.4932,76.5179,123.694,101.005,93.9968,0.00668197,0.727342,20.1679,155.589,0.697975,0.0,0.0
2442,610.25,65.698,75.93,128.51,100.996,91.9789,0.00912749,0.748258,20.1432,153.918,0.90777,0.0,0.0
2475,618.5,62.8975,71.6143,133.679,100.979,98.0561,0.00916879,0.701584,20.1366,152.847,0.285102,0.0,0.0
2508,626.75,58.2945,64.0456,140.976,100.958,101.249,0.00580299,0.49869,20.3398,152.226,-0.0279389,0.0,0.0
2541,635,52.1073,56.6717,143.238,100.949,101.391,0.00365743,0.291242,20.6012,151.956,-0.0424066,0.0,0.0
2574,643.25,46.7521,49.7962,146.968,100.979,101.248,0.00555131,0.168239,20.7816,151.856,-0.0258125,0.0,0.0
2607,651.5,40.4906,42.7734,147.983,100.984,101.338,0.0118483,0.112446,20.8595,151.786,-0.0339771,0.0,0.0
2640,659.75,37.3981,38.283,145.928,100.98,101.338,0.0161378,0.0819494,20.8969,151.706,-0.0343655,0.0,0.0
2673,668,34.2002,35.3698,146.344,100.987,101.269,0.0159415,0.0749298,20.9105,151.596,-0.0271062,0.0,0.0
2706,676.25,32.3014,32.8641,148.031,100.983,101.238,0.0155856,0.0737013,20.9139,151.525,-0.024523,0.0,0.0
2739,684.5,29.9395,31.1967,149.097,100.981,101.314,0.0157817,0.0735976,20.9122,151.475,-0.0319121,0.0,0.0
2772,692.75,29.5216,29.5473,148.638,100.952,101.215,0.0163124,0.0731184,20.9143,151.445,-0.0252463,0.0,0.0
2805,701,28.3379,28.2306,145.556,100.895,101.095,0.0167414,0.0727692,20.9154,151.335,-0.0192402,0.0,0.0
2838,709.25,27.2904,27.2647,146.369,100.753,101.006,0.0169617,0.0741738,20.9163,151.315,-0.0244098,0.0,0.0
2871,717.5,26.3798,26.932,147.035,100.544,100.775,0.0178816,0.0769629,20.9122,151.245,-0.0222987,0.0,0.0
2904,725.75,25.9081,26.0383,147.546,100.215,100.43,0.0177729,0.0764729,20.9131,151.185,-0.0207963,0.0,0.0
2937,734,25.1878,24.615,144.434,99.7792,99.9657,0.0182644,0.0764193,20.9121,151.095,-0.0181335,0.0,0.0
2970,742.25,24.9225,24.8786,149.67,99.3649,99.5485,0.0186467,0.0758278,20.9121,151.025,-0.0179219,0.0,0.0
3003,750.5,24.6934,24.3614,147.44,99.0761,99.283,0.0190785,0.0768947,20.9108,150.945,-0.0202478,0.0,0.0
3036,758.75,23.393,24.0786,146.252,99.0386,99.2688,0.0189898,0.0772127,20.9093,150.885,-0.0225359,0.0,0.0
3062,765.25,23.3318,23.1967,147.204,99.1626,99.3066,0.0191259,0.0766255,20.9109,150.825,-0.0140819,0.0,0.0