Folder: fsri_materials_database/01_Data/Masonite_Board/Cone (part 8)

File: Masonite_Cone_HF50Scan_230105_R6.csv
Names,Time,Stack TC,Smoke TC,Exh Press,Smoke Comp,Smoke Meas,CO Meter,CO2 Meter,O2 Meter,Sample Mass,Ext Coeff,Start Test,Flame Verif
Chan Gain,,500,500,1,1,1,1,1,1,1,1,1.0,1.0
Offset,,0,0,0.131978,0,0,0,0,0,0,0,0.0,0.0
Gain,,1,1,25.011,13.5924,14.2928,1,1,1,1.00089,1.02125,1.0,1.0
Units,sec,C,C,Pa,%,%,%,%,%,g,/m,,
Baseline,,33.0839,33.8312,156.528,101.062,100.95,0.000829571,0.0465239,20.9354,-450.073,0.0099258,,
16,3.75,30.6634,31.4314,156.569,100.951,100.809,0.000913615,0.0499529,20.9337,172.574,0.0126299,0.0,0.0
32,7.75,30.6023,31.0127,156.307,100.956,100.778,0.000748444,0.0486978,20.9357,172.444,0.0158243,0.0,0.0
48,11.75,30.8822,31.3886,158.264,100.948,100.755,0.000661301,0.0473116,20.938,172.303,0.0171408,0.0,0.0
64,15.75,30.7103,31.2664,158.584,100.935,100.398,0.000684421,0.0464557,20.9392,172.253,0.0478185,0.0,0.0
80,19.75,30.8187,31.3477,157.294,100.937,100.142,0.000761541,0.0455089,20.9414,172.083,0.0707642,0.0,0.0
96,23.75,30.729,31.7057,155.506,100.939,100.071,0.000721733,0.0449576,20.9415,171.973,0.0773498,0.0,0.0
112,27.75,30.9377,31.8737,154.366,100.921,99.3223,0.00078632,0.0445563,20.9411,171.863,0.143023,0.0,0.0
128,31.75,31.0101,31.3677,155.328,100.922,99.2128,0.000707653,0.0455903,20.9405,171.713,0.153014,0.0,0.0
144,35.75,30.993,31.9169,156.367,100.917,98.5634,0.000798174,0.0461996,20.9389,171.523,0.211409,0.0,0.0
160,39.75,31.5007,31.7035,150.592,100.912,98.2201,0.000913255,0.0458664,20.9399,171.343,0.242258,0.0,0.0
176,43.75,31.6794,31.9918,155.901,100.903,97.4729,0.00102845,0.0455334,20.9406,171.132,0.309856,0.0,0.0
192,47.75,31.624,32.112,151.368,100.897,100.598,0.000912613,0.0466367,20.9389,170.852,0.0266231,0.0,1.0
208,51.75,32.2568,32.5509,143.192,100.891,99.7341,0.00108847,0.0475094,20.9368,170.362,0.103347,0.0,0.0
224,55.75,34.1877,33.996,134.422,100.893,98.9402,0.00148441,0.0678532,20.9385,169.831,0.175049,0.0,0.0
240,59.75,36.6944,36.5734,139.026,100.893,98.8185,0.00249884,0.169575,20.8879,169.231,0.186074,0.0,0.0
256,63.75,39.5004,37.4891,133.79,100.883,98.2873,0.00312894,0.279523,20.7754,168.54,0.233555,0.0,0.0
272,67.75,42.2361,42.013,137.293,100.883,97.8275,0.00334167,0.36914,20.6453,167.799,0.275556,0.0,0.0
288,71.75,45.2039,44.8997,133.734,100.881,96.9129,0.00367816,0.446654,20.542,166.999,0.359525,0.0,0.0
304,75.75,48.3066,48.1734,130.934,100.881,96.3995,0.00397681,0.530838,20.4452,166.138,0.407107,0.0,0.0
320,79.75,52.1351,52.141,127.429,100.873,94.6473,0.00443662,0.617047,20.3459,165.297,0.570731,0.0,0.0
336,83.75,54.8297,55.7553,131.723,100.88,95.0473,0.00482065,0.692037,20.2499,164.326,0.533505,0.0,0.0
352,87.75,58.7535,59.367,122.497,100.875,94.7603,0.00558154,0.771477,20.15,163.205,0.560155,0.0,0.0
368,91.75,61.5713,63.2464,118.661,100.867,93.3083,0.00648142,0.833264,20.0666,162.144,0.697789,0.0,0.0
384,95.75,65.4517,66.4659,126.54,100.869,92.767,0.00674921,0.903356,19.9938,160.813,0.750132,0.0,0.0
400,99.75,68.6938,70.0228,118.158,100.878,91.9055,0.00710805,0.975779,19.9113,159.652,0.834446,0.0,0.0
416,103.75,72.6769,74.6638,124.184,100.873,92.4769,0.00759623,1.0573,19.817,158.321,0.778518,0.0,0.0
432,107.75,76.4433,78.9921,114.579,100.88,90.1298,0.0079543,1.1312,19.7267,156.91,1.00941,0.0,0.0
448,111.75,79.6827,83.1291,112.588,100.89,90.9651,0.00844573,1.20981,19.6403,155.549,0.927725,0.0,0.0
464,115.75,83.4248,87.0911,116.816,100.898,91.1775,0.00935025,1.28446,19.5479,154.057,0.907457,0.0,0.0
480,119.75,86.052,90.2943,113.28,100.905,90.4181,0.0105488,1.34675,19.4717,152.736,0.983007,0.0,0.0
496,123.75,89.0045,93.9487,120.118,100.914,90.9437,0.0113554,1.40125,19.4043,151.335,0.931929,0.0,0.0
512,127.75,90.5577,96.3874,115.695,100.934,92.0734,0.0112007,1.40883,19.355,150.174,0.823138,0.0,0.0
528,131.75,92.3316,98.7099,120.89,100.935,93.0544,0.0111267,1.39147,19.3463,148.923,0.728272,0.0,0.0
544,135.75,93.2291,100.276,115.033,100.953,92.8128,0.0107589,1.31904,19.3868,147.832,0.753112,0.0,0.0
560,139.75,93.9177,100.878,125.65,100.963,90.5485,0.0105328,1.23375,19.4701,146.751,0.975322,0.0,0.0
576,143.75,93.8571,101.321,125.899,100.975,88.9949,0.00999827,1.14778,19.5633,145.68,1.1314,0.0,0.0
592,147.75,93.6817,101.434,127.44,100.988,90.258,0.00940653,1.06219,19.648,144.609,1.00632,0.0,0.0
608,151.75,92.8083,100.824,127.183,101.001,91.0615,0.00997811,1.02316,19.7505,143.688,0.928029,0.0,0.0
624,155.75,91.6923,99.5223,132.469,101.021,96.0431,0.0106418,0.981007,19.7855,143.077,0.45269,0.0,0.0
640,159.75,88.3132,97.4447,144.792,101.012,101.491,0.010128,0.920342,19.8337,142.857,-0.0423811,0.0,0.0
656,163.75,84.1808,94.2814,150.075,101.018,101.702,0.00878252,0.750039,19.9228,142.747,-0.0604039,0.0,0.0
672,167.75,81.1737,90.6214,149.453,101.022,101.664,0.00674369,0.465732,20.1363,142.657,-0.0567314,0.0,0.0
688,171.75,78.2636,86.6959,147.061,101.014,101.667,0.00518673,0.264506,20.48,142.557,-0.0577363,0.0,0.0
704,175.75,74.6579,83.8697,150.971,101.022,101.542,0.00531072,0.1813,20.7023,142.427,-0.0460751,0.0,0.0
720,179.75,72.6878,80.9312,151.854,101.012,101.614,0.0059135,0.148743,20.7847,142.387,-0.0533054,0.0,0.0
736,183.75,69.2494,78.569,149.949,101.015,101.568,0.00653313,0.134535,20.8195,142.307,-0.0488584,0.0,0.0
752,187.75,67.6794,76.0333,147.783,100.993,101.522,0.00737999,0.126709,20.834,142.257,-0.0468067,0.0,0.0
768,191.75,65.462,73.6771,151.178,100.985,101.53,0.00778257,0.122621,20.841,142.187,-0.0481599,0.0,0.0
784,195.75,63.7321,70.835,152.635,100.978,101.497,0.00844444,0.119051,20.8427,142.097,-0.0459721,0.0,0.0
800,199.75,61.7255,69.0561,150.61,100.978,101.457,0.00861401,0.117822,20.8474,142.077,-0.0423543,0.0,0.0
816,203.75,60.141,67.1505,156.751,100.963,101.433,0.00881833,0.116532,20.8483,142.026,-0.0416741,0.0,0.0
832,207.75,58.6634,65.5514,150.692,100.953,101.419,0.00909905,0.114979,20.8502,142.016,-0.0412476,0.0,0.0
848,211.75,57.7034,63.4071,148.963,100.947,101.426,0.00916221,0.113264,20.8525,141.976,-0.0424198,0.0,0.0
864,215.75,56.1743,62.4018,151.326,100.926,101.387,0.00930613,0.112158,20.8541,141.896,-0.0408281,0.0,0.0
880,219.75,55.1416,60.7868,150.024,100.916,101.31,0.00942129,0.111366,20.8568,141.876,-0.0349645,0.0,0.0
896,223.75,53.9672,59.4596,152.526,100.904,101.283,0.00972761,0.110825,20.8579,141.796,-0.0335264,0.0,0.0
912,227.75,52.8209,58.084,148.897,100.889,101.315,0.0100579,0.111804,20.8581,141.806,-0.0377079,0.0,0.0
928,231.75,52.0366,57.0205,155.24,100.874,101.338,0.0099286,0.109843,20.8568,141.706,-0.041114,0.0,0.0
944,235.75,51.5055,55.9709,149.576,100.856,101.245,0.00969016,0.108796,20.8611,141.666,-0.0345196,0.0,0.0
960,239.75,50.6342,55.1092,152.556,100.864,101.169,0.00992326,0.109221,20.8602,141.566,-0.0270265,0.0,0.0
976,243.75,50.0496,53.8744,150.109,100.877,101.157,0.0102389,0.109051,20.8588,141.506,-0.0248031,0.0,0.0
992,247.75,48.7526,52.9776,149.459,100.967,101.361,0.0103575,0.108339,20.8585,141.416,-0.0349099,0.0,0.0
1008,251.75,48.3511,52.3233,151.78,101.067,101.294,0.010055,0.107893,20.8603,141.316,-0.0201053,0.0,0.0
1024,255.75,47.7365,51.4724,149.499,101.148,101.442,0.0099021,0.106978,20.8607,141.266,-0.0260063,0.0,0.0
1040,259.75,47.51,50.9008,152.298,101.203,101.436,0.010261,0.106562,20.8611,141.226,-0.0205816,0.0,0.0
1056,263.75,46.4402,49.4466,149.314,101.246,101.476,0.0103261,0.105897,20.8646,141.166,-0.0203461,0.0,0.0
1072,267.75,45.5599,48.731,152.171,101.305,101.434,0.0100894,0.104713,20.8661,141.076,-0.0114019,0.0,0.0
1088,271.75,44.7425,48.0345,153.164,101.369,101.589,0.0102195,0.103172,20.8682,141.056,-0.0194562,0.0,0.0
1104,275.75,44.1867,47.5348,152.181,101.415,101.838,0.0102108,0.103734,20.8686,140.986,-0.0372489,0.0,0.0
1120,279.75,43.9992,46.8799,152.648,101.447,101.614,0.0105548,0.103333,20.868,140.966,-0.0147211,0.0,0.0
1136,283.75,43.7783,46.7995,153.464,101.477,101.713,0.0103938,0.102885,20.8684,140.936,-0.0208856,0.0,0.0
1152,287.75,43.8938,45.9233,153.018,101.513,101.637,0.0103673,0.101793,20.8682,140.946,-0.0109748,0.0,0.0
1168,291.75,43.1525,45.1417,155.527,101.539,101.806,0.00997965,0.100767,20.8686,140.915,-0.0234983,0.0,0.0
1184,295.75,42.6236,44.9341,150.349,101.568,101.751,0.00978775,0.100728,20.8704,140.865,-0.0161364,0.0,0.0
1200,299.75,42.9121,44.783,153.276,101.606,101.799,0.0101236,0.101545,20.8692,140.755,-0.016958,0.0,0.0
1216,303.75,42.349,44.384,153.393,101.628,101.748,0.0104077,0.101158,20.8681,140.715,-0.0106391,0.0,0.0
1232,307.75,41.9146,43.8147,152.033,101.643,101.756,0.0102292,0.101169,20.8707,140.685,-0.00997725,0.0,0.0
1248,311.75,41.2654,42.9184,152.241,101.643,101.841,0.0101057,0.10123,20.8713,140.625,-0.0174989,0.0,0.0
1264,315.75,41.5236,43.3382,152.879,101.652,101.941,0.0103589,0.10118,20.8708,140.535,-0.0254397,0.0,0.0
1280,319.75,41.0498,42.9869,154.721,101.645,101.87,0.010106,0.0995503,20.872,140.445,-0.0198479,0.0,0.0
1296,323.75,41.0753,43.1465,151.136,101.641,101.849,0.0103055,0.100642,20.8721,140.355,-0.0183352,0.0,0.0
1312,327.75,41.5179,42.3552,149.159,101.64,101.821,0.0108062,0.101498,20.8709,140.305,-0.0158785,0.0,0.0
1328,331.75,40.6744,41.8291,151.939,101.638,101.743,0.0108323,0.10132,20.8679,140.245,-0.00926151,0.0,0.0
1344,335.75,40.6757,41.8928,151.058,101.635,101.737,0.0108183,0.100503,20.868,140.195,-0.00898357,0.0,0.0
1360,339.75,40.629,42.0737,156.842,101.626,101.842,0.0105064,0.100207,20.8687,140.175,-0.0189992,0.0,0.0
1376,343.75,40.2977,41.1819,153.689,101.627,101.734,0.010285,0.100133,20.8689,140.125,-0.00944485,0.0,0.0
1392,347.75,40.0468,41.3107,153.041,101.633,101.759,0.0103177,0.0988354,20.8689,140.115,-0.0111603,0.0,0.0
1408,351.75,39.8953,40.7605,151.558,101.623,101.751,0.0102885,0.0989031,20.8709,140.125,-0.0111972,0.0,0.0
1424,355.75,39.469,40.6025,151.858,101.624,101.765,0.0107248,0.0990022,20.8738,140.025,-0.0123906,0.0,0.0
1440,359.75,39.8961,40.7241,150.723,101.617,101.76,0.0108154,0.0987364,20.8743,140.015,-0.012551,0.0,0.0
1456,363.75,39.6002,40.5832,156.092,101.602,101.725,0.010577,0.0985767,20.875,139.945,-0.0108711,0.0,0.0
1472,367.75,39.4862,40.0628,153.55,101.591,101.648,0.0105101,0.0982333,20.8752,139.915,-0.00501795,0.0,0.0
1488,371.75,39.1484,39.9412,152.85,101.589,101.713,0.0105821,0.0979596,20.8766,139.875,-0.0109657,0.0,0.0
1504,375.75,39.0001,40.0298,154.992,101.58,101.632,0.0106915,0.0977589,20.8753,139.815,-0.00454835,0.0,0.0
1520,379.75,38.8415,39.8744,151.902,101.583,101.618,0.0104928,0.0968668,20.8743,139.764,-0.0030991,0.0,0.0

File: Masonite_Cone_HF75Scalar_230106_R2.csv
LABORATORY,FSRI
TEST IDENT,Masonite_HF75_R2
OPERATOR,Marino
MATERIAL,Masonite
ORIENTATION,Horizontal
HEAT FLUX,75
SURF AREA,0.01
C FACTOR,0.0414609
SPEC HOLDER DIFF,-566
SPECIMEN MASS,34.83
SCAN TIME,0.25
O2 DELAY TIME,11
CO DELAY TIME,11
CO2 DELAY TIME,8
FLOW FACTOR,1
SCAN COUNT,990
TIME TO IGN,20
END OF TEST SCAN,510
END OF TEST TIME,127.5
TEST STATUS,1
PRE TEST CMT,Dimensions: 101.61 x 100.98 x 2.98 mm; with calcium silicate substrate; with tie wires
POST TEST CMT,"Warped, charred, and fractured while burning."

File: Masonite_Cone_HF75Scalar_230106_R3.csv
LABORATORY,FSRI
TEST IDENT,Masonite_HF75_R3
OPERATOR,Marino
MATERIAL,Masonite
ORIENTATION,Horizontal
HEAT FLUX,75
SURF AREA,0.01
C FACTOR,0.0414609
SPEC HOLDER DIFF,-566
SPECIMEN MASS,34.62
SCAN TIME,0.25
O2 DELAY TIME,11
CO DELAY TIME,11
CO2 DELAY TIME,8
FLOW FACTOR,1
SCAN COUNT,1049
TIME TO IGN,22.25
END OF TEST SCAN,569
END OF TEST TIME,142.25
TEST STATUS,1
PRE TEST CMT,Dimensions: 101.59 x 100.96 x 2.96 mm; with calcium silicate substrate; with tie wires
POST TEST CMT,"Warped, charred, and fractured while burning."

File: Masonite_Cone_HF75Scan_230106_R1.csv
Names,Time,Stack TC,Smoke TC,Exh Press,Smoke Comp,Smoke Meas,CO Meter,CO2 Meter,O2 Meter,Sample Mass,Ext Coeff,Start Test,Flame Verif
Chan Gain,,500,500,1,1,1,1,1,1,1,1,1.0,1.0
Offset,,0,0,0.303564,0,0,0,0,0,0,0,0.0,0.0
Gain,,1,1,25.011,13.3935,16.078,1,1,1,1.00088,1.03447,1.0,1.0
Units,sec,C,C,Pa,%,%,%,%,%,g,/m,,
Baseline,,44.4039,47.4004,142.831,100.025,100.076,0.000462937,0.0466608,20.9625,-446.003,-0.00460375,,
11,2.5,41.953,44.2747,145.679,101.14,101.147,0.000497984,0.0479594,20.963,177.756,-0.000659887,0.0,0.0
22,5.25,42.2636,44.7608,143.864,101.13,100.778,0.000612406,0.0489291,20.9625,177.545,0.0316668,0.0,0.0
33,8,42.2654,45.0943,141.431,101.104,100.146,0.000487825,0.0496717,20.9614,177.415,0.0863662,0.0,0.0
44,10.75,42.6995,44.9987,143.095,101.085,100.22,0.000350782,0.0500605,20.9592,177.295,0.0780133,0.0,0.0
55,13.5,42.7698,45.4346,142.463,101.071,99.199,0.000370232,0.0500925,20.9574,177.255,0.169646,0.0,0.0
66,16.25,43.2271,45.8149,139.956,101.039,98.5366,0.000522505,0.0502287,20.9582,177.115,0.227579,0.0,0.0
77,19,43.4796,45.9787,140.939,101.001,96.4758,0.000703538,0.0508792,20.9587,176.945,0.415956,0.0,0.0
88,21.75,43.4691,47.1912,132.065,100.967,100.454,0.000922408,0.0519353,20.9574,176.695,0.0462283,0.0,1.0
99,24.5,44.3922,48.4164,129.359,100.934,99.6985,0.000955246,0.0522822,20.9558,176.485,0.111731,0.0,1.0
110,27.25,46.3076,51.7461,126.913,100.882,99.5361,0.00108815,0.0561217,20.9553,175.784,0.121855,0.0,0.0
121,30,49.0212,55.9935,121.771,100.827,98.4924,0.00153257,0.104197,20.9541,175.183,0.212539,0.0,0.0
132,32.75,52.317,60.3204,118.509,100.763,98.4708,0.00189743,0.202208,20.8892,174.573,0.208787,0.0,0.0
143,35.5,55.392,65.0859,118.64,100.689,97.3644,0.00228994,0.31286,20.7656,173.902,0.304661,0.0,0.0
154,38.25,58.3852,69.1233,118.143,100.633,96.7599,0.00273429,0.415567,20.6259,173.222,0.356127,0.0,0.0
165,41,61.7669,73.118,118.609,100.571,95.7933,0.00323145,0.494727,20.5166,172.581,0.441666,0.0,0.0
176,43.75,65.4001,77.714,113.887,100.533,94.1393,0.00381871,0.57756,20.4209,171.78,0.596323,0.0,0.0
187,46.5,68.2106,82.151,107.247,100.502,92.9671,0.00430004,0.646228,20.3207,171,0.70718,0.0,0.0
198,49.25,71.5629,86.1851,114.588,100.471,92.2581,0.00465355,0.711033,20.2484,170.219,0.773883,0.0,0.0
209,52,74.4723,90.4326,108.667,100.44,92.9808,0.0049762,0.777143,20.1808,169.508,0.700228,0.0,0.0
220,54.75,77.4154,93.9038,111.711,100.411,90.7341,0.00538339,0.839896,20.0978,168.638,0.919566,0.0,0.0
231,57.5,80.2593,97.7578,107.5,100.412,89.7204,0.00589995,0.896473,20.0263,167.717,1.02163,0.0,0.0
242,60.25,83.0914,100.96,113.763,100.483,88.4633,0.00649058,0.954768,19.9556,166.956,1.15606,0.0,0.0
253,63,86.2199,105.245,100.477,100.564,89.6772,0.00697969,0.998921,19.8899,166.135,1.03973,0.0,0.0
264,65.75,88.6067,107.688,109.814,100.621,92.1698,0.00736976,1.04839,19.84,165.265,0.796038,0.0,0.0
275,68.5,91.1839,110.462,110.029,100.655,91.2802,0.00779794,1.10274,19.7876,164.314,0.887139,0.0,0.0
286,71.25,93.1155,113.223,117.85,100.681,92.5824,0.00840093,1.14824,19.718,163.303,0.760993,0.0,0.0
297,74,95.5557,116.099,110.102,100.756,92.1231,0.00874118,1.18066,19.6688,162.432,0.812821,0.0,0.0
308,76.75,97.7082,119.198,97.8815,100.82,93.3871,0.00867249,1.20685,19.6382,161.481,0.694944,0.0,0.0
319,79.5,100.344,122.936,103.938,100.885,93.2448,0.00879709,1.23646,19.6077,160.571,0.714665,0.0,0.0
330,82.25,103.469,125.753,107.042,100.94,92.9033,0.00897129,1.27172,19.574,159.46,0.752885,0.0,0.0
341,85,106.659,129.447,98.0189,100.939,92.4877,0.00910288,1.33595,19.5323,158.519,0.793459,0.0,0.0
352,87.75,108.9,132.61,103.107,100.989,92.9715,0.00950563,1.39526,19.4497,157.438,0.750634,0.0,0.0
363,90.5,110.284,134.905,104.539,101.052,91.5383,0.00973901,1.43654,19.3823,156.597,0.897265,0.0,0.0
374,93.25,112.656,136.857,97.2884,101.059,91.6374,0.00977145,1.47708,19.3366,155.496,0.888032,0.0,0.0
385,96,114.779,139.777,107.996,101.076,91.9009,0.00961081,1.49295,19.2944,154.415,0.86352,0.0,0.0
396,98.75,116.003,140.805,99.508,101.095,91.9465,0.00953786,1.50318,19.2773,153.454,0.860739,0.0,0.0
407,101.5,117.905,142.946,104.449,101.114,91.6202,0.00982912,1.5302,19.2644,152.564,0.894723,0.0,0.0
418,104.25,118.615,143.083,103.185,101.155,89.3931,0.0101567,1.5333,19.2376,151.563,1.12166,0.0,0.0
429,107,118.315,143.182,105.187,101.16,85.5233,0.0103252,1.52462,19.2342,150.682,1.52368,0.0,0.0
440,109.75,119.222,142.162,110.892,101.157,84.2377,0.0103945,1.51094,19.2456,149.601,1.66086,0.0,0.0
451,112.5,118.377,140.44,112.971,101.153,84.3933,0.0106223,1.48324,19.2595,149.03,1.64379,0.0,0.0
462,115.25,116.895,138.817,114.754,101.149,93.6295,0.0114511,1.43761,19.2912,148.38,0.701025,0.0,0.0
473,118,114.591,134.734,124.598,101.145,96.6701,0.0129587,1.37819,19.339,148.02,0.410578,0.0,0.0
484,120.75,110.74,128.527,131.785,101.12,102.536,0.0139303,1.3099,19.3898,147.859,-0.12619,0.0,0.0
495,123.5,106.592,121.959,131.714,101.1,102.194,0.0133551,1.15874,19.4662,147.709,-0.0976287,0.0,0.0
506,126.25,102.915,116.075,135.123,101.092,102.263,0.0111847,0.924534,19.6268,147.699,-0.104503,0.0,0.0
517,129,98.6349,110.416,134.467,101.077,102.365,0.00857121,0.6564,19.9361,147.659,-0.114905,0.0,0.0
528,131.75,95.0335,105.568,137.914,101.058,102.119,0.00625473,0.443701,20.2808,147.579,-0.0947829,0.0,0.0
539,134.5,92.0166,101.331,134.7,101.055,102.317,0.00454232,0.304916,20.5205,147.459,-0.112594,0.0,0.0
550,137.25,88.9397,98.1478,135.528,101.048,102.174,0.00356023,0.226513,20.6831,147.459,-0.100502,0.0,0.0
561,140,85.0102,92.3458,135.201,101.049,102.924,0.00322002,0.185649,20.7622,147.409,-0.166851,0.0,0.0
572,142.75,82.6876,89.8042,139.859,101.068,102.128,0.00321115,0.162818,20.8015,147.399,-0.0947233,0.0,0.0
583,145.5,80.4437,87.0898,134.784,101.046,101.719,0.0032168,0.149684,20.8237,147.329,-0.0602433,0.0,0.0
594,148.25,78.4385,84.8956,139.034,101.04,102.455,0.00333779,0.142071,20.8351,147.279,-0.126128,0.0,0.0
605,151,76.3579,82.1708,139.366,101.056,102.754,0.0035083,0.137077,20.8429,147.219,-0.151168,0.0,0.0
616,153.75,74.545,80.7452,134.713,101.057,101.741,0.00358146,0.133303,20.8488,147.189,-0.0612147,0.0,0.0
627,156.5,73.3037,78.4604,135.458,101.07,102.224,0.00372816,0.130927,20.8528,147.209,-0.103044,0.0,0.0
638,159.25,71.8326,76.751,135.088,101.076,102.548,0.00395841,0.129241,20.8561,147.099,-0.131152,0.0,0.0
649,162,70.6684,75.3119,138.204,101.071,102.222,0.00400941,0.127747,20.858,147.059,-0.102833,0.0,0.0
660,164.75,69.532,73.6939,139.675,101.096,102.519,0.00397965,0.126775,20.8592,146.999,-0.126871,0.0,0.0
671,167.5,68.6119,72.6425,139.056,101.094,102.064,0.00405452,0.125935,20.8608,147.049,-0.0866255,0.0,0.0
682,170.25,67.639,71.1585,137.118,101.1,102.213,0.00418597,0.124942,20.8625,147.009,-0.0992838,0.0,0.0
693,173,66.2114,70.1036,137.466,101.078,102.33,0.00423314,0.124488,20.8641,146.909,-0.111706,0.0,0.0
704,175.75,65.2917,69.4068,136.806,101.078,102.249,0.00438053,0.124135,20.8646,146.869,-0.104524,0.0,0.0
715,178.5,64.7044,68.067,134.376,101.07,102.395,0.00448042,0.123602,20.8648,146.859,-0.118145,0.0,0.0
726,181.25,64.187,67.5149,137.566,101.073,102.207,0.0045519,0.123792,20.866,146.839,-0.101219,0.0,0.0
737,184,63.4734,66.9153,137.345,101.019,102.403,0.00469719,0.123747,20.8662,146.668,-0.123517,0.0,0.0
748,186.75,62.7797,66.5562,137.241,100.972,102.18,0.00490153,0.123684,20.8663,146.668,-0.107935,0.0,0.0
759,189.5,61.7701,65.31,141.98,100.932,102.275,0.00501804,0.123112,20.8663,146.658,-0.120022,0.0,0.0
770,192.25,62.0318,64.292,137.215,100.881,101.668,0.00498046,0.122934,20.8679,146.658,-0.0705315,0.0,0.0
781,195,60.8992,64.1287,136.318,100.811,101.946,0.0049961,0.123113,20.8688,146.628,-0.101567,0.0,0.0
792,197.75,60.4032,63.6438,133.939,100.744,102.053,0.00525578,0.123483,20.869,146.588,-0.117156,0.0,0.0
803,200.5,59.7499,63.5978,136.06,100.74,101.75,0.00534435,0.123206,20.869,146.448,-0.0905279,0.0,0.0
814,203.25,59.6084,61.9404,138.089,100.784,102.06,0.00521523,0.123177,20.8692,146.468,-0.114122,0.0,0.0
825,206,58.9619,62.1931,136.789,100.829,101.956,0.0051457,0.123728,20.8682,146.478,-0.100828,0.0,0.0
836,208.75,59.1272,61.5321,134.448,100.871,101.915,0.00516949,0.124468,20.8664,146.428,-0.0934079,0.0,0.0
847,211.5,58.6361,61.3671,137.321,100.907,101.936,0.00518878,0.124879,20.8652,146.378,-0.0920145,0.0,0.0
858,214.25,58.5471,61.2045,140.468,100.957,102.243,0.00527379,0.125707,20.8642,146.338,-0.11487,0.0,0.0
869,217,57.9774,60.5001,139.017,101.023,102.403,0.00553814,0.126599,20.8654,146.278,-0.123106,0.0,0.0
880,219.75,57.7218,60.4365,138.997,101.103,102.038,0.00564873,0.125982,20.8658,146.338,-0.0835058,0.0,0.0
891,222.5,56.832,59.7691,139.766,101.168,101.977,0.00547884,0.125441,20.8668,146.248,-0.0722553,0.0,0.0
902,225.25,57.3278,59.9488,135.996,101.219,102.534,0.00540718,0.125175,20.8684,146.178,-0.117102,0.0,0.0
913,228,56.7174,59.6209,137.092,101.288,102.517,0.00525591,0.125765,20.8689,146.168,-0.109428,0.0,0.0
924,230.75,56.6011,59.179,138.501,101.33,102.516,0.00523734,0.126355,20.8685,146.108,-0.105577,0.0,0.0
935,233.5,56.4062,59.0168,137.163,101.395,101.932,0.00544463,0.126849,20.8674,146.088,-0.0479639,0.0,0.0
946,236.25,55.9422,58.6376,139.81,101.419,102.095,0.00567332,0.12611,20.867,145.998,-0.0602901,0.0,0.0
957,239,55.7985,58.4393,138.824,101.446,102.467,0.00583559,0.125291,20.8678,145.958,-0.0909163,0.0,0.0
968,241.75,55.3237,58.0673,137.191,101.473,102.335,0.00589125,0.124798,20.8684,145.928,-0.0767641,0.0,0.0
979,244.5,55.5983,58.1941,139.091,101.523,102.264,0.00594918,0.124403,20.8688,145.928,-0.0659948,0.0,0.0
990,247.25,55.3149,57.1922,137.711,101.545,102.287,0.00606865,0.123451,20.8697,145.898,-0.0660318,0.0,0.0
1001,250,54.5635,57.0958,139.026,101.56,102.486,0.00613512,0.122331,20.87,145.788,-0.0824163,0.0,0.0
1012,252.75,54.4182,57.3833,140.745,101.563,102.435,0.0060235,0.121903,20.8715,145.738,-0.0775239,0.0,0.0
1023,255.5,54.9931,57.3949,132.502,101.596,102.93,0.00589782,0.12179,20.8717,145.708,-0.118435,0.0,0.0
1030,257.25,54.6325,57.2549,138.511,101.621,102.339,0.00588863,0.121993,20.8709,145.758,-0.0638969,0.0,0.0