Folder: fsri_materials_database/01_Data/Plywood/STA/N2/10K_min

Note: README.md
# Materials and Products Database
### Repository of materials and products properties and fire test data to improve fire modeling and fire investigation.

This project was supported in part by Award No. 2019-DU-BX-0018, awarded by the National Institute of Justice, Office of Justice Programs, U.S. Department of Justice. The opinions, findings, and conclusions or recommendations expressed in this publication / program / exhibition are those of the author(s) and do not necessarily reflect those of the Department of Justice.

***
***

__Cite this database:__ "McKinnon, M., Weinschenk, C., Dow, N., DiDomizio, M., and Madrzykowski, D. Materials and Products Database (Version 1.0.0), Fire Safety Research Institute, UL Research Institutes. Columbia, MD 21045, 2023."

__Cite the Technical Reference Guide:__ "McKinnon, M., Weinschenk, C., and Madrzykowski, D. Materials and Products Database - Technical Reference Guide, Fire Safety Research Institute, UL Research Institutes. Columbia, MD 21045, 2023."

__Cite the User Guide:__ "McKinnon, M., and Weinschenk, C. Materials and Products Database - User Guide, Fire Safety Research Institute, UL Research Institutes. Columbia, MD 21045, 2023."

***
***

## Database Structure

## 01_Data/
Raw data generated from each apparatus are included here in plain-text format. The data is organized first by material, next by the short name of test apparatus used, and where applicable additional filtering by test settings.

### Test Apparatus and Data File Structure
- __Cone Calorimeter__ (Cone)
    + Data file structure includes the material, the short name for the apparatus, heat flux setting and scan/scalar, date of test, and replicate number. Scan is for the raw output data and scalar is for the initial conditions and high-level test parameters. 
        * Example: __MDF_Cone_HF25scalar_210323_R1__ stands for the first replicate of scalar data generated from a medium density fiber board test in cone calorimeter exposed to 25 kW/m<sup>2</sup> on March 23, 2021.
    + A _Cone_Notes.csv_ is generated for each material from the __plot_Cone_data.py__ script. For materials whose experiments deviated from typical behavior relevant pictures are included in the respective material directory.
- __Fourier Transform Infrared Spectrometer__ (FTIR)
    + The FTIR directory contains subdirectories for the Attenuated Total Reflectance method (ATR) and the Integrating Sphere (IS)
    + Data file structure for the ATR experiment files includes the material, the abbreviated name for the apparatus, date of test, and replicate number. 
        * Example: __MDF_ATR_210323_R5__ stands for the fifth replicate of data collected with the ATR accessory conducted on June 8, 2021.
    + Data file structure for the IS experiment files includes the material, the abbreviated name for the apparatus, the measurand, whether the test is a sample measurement or standard reference, date of test, and replicate number.
        * Example: __OSB_IS_REFLECT_MEAS_2

File: Plywood_STA_N2_10KData_22243_R1.csv
##Temp./Â°C,Time/min,Mass loss(subtr.)/mg,DSC(subtr.2)/(mW/mg)
49.94,10.00917,0.00439,0.000695778
52.64,11.22006,0.00495191,0.09861571
55.34,11.62452,0.004235716,0.15573
58.04,11.96431,0.00335512,0.18924
60.74,12.27888,0.002516222,0.21066
63.44,12.58183,0.001006649,0.22985
66.14,12.87825,0.001674321,0.24364
68.84,13.16937,0.001078793,0.25559
71.54,13.45795,0.001100285,0.27104
74.24,13.74327,-0.000225476,0.28184
76.94,14.02564,0.000135319,0.29497
79.64,14.30552,-0.001539253,0.30089
82.34,14.58393,-0.002861031,0.31122
85.04,14.85933,-0.003851621,0.31618
87.74,15.13358,-0.004276453,0.32006
90.44,15.40535,-0.00540041,0.32168
93.14,15.6747,-0.005483254,0.31849
95.84,15.94477,-0.006841653,0.31498
98.54,16.21153,-0.008779859,0.30965
101.24,16.47776,-0.008115165,0.30607
103.94,16.74316,-0.01079983,0.29715
106.64,17.00793,-0.01076329,0.29234
109.34,17.27295,-0.0117401,0.28741
112.04,17.53712,-0.01173929,0.28358
114.74,17.80088,-0.01174005,0.28418
117.44,18.06555,-0.01141,0.28087
120.14,18.32892,-0.01009,0.28208
122.84,18.59289,-0.01163979,0.28025
125.54,18.8556,-0.01082549,0.28164
128.24,19.11846,-0.01009352,0.28577
130.94,19.38036,-0.01043,0.29004
133.64,19.64223,-0.01041585,0.29033
136.34,19.90326,-0.0104196,0.29519
139.04,20.16451,-0.01172338,0.29908
141.74,20.42514,-0.01108,0.29969
144.44,20.68637,-0.01122947,0.30724
147.14,20.94691,-0.01239085,0.30834
149.84,21.20717,-0.01372237,0.31507
152.54,21.46714,-0.01499164,0.31604
155.24,21.72716,-0.01699501,0.32049
157.94,21.986,-0.01701019,0.32431
160.64,22.24578,-0.01700733,0.32796
163.34,22.5048,-0.01799,0.33178
166.04,22.76344,-0.01940599,0.33854
168.74,23.02185,-0.01959912,0.34161
171.44,23.28048,-0.01833001,0.34749
174.14,23.53891,-0.01963933,0.34663
176.84,23.79737,-0.01963999,0.35353
179.54,24.05617,-0.01937754,0.35441
182.24,24.31429,-0.02063011,0.35693
184.94,24.57254,-0.02295286,0.3638
187.64,24.83061,-0.02600983,0.36431
190.34,25.08742,-0.02655,0.36909
193.04,25.34438,-0.02852971,0.37257
195.74,25.60155,-0.0311275,0.37174
198.44,25.85877,-0.03377786,0.37326
201.14,26.11662,-0.03656926,0.36888
203.84,26.37517,-0.04175138,0.36749
206.54,26.63369,-0.04573326,0.36576
209.24,26.89206,-0.05249451,0.3667
211.94,27.14971,-0.05650197,0.37019
214.64,27.40783,-0.06297702,0.37196
217.34,27.66549,-0.06966543,0.37282
220.04,27.92389,-0.07620265,0.37529
222.74,28.18197,-0.08144576,0.37805
225.44,28.43949,-0.09018386,0.38066
228.14,28.69687,-0.09742508,0.38159
230.84,28.95427,-0.10711,0.38404
233.54,29.21167,-0.11408,0.38546
236.24,29.46892,-0.1245,0.38594
238.94,29.72646,-0.13488,0.39086
241.64,29.98413,-0.14576,0.38982
244.34,30.24132,-0.1563,0.39081
247.04,30.49898,-0.16814,0.39313
249.74,30.75661,-0.17991,0.39125
252.44,31.01423,-0.19326,0.39259
255.14,31.27165,-0.2076,0.39157
257.84,31.52981,-0.22244,0.39047
260.54,31.78823,-0.23545,0.39072
263.24,32.04709,-0.25222,0.38999
265.94,32.30507,-0.27057,0.39121
268.64,32.56288,-0.29015,0.39248
271.34,32.81995,-0.31271,0.3908
274.04,33.07811,-0.33772,0.3948
276.74,33.33582,-0.36301,0.39248
279.44,33.59323,-0.38963,0.39013
282.14,33.85105,-0.42175,0.38854
284.84,34.10903,-0.45573,0.38598
287.54,34.36777,-0.49197,0.388
290.24,34.62618,-0.53101,0.3874
292.94,34.88566,-0.57353,0.38792
295.64,35.14491,-0.61613,0.39184
298.34,35.40363,-0.66672,0.39614
301.04,35.66309,-0.71601,0.4034
303.74,35.92142,-0.76921,0.40961
306.44,36.18025,-0.82784,0.41254
309.14,36.43907,-0.88735,0.41788
311.84,36.69746,-0.95037,0.42074
314.54,36.95672,-1.0153,0.42404
317.24,37.21666,-1.08461,0.42557
319.94,37.47645,-1.15706,0.42548
322.64,37.73626,-1.23182,0.42701
325.34,37.99595,-1.30947,0.42655
328.04,38.25602,-1.38885,0.42347
330.74,38.51678,-1.47432,0.42007
333.44,38.77752,-1.5589,0.41147
336.14,39.03776,-1.64655,0.40507
338.84,39.2985,-1.73434,0.39437
341.54,39.55901,-1.82273,0.37826
344.24,39.81972,-1.90964,0.36146
346.94,40.07958,-1.9942,0.33813
349.64,40.33944,-2.07634,0.31367
352.34,40.59869,-2.15073,0.28319
355.04,40.85805,-2.22179,0.25352
357.74,41.11778,-2.28546,0.21896
360.44,41.37814,-2.34058,0.18549
363.14,41.63909,-2.39159,0.15545
365.84,41.90048,-2.43394,0.12797
368.54,42.16262,-2.46733,0.09779569
371.24,42.42455,-2.49598,0.0757998
373.94,42.68711,-2.51991,0.05543529
376.64,42.9502,-2.54082,0.03620884
379.34,43.21256,-2.55658,0.02279185
382.04,43.47432,-2.57071,0.01434253
384.74,43.73715,-2.58269,0.00396156
387.44,43.99976,-2.59495,-0.003422797
390.14,44.26222,-2.60673,-0.01384734
392.84,44.52448,-2.61684,-0.02120003
395.54,44.78628,-2.62757,-0.02866253
398.24,45.04859,-2.63782,-0.03296706
400.94,45.31119,-2.64934,-0.03641564
403.64,45.57419,-2.66056,-0.04499849
406.34,45.83799,-2.67066,-0.04715538
409.04,46.10159,-2.67949,-0.05137784
411.74,46.36543,-2.69153,-0.05122212
414.44,46.62938,-2.7007,-0.05045585
417.14,46.8941,-2.71174,-0.05215466
419.84,47.15869,-2.71985,-0.05531127
422.54,47.42362,-2.72815,-0.04676695
425.24,47.689,-2.73666,-0.04232265
427.94,47.95412,-2.74634,-0.03846587
430.64,48.21983,-2.75363,-0.03376304
433.34,48.48551,-2.76061,-0.02743573
436.04,48.75108,-2.7703,-0.0206208
438.74,49.01596,-2.77729,-0.01631299
441.44,49.28132,-2.78393,-0.01143339
444.14,49.54601,-2.79106,-0.00499934
446.84,49.81044,-2.79833,0.001844765
449.54,50.07583,-2.80575,0.00635997
452.24,50.3419,-2.81232,0.01119631
454.94,50.60761,-2.81715,0.0157875
457.64,50.87391,-2.82426,0.01835294
460.34,51.14028,-2.82995,0.02232964
463.04,51.40627,-2.8375,0.02486603
465.74,51.67209,-2.84101,0.02846068
468.44,51.9372,-2.84485,0.02813611
471.14,52.2031,-2.84947,0.0305696
473.84,52.46909,-2.85469,0.03058824
476.54,52.73576,-2.86128,0.02913824
479.24,53.00298,-2.86335,0.03270928
481.94,53.26996,-2.86862,0.03156305
484.64,53.53735,-2.87335,0.03233485
487.34,53.805,-2.87729,0.03241239
490.04,54.07312,-2.88246,0.03147589
492.74,54.3401,-2.88585,0.03238697
495.44,54.60856,-2.88981,0.03206212
498.14,54.8764,-2.89642,0.03100432
500.84,55.14358,-2.899,0.03139127
503.54,55.41114,-2.90197,0.03076044
506.24,55.67845,-2.90601,0.02907221
508.94,55.94559,-2.91002,0.03357914
511.64,56.21336,-2.91337,0.02989831
514.34,56.48126,-2.91456,0.02739077
517.04,56.74983,-2.9205,0.02862686
519.74,57.01905,-2.92215,0.027347
522.44,57.28779,-2.92645,0.0329763
525.14,57.55614,-2.9284,0.04139138
527.84,57.8242,-2.93335,0.05359279
530.54,58.09234,-2.93729,0.06500562
533.24,58.36104,-2.93907,0.06729948
535.94,58.62944,-2.94288,0.0726969
538.64,58.89767,-2.94702,0.07778479
541.34,59.16596,-2.95078,0.08495275
544.04,59.43464,-2.95239,0.09029292
546.74,59.70345,-2.95605,0.09342804
549.44,59.97235,-2.95769,0.09772825
552.14,60.2412,-2.96069,0.10037
554.84,60.511,-2.96326,0.10311
557.54,60.7803,-2.96361,0.09890332
560.24,61.05039,-2.96493,0.08485303
562.94,61.32081,-2.96824,0.08013475
565.64,61.59119,-2.97149,0.076552
568.34,61.86173,-2.9743,0.07885881
571.04,62.13193,-2.97644,0.0791989
573.74,62.40253,-2.97875,0.07751652
576.44,62.67211,-2.98143,0.07773008
579.14,62.94317,-2.9827,0.07741299
581.84,63.21454,-2.98532,0.07537273
584.54,63.48523,-2.98888,0.07080262
587.24,63.75654,-2.98997,0.0687095
589.94,64.02749,-2.98863,0.06713917
592.64,64.29854,-2.99257,0.0638096
595.34,64.56928,-2.9952,0.06436223
598.04,64.84013,-2.99652,0.06169062
600.74,65.11185,-2.99775,0.06235146
603.44,65.38303,-2.99915,0.06310611
606.14,65.65451,-3.00163,0.06350544
608.84,65.92542,-3.00199,0.06081444
611.54,66.19758,-3.00474,0.06490198
614.24,66.46926,-3.00573,0.06531029
616.94,66.74083,-3.00739,0.06974858
619.64,67.01194,-3.00996,0.06732348
622.34,67.28436,-3.0095,0.06981192
625.04,67.55642,-3.01263,0.07662894
627.74,67.82913,-3.01626,0.07699715
630.44,68.10088,-3.01706,0.08111274
633.14,68.37224,-3.01986,0.08163095
635.84,68.64405,-3.01862,0.08267293
638.54,68.91619,-3.0199,0.08507899
641.24,69.18839,-3.02383,0.08505467
643.94,69.45957,-3.02448,0.08721099
646.64,69.73084,-3.02515,0.09058662
649.34,70.00257,-3.02515,0.09007324
652.04,70.27405,-3.02778,0.08757624
654.74,70.54596,-3.02791,0.08354045
657.44,70.81828,-3.03042,0.08946151
660.14,71.09114,-3.03043,0.08566622
662.84,71.36402,-3.03306,0.08511856
665.54,71.63707,-3.03371,0.08757441
668.24,71.90883,-3.03502,0.08892614
670.94,72.18157,-3.03568,0.0873267
673.64,72.45368,-3.03672,0.0847532
676.34,72.72729,-3.03719,0.08884302
679.04,73.00011,-3.03962,0.09012254
681.74,73.27223,-3.04104,0.0846902
684.44,73.54518,-3.04324,0.08477623
687.14,73.81756,-3.04383,0.0821012
689.84,74.08957,-3.04489,0.0812181
692.54,74.36274,-3.04753,0.08002797
695.24,74.63536,-3.04719,0.08457976
697.94,74.90864,-3.04719,0.08286602
700.64,75.18235,-3.04982,0.08217713
703.34,75.45571,-3.04994,0.07831864
706.04,75.72918,-3.05114,0.07601574
708.74,76.00289,-3.05247,0.07499427
711.44,76.2759,-3.05241,0.08050348
714.14,76.54825,-3.0541,0.0726934
716.84,76.82064,-3.05678,0.07628515
719.54,77.09316,-3.05707,0.07504548
722.24,77.36658,-3.05706,0.07068123
724.94,77.64064,-3.06039,0.07194009
727.64,77.91456,-3.06035,0.06963895
730.34,78.18891,-3.06099,0.06227812
733.04,78.46349,-3.06298,0.05853968
735.74,78.73707,-3.06219,0.05157634
738.44,79.01108,-3.06167,0.05187055
741.14,79.28606,-3.0643,0.04531258
743.84,79.56015,-3.06436,0.03984805
746.54,79.83351,-3.06496,0.03326775
749.24,80.10678,-3.06628,0.03047218
751.94,80.38186,-3.066,0.02608158
754.64,80.65624,-3.06694,0.02520007
757.34,80.93047,-3.06693,0.02099994
760.04,81.20591,-3.06957,0.01896284
762.74,81.48038,-3.06826,0.01129559
765.44,81.75502,-3.06914,0.009224559
768.14,82.02877,-3.07086,0.004946229
770.84,82.30298,-3.07121,0.00027469
773.54,82.57673,-3.07353,-0.004479608
776.24,82.85212,-3.07456,-0.006444457
778.94,83.12631,-3.0745,-0.01102415
781.64,83.40058,-3.07517,-0.02066854
784.34,83.67428,-3.0765,-0.02308851
787.04,83.94883,-3.07584,-0.0259233
789.74,84.22329,-3.07814,-0.03074527
792.44,84.49747,-3.07714,-0.03958595
795.14,84.77196,-3.07714,-0.03629023
797.34,84.99571,-3.07846,-0.04063048

File: Plywood_STA_N2_10KData_22243_R2.csv
##Temp./Â°C,Time/min,Mass loss(subtr.)/mg,DSC(subtr.2)/(mW/mg)
49.866,10.01,-0.06833,0.03956125
52.566,11.22699,-0.07342673,0.13874
55.266,11.63187,-0.07618084,0.18909
57.966,11.97235,-0.07532192,0.21949
60.666,12.2869,-0.07688747,0.23996
63.366,12.58986,-0.07974748,0.25519
66.066,12.8865,-0.08150014,0.274
68.766,13.17915,-0.08412105,0.28358
71.466,13.46728,-0.08410967,0.29838
74.166,13.75286,-0.08605489,0.3097
76.866,14.03552,-0.08961628,0.31992
79.566,14.31596,-0.08952547,0.33073
82.266,14.59295,-0.09355637,0.33902
84.966,14.8686,-0.09488156,0.3371
87.666,15.14324,-0.09870175,0.34473
90.366,15.41588,-0.10013,0.34319
93.066,15.68583,-0.10277,0.33883
95.766,15.95467,-0.10607,0.33607
98.466,16.22229,-0.10738,0.32675
101.166,16.48863,-0.10869,0.32114
103.866,16.75434,-0.11142,0.31519
106.566,17.01877,-0.11133,0.30833
109.266,17.28389,-0.11264,0.30281
111.966,17.54833,-0.11464,0.29683
114.666,17.81237,-0.11495,0.29507
117.366,18.07609,-0.11527,0.29254
120.066,18.33974,-0.11396,0.29034
122.766,18.60329,-0.11528,0.29107
125.466,18.86651,-0.11528,0.29129
128.166,19.12929,-0.11659,0.2926
130.866,19.39151,-0.11659,0.29751
133.566,19.65357,-0.11627,0.29735
136.266,19.91513,-0.11659,0.30008
138.966,20.17609,-0.11654,0.30155
141.666,20.43658,-0.11791,0.30258
144.366,20.69702,-0.11921,0.3061
147.066,20.95744,-0.11791,0.3055
149.766,21.21841,-0.11791,0.30952
152.466,21.47905,-0.12028,0.31191
155.166,21.7389,-0.12208,0.31726
157.866,21.99815,-0.12171,0.32282
160.566,22.25781,-0.12439,0.32453
163.266,22.51716,-0.12483,0.33053
165.966,22.77596,-0.12573,0.33483
168.666,23.03507,-0.12705,0.34008
171.366,23.29376,-0.12798,0.34338
174.066,23.5517,-0.12734,0.3431
176.766,23.81056,-0.13002,0.34547
179.466,24.06868,-0.13394,0.34993
182.166,24.32692,-0.13458,0.35235
184.866,24.5851,-0.13731,0.35605
187.566,24.84379,-0.13986,0.35971
190.266,25.10281,-0.14215,0.35673
192.966,25.36106,-0.14446,0.36122
195.666,25.61985,-0.14796,0.36093
198.366,25.87736,-0.14961,0.35945
201.066,26.13452,-0.15356,0.36109
203.766,26.39219,-0.1576,0.36019
206.466,26.64976,-0.16209,0.35954
209.166,26.9081,-0.16722,0.36226
211.866,27.16601,-0.1713,0.36215
214.566,27.42429,-0.17652,0.36191
217.266,27.68185,-0.18349,0.36308
219.966,27.93999,-0.18811,0.36521
222.666,28.19764,-0.1973,0.36775
225.366,28.45523,-0.20389,0.36866
228.066,28.71239,-0.21016,0.36969
230.766,28.96995,-0.22025,0.37064
233.466,29.22711,-0.22995,0.37203
236.166,29.48471,-0.23806,0.37218
238.866,29.74198,-0.24769,0.37419
241.566,29.99946,-0.25667,0.37384
244.266,30.25735,-0.26935,0.3763
246.966,30.51622,-0.28062,0.37574
249.666,30.77427,-0.29299,0.37682
252.366,31.0318,-0.30555,0.37848
255.066,31.28997,-0.31852,0.37553
257.766,31.54834,-0.3341,0.3787
260.466,31.80621,-0.3504,0.37908
263.166,32.06399,-0.36818,0.37909
265.866,32.32181,-0.38652,0.37861
268.566,32.57979,-0.40736,0.3798
271.266,32.83708,-0.42809,0.37684
273.966,33.09386,-0.45136,0.37656
276.666,33.35203,-0.47789,0.37347
279.366,33.6095,-0.50535,0.37338
282.066,33.86811,-0.53736,0.37067
284.766,34.12662,-0.57254,0.36732
287.466,34.38564,-0.60914,0.3661
290.166,34.64436,-0.64822,0.36642
292.866,34.90291,-0.69023,0.37121
295.566,35.1618,-0.73526,0.37316
298.266,35.42063,-0.78393,0.37699
300.966,35.67937,-0.83406,0.37832
303.666,35.93835,-0.88915,0.38362
306.366,36.19733,-0.94413,0.388
309.066,36.45638,-1.00447,0.39097
311.766,36.71515,-1.06759,0.39222
314.466,36.9744,-1.13404,0.39299
317.166,37.23409,-1.20351,0.39282
319.866,37.49391,-1.2751,0.3937
322.566,37.75353,-1.34819,0.3903
325.266,38.01359,-1.427,0.38731
327.966,38.27338,-1.5089,0.38566
330.666,38.53306,-1.5901,0.37994
333.366,38.79404,-1.67669,0.37364
336.066,39.05444,-1.76596,0.36473
338.766,39.3152,-1.85306,0.35827
341.466,39.57619,-1.94139,0.3407
344.166,39.83804,-2.02885,0.32145
346.866,40.09964,-2.11499,0.30242
349.566,40.36116,-2.19593,0.27513
352.266,40.62233,-2.27306,0.24915
354.966,40.8836,-2.34626,0.21746
357.666,41.14481,-2.41167,0.1858
360.366,41.40499,-2.47006,0.15464
363.066,41.66609,-2.52005,0.12568
365.766,41.92661,-2.56314,0.09546134
368.466,42.18756,-2.59861,0.06873191
371.166,42.45028,-2.62988,0.04463718
373.866,42.71222,-2.65181,0.0232135
376.566,42.97503,-2.67265,0.00423234
379.266,43.23718,-2.68749,-0.009484372
381.966,43.49895,-2.70363,-0.01848691
384.666,43.76101,-2.71119,-0.03091062
387.366,44.02307,-2.72922,-0.03971783
390.066,44.2862,-2.73884,-0.05174913
392.766,44.54842,-2.7469,-0.05710002
395.466,44.81046,-2.75377,-0.06601976
398.166,45.07287,-2.76815,-0.07473865
400.866,45.33598,-2.77975,-0.08232007
403.566,45.59846,-2.78954,-0.0884687
406.266,45.86187,-2.79985,-0.09062861
408.966,46.12524,-2.80964,-0.09336992
411.666,46.38827,-2.82018,-0.09751806
414.366,46.65227,-2.83031,-0.09842009
417.066,46.91627,-2.83958,-0.09345061
419.766,47.18004,-2.84899,-0.09446732
422.466,47.44438,-2.85782,-0.09348331
425.166,47.70891,-2.8672,-0.09082329
427.866,47.97276,-2.87664,-0.08281165
430.566,48.23713,-2.88357,-0.07853438
433.266,48.50071,-2.89123,-0.07411405
435.966,48.76475,-2.89899,-0.06799965
438.666,49.02888,-2.90682,-0.06080446
441.366,49.29304,-2.91372,-0.05649183
444.066,49.55741,-2.92008,-0.05099125
446.766,49.82164,-2.92662,-0.04530026
449.466,50.08632,-2.93312,-0.04187782
452.166,50.3521,-2.93869,-0.0387758
454.866,50.61814,-2.94475,-0.03599032
457.566,50.88367,-2.95133,-0.03057958
460.266,51.14996,-2.95593,-0.02802986
462.966,51.41561,-2.96172,-0.02738266
465.666,51.68234,-2.96782,-0.0243737
468.366,51.94927,-2.97081,-0.0259629
471.066,52.21603,-2.97739,-0.01731188
473.766,52.48343,-2.98138,-0.02209888
476.466,52.75085,-2.98665,-0.01833259
479.166,53.0181,-2.99183,-0.01761142
481.866,53.28527,-2.99463,-0.02029147
484.566,53.55319,-2.9972,-0.02117112
487.266,53.82094,-3.00255,-0.01967063
489.966,54.08848,-3.00549,-0.01916527
492.666,54.35582,-3.00945,-0.01981845
495.366,54.62329,-3.01175,-0.01924622
498.066,54.8908,-3.01571,-0.0222024
500.766,55.15835,-3.01989,-0.02156036
503.466,55.42554,-3.02242,-0.02331638
506.166,55.69285,-3.02609,-0.02498421
508.866,55.96127,-3.02984,-0.02647594
511.566,56.22953,-3.03246,-0.02696071
514.266,56.49763,-3.03179,-0.03016032
516.966,56.76589,-3.0362,-0.03122561
519.666,57.03418,-3.04016,-0.02836762
522.366,57.30241,-3.04636,-0.02455734
525.066,57.57107,-3.04886,-0.01784625
527.766,57.83969,-3.05014,-0.007111594
530.466,58.10857,-3.05377,0.001909617
533.166,58.37732,-3.05646,0.003502494
535.866,58.64603,-3.05728,0.007546495
538.566,58.91476,-3.062,0.01232359
541.266,59.18338,-3.06357,0.01318829
543.966,59.4522,-3.06811,0.01962094
546.666,59.72094,-3.06813,0.02262255
549.366,59.98962,-3.07077,0.02231784
552.066,60.25789,-3.0747,0.01080987
554.766,60.52665,-3.07838,0.001385311
557.466,60.79614,-3.07893,-0.001959034
560.166,61.06606,-3.08229,-0.006223214
562.866,61.33651,-3.08229,-0.008562567
565.566,61.6064,-3.08623,-0.01061752
568.266,61.87667,-3.08755,-0.01300153
570.966,62.14627,-3.09017,-0.01683561
573.666,62.41701,-3.09155,-0.02037188
576.366,62.68684,-3.09485,-0.02180977
579.066,62.95678,-3.09512,-0.02122645
581.766,63.22746,-3.09644,-0.02570614
584.466,63.49771,-3.09709,-0.0263572
587.166,63.76791,-3.09973,-0.02755762
589.866,64.03871,-3.10038,-0.03182631
592.566,64.30957,-3.10433,-0.03380112
595.266,64.58078,-3.10467,-0.03684306
597.966,64.85212,-3.1073,-0.03799074
600.666,65.12365,-3.1085,-0.03636611
603.366,65.39449,-3.1118,-0.03564145
606.066,65.66536,-3.11376,-0.03605195
608.766,65.93569,-3.11415,-0.03799186
611.466,66.2068,-3.11541,-0.03798629
614.166,66.47741,-3.11794,-0.04009563
616.866,66.74906,-3.11804,-0.03587844
619.566,67.02045,-3.12035,-0.03553644
622.266,67.29161,-3.12199,-0.04049133
624.966,67.56371,-3.122,-0.03995449
627.666,67.83589,-3.12265,-0.03887898
630.366,68.10761,-3.12562,-0.03686545
633.066,68.38007,-3.12934,-0.03448385
635.766,68.65197,-3.12826,-0.03902154
638.466,68.9235,-3.12991,-0.03186977
641.166,69.19596,-3.13056,-0.035216
643.866,69.46847,-3.13125,-0.03255911
646.566,69.74109,-3.13258,-0.03308005
649.266,70.01312,-3.1335,-0.03506322
651.966,70.28515,-3.13561,-0.03455228
654.666,70.55634,-3.13647,-0.03492155
657.366,70.82874,-3.13873,-0.03812825
660.066,71.10115,-3.13812,-0.036885
662.766,71.37338,-3.1391,-0.04078418
665.466,71.64663,-3.14108,-0.04241574
668.166,71.91875,-3.14207,-0.04299677
670.866,72.1914,-3.14503,-0.04019815
673.566,72.46418,-3.14568,-0.04134662
676.266,72.73625,-3.14635,-0.04475845
678.966,73.00864,-3.14766,-0.04565123
681.666,73.28179,-3.14911,-0.05164905
684.366,73.55479,-3.15166,-0.04780082
687.066,73.82794,-3.15153,-0.05229708
689.766,74.10039,-3.15413,-0.05391247
692.466,74.37202,-3.15512,-0.05419489
695.166,74.64495,-3.15696,-0.05562605
697.866,74.91804,-3.15699,-0.05446138
700.566,75.19066,-3.15961,-0.05417918
703.266,75.46497,-3.15962,-0.0593108
705.966,75.73958,-3.1584,-0.06118806
708.666,76.01408,-3.16017,-0.06187286
711.366,76.28877,-3.16192,-0.06443932
714.066,76.5634,-3.1629,-0.06976786
716.766,76.83706,-3.16356,-0.07308246
719.466,77.11075,-3.16554,-0.07416995
722.166,77.38455,-3.16587,-0.08049729
724.866,77.6584,-3.16817,-0.08545041
727.566,77.93177,-3.16817,-0.08590596
730.266,78.20486,-3.16883,-0.09063484
732.966,78.47842,-3.17146,-0.0956081
735.666,78.75203,-3.17173,-0.10038
738.366,79.0263,-3.17343,-0.1027
741.066,79.30119,-3.17475,-0.1062
743.766,79.57597,-3.17475,-0.10993
746.466,79.85026,-3.17442,-0.11342
749.166,80.12462,-3.17625,-0.11557
751.866,80.39909,-3.17837,-0.11778
754.566,80.67178,-3.17706,-0.1196
757.266,80.94631,-3.17838,-0.12112
759.966,81.2205,-3.17969,-0.12414
762.666,81.49455,-3.18231,-0.12563
765.366,81.76854,-3.18056,-0.13162
768.066,82.0431,-3.18287,-0.13062
770.766,82.31711,-3.18155,-0.13589
773.466,82.5916,-3.1832,-0.13784
776.166,82.86642,-3.1855,-0.13977
778.866,83.14101,-3.18572,-0.14229
781.566,83.4156,-3.18671,-0.14859
784.266,83.69081,-3.18934,-0.14886
786.966,83.96557,-3.18803,-0.15106
789.666,84.24021,-3.18956,-0.15448
792.366,84.51508,-3.18956,-0.15744
795.066,84.78977,-3.19088,-0.1549
797.066,84.99369,-3.18933,-0.1624