Folder: fsri_materials_database/01_Data/Plywood/STA/N2/10K_min (part 2)

File: Plywood_STA_N2_10KData_22253_R3.csv
##Temp./Â°C,Time/min,Mass loss(subtr.)/mg,DSC(subtr.2)/(mW/mg),Sensit./(uV/mW)
49.699,10.01,-0.02677,0.02365368,
52.499,11.25399,-0.03209255,0.12569,
55.299,11.66756,-0.0272989,0.1802,
58.099,12.01789,-0.03167249,0.21448,
60.899,12.34211,-0.03127348,0.23591,
63.699,12.65542,-0.03254735,0.25074,
66.499,12.9619,-0.03002372,0.26558,
69.299,13.26444,-0.03178102,0.28241,
72.099,13.56172,-0.03457699,0.29459,
74.899,13.85668,-0.03718663,0.30683,
77.699,14.14874,-0.0365311,0.32015,
80.499,14.43833,-0.03916302,0.32855,
83.299,14.72516,-0.04178506,0.33711,
86.099,15.00963,-0.04507798,0.33989,
88.899,15.2909,-0.04508976,0.34203,
91.699,15.57107,-0.04627962,0.3412,
94.499,15.84971,-0.05078706,0.33843,
97.299,16.12684,-0.05078542,0.33491,
100.099,16.40291,-0.05342,0.32666,
102.899,16.67874,-0.05472902,0.32211,
105.699,16.95345,-0.05452302,0.31415,
108.499,17.22697,-0.05473095,0.3089,
111.299,17.5009,-0.05606,0.30349,
114.099,17.77396,-0.05605043,0.29918,
116.899,18.04763,-0.05750458,0.29769,
119.699,18.3208,-0.05639,0.29739,
122.499,18.59423,-0.05473974,0.29544,
125.299,18.86662,-0.0573733,0.29662,
128.099,19.13929,-0.05579028,0.29603,
130.899,19.41158,-0.05607069,0.30107,
133.699,19.68224,-0.05725995,0.30448,
136.499,19.95167,-0.05815697,0.3064,
139.299,20.22141,-0.05682042,0.30825,
142.099,20.49162,-0.05682,0.31051,
144.899,20.76036,-0.05615998,0.31588,
147.699,21.0295,-0.05682259,0.31802,
150.499,21.29865,-0.05933633,0.32374,
153.299,21.56749,-0.06035797,0.32757,
156.099,21.83788,-0.05954575,0.32895,
158.899,22.10727,-0.05951188,0.33158,
161.699,22.37545,-0.06232244,0.33752,
164.499,22.64532,-0.06120998,0.34468,
167.299,22.91455,-0.06252993,0.34663,
170.099,23.18329,-0.06284098,0.3519,
172.899,23.45161,-0.06430345,0.35738,
175.699,23.72017,-0.06548,0.36312,
178.499,23.98758,-0.06564683,0.36832,
181.299,24.25556,-0.06710106,0.37252,
184.099,24.5224,-0.07286202,0.37457,
186.899,24.78859,-0.0709699,0.38054,
189.699,25.05604,-0.07492049,0.38663,
192.499,25.32299,-0.07756,0.38836,
195.299,25.59018,-0.08040994,0.39223,
198.099,25.85688,-0.08468565,0.39357,
200.899,26.12478,-0.08599396,0.39498,
203.699,26.39166,-0.08994999,0.39769,
206.499,26.65883,-0.09387098,0.39825,
209.299,26.92559,-0.09916316,0.39906,
212.099,27.19255,-0.10583,0.39479,
214.899,27.45951,-0.11134,0.39512,
217.699,27.72643,-0.11511,0.39794,
220.499,27.99418,-0.12337,0.39893,
223.299,28.26135,-0.12977,0.40193,
226.099,28.52783,-0.13696,0.40258,
228.899,28.79571,-0.14617,0.40717,
231.699,29.0631,-0.1571,0.40918,
234.499,29.32987,-0.16311,0.41015,
237.299,29.59676,-0.17277,0.41069,
240.099,29.86427,-0.1826,0.41434,
242.899,30.13215,-0.19852,0.41522,
245.699,30.39985,-0.21006,0.4143,
248.499,30.66783,-0.21983,0.41563,
251.299,30.93548,-0.23179,0.41277,
254.099,31.20284,-0.24822,0.41246,
256.899,31.47067,-0.25958,0.40884,
259.699,31.73741,-0.27812,0.41168,
262.499,32.00422,-0.29447,0.41086,
265.299,32.27109,-0.31426,0.41254,
268.099,32.53823,-0.33367,0.40977,
270.899,32.8053,-0.35371,0.40443,
273.699,33.07241,-0.37848,0.40196,
276.499,33.34074,-0.40689,0.40096,
279.299,33.60874,-0.43795,0.40018,
282.099,33.87725,-0.46598,0.39531,
284.899,34.1458,-0.50502,0.39363,
287.699,34.41438,-0.54331,0.39637,
290.499,34.68289,-0.58123,0.39547,
293.299,34.95216,-0.62423,0.39595,
296.099,35.22121,-0.6746,0.40164,
298.899,35.48957,-0.72288,0.40536,
301.699,35.75782,-0.77598,0.4093,
304.499,36.02653,-0.832,0.41419,
307.299,36.29461,-0.89053,0.41743,
310.099,36.5635,-0.9559,0.42301,
312.899,36.83173,-1.02045,0.42754,
315.699,37.10039,-1.08883,0.42886,
318.499,37.36967,-1.15997,0.42921,
321.299,37.63865,-1.23851,0.43044,
324.099,37.90802,-1.31572,0.43234,
326.899,38.17837,-1.399,0.43494,
329.699,38.44866,-1.48295,0.43787,
332.499,38.7194,-1.57108,0.44221,
335.299,38.98949,-1.66195,0.4432,
338.099,39.26013,-1.75305,0.44615,
340.899,39.53087,-1.84207,0.4399,
343.699,39.80189,-1.93347,0.42871,
346.499,40.07184,-2.0173,0.41315,
349.299,40.34263,-2.10227,0.38887,
352.099,40.61259,-2.1822,0.36348,
354.899,40.88206,-2.25332,0.32736,
357.699,41.15249,-2.31885,0.29376,
360.499,41.42295,-2.37667,0.25011,
363.299,41.69412,-2.4226,0.21585,
366.099,41.96508,-2.46552,0.18416,
368.899,42.23662,-2.49968,0.1584,
371.699,42.50817,-2.52491,0.14294,
374.499,42.77875,-2.54931,0.13126,
377.299,43.04894,-2.56532,0.12394,
380.099,43.31795,-2.5826,0.1211,
382.899,43.58682,-2.59278,0.10993,
385.699,43.85741,-2.60464,0.09801248,
388.499,44.12844,-2.61769,0.08220747,
391.299,44.39996,-2.62972,0.06708553,
394.099,44.67262,-2.63773,0.04686252,
396.899,44.94568,-2.6511,0.02938797,
399.699,45.21858,-2.66141,0.01462924,
402.499,45.49163,-2.67147,-0.001551083,
405.299,45.76495,-2.68304,-0.01033202,
408.099,46.03837,-2.69388,-0.02044332,
410.899,46.31226,-2.70394,-0.02755493,
413.699,46.58536,-2.71259,-0.02943858,
416.499,46.85934,-2.72369,-0.02725414,
419.299,47.13295,-2.73558,-0.02552232,
422.099,47.40676,-2.74326,-0.02396659,
424.899,47.68072,-2.75447,-0.02221316,
427.699,47.95513,-2.76126,-0.02628329,
430.499,48.23042,-2.77079,-0.02250597,
433.299,48.50514,-2.77968,-0.01640572,
436.099,48.78092,-2.79078,-0.01136503,
438.899,49.05695,-2.7926,-0.005906847,
441.699,49.33329,-2.80263,-0.001950343,
444.499,49.60919,-2.8106,0.004290155,
447.299,49.88415,-2.81697,0.008156933,
450.099,50.1592,-2.82298,0.01253811,
452.899,50.43446,-2.83069,0.01941655,
455.699,50.70943,-2.83556,0.02551022,
458.499,50.98462,-2.84272,0.02834864,
461.299,51.26055,-2.84998,0.02952296,
464.099,51.53629,-2.85391,0.02789566,
466.899,51.81288,-2.85916,0.03214587,
469.699,52.08981,-2.86325,0.03486952,
472.499,52.36696,-2.86857,0.03834142,
475.299,52.64386,-2.87462,0.04016952,
478.099,52.92073,-2.87981,0.03830476,
480.899,53.19765,-2.88507,0.0407257,
483.699,53.4748,-2.88986,0.04046595,
486.499,53.75162,-2.89255,0.04424012,
489.299,54.02764,-2.89709,0.04477122,
492.099,54.30522,-2.9011,0.04282155,
494.899,54.58191,-2.90372,0.04400692,
497.699,54.85932,-2.91195,0.04524461,
500.499,55.13674,-2.91188,0.0444211,
503.299,55.41415,-2.91743,0.0481076,
506.099,55.69144,-2.92139,0.04689209,
508.899,55.96834,-2.92401,0.0641101,
511.699,56.24527,-2.92671,0.07733467,
514.499,56.52286,-2.93202,0.09161296,
517.299,56.80094,-2.93432,0.09659,
520.099,57.07886,-2.93823,0.10463,
522.899,57.35679,-2.94089,0.11084,
525.699,57.63536,-2.94435,0.11339,
528.499,57.91412,-2.95012,0.12174,
531.299,58.19429,-2.95145,0.12498,
534.099,58.47352,-2.95606,0.12214,
536.899,58.75318,-2.95736,0.11865,
539.699,59.03291,-2.96065,0.09265457,
542.499,59.31254,-2.9646,0.07337512,
545.299,59.59212,-2.96676,0.06911445,
548.099,59.87136,-2.97026,0.06313703,
550.899,60.1507,-2.96987,0.066985,
553.699,60.43051,-2.97381,0.06513638,
556.499,60.71057,-2.97643,0.06644265,
559.299,60.99073,-2.97908,0.06629028,
562.099,61.27064,-2.98138,0.06592814,
564.899,61.55036,-2.98272,0.06113633,
567.699,61.83105,-2.98533,0.06357695,
570.499,62.11164,-2.98866,0.06157379,
573.299,62.39226,-2.98994,0.05956895,
576.099,62.67326,-2.99252,0.05903012,
578.899,62.95381,-2.99626,0.06034462,
581.699,63.23477,-2.99799,0.0611096,
584.499,63.51574,-3.00022,0.06548998,
587.299,63.79628,-3.00276,0.06882741,
590.099,64.07717,-3.00409,0.07055571,
592.899,64.35772,-3.00686,0.0806192,
595.699,64.63859,-3.00773,0.08443944,
598.499,64.91947,-3.00931,0.09891615,
601.299,65.19972,-3.01231,0.10736,
604.099,65.48085,-3.01296,0.11869,
606.899,65.76239,-3.01513,0.12274,
609.699,66.04338,-3.01759,0.12465,
612.499,66.32488,-3.01888,0.12149,
615.299,66.60546,-3.01884,0.12117,
618.099,66.88662,-3.02197,0.12458,
620.899,67.16829,-3.02361,0.1248,
623.699,67.45033,-3.02459,0.12561,
626.499,67.73254,-3.02592,0.13295,
629.299,68.01402,-3.02861,0.13129,
632.099,68.29605,-3.02994,0.13081,
634.899,68.57796,-3.03217,0.13055,
637.699,68.85959,-3.03349,0.13348,
640.499,69.14089,-3.03348,0.13262,
643.299,69.42277,-3.03612,0.13144,
646.099,69.7043,-3.03612,0.13662,
648.899,69.98601,-3.03742,0.13555,
651.699,70.26923,-3.03908,0.13564,
654.499,70.55211,-3.04139,0.13473,
657.299,70.83482,-3.0427,0.13571,
660.099,71.11773,-3.04272,0.13875,
662.899,71.39943,-3.04368,0.13968,
665.699,71.68145,-3.04411,0.13987,
668.499,71.96358,-3.04598,0.14237,
671.299,72.24621,-3.04731,0.14191,
674.099,72.52823,-3.04829,0.1383,
676.899,72.81021,-3.04994,0.14214,
679.699,73.09236,-3.0513,0.13829,
682.499,73.3745,-3.05125,0.13704,
685.299,73.659,-3.05257,0.13561,
688.099,73.94306,-3.05257,0.13629,
690.899,74.22654,-3.05356,0.13572,
693.699,74.50998,-3.05783,0.13438,
696.499,74.79318,-3.05664,0.13129,
699.299,75.07613,-3.05654,0.13424,
702.099,75.35948,-3.05915,0.13265,
704.899,75.64277,-3.06079,0.13011,
707.699,75.92574,-3.06343,0.1277,
710.499,76.20848,-3.0621,0.12691,
713.299,76.49168,-3.0608,0.12648,
716.099,76.77514,-3.06407,0.12085,
718.899,77.05884,-3.06409,0.11559,
721.699,77.34355,-3.06536,0.11268,
724.499,77.62789,-3.06638,0.11103,
727.299,77.91173,-3.06906,0.10553,
730.099,78.19576,-3.07045,0.10415,
732.899,78.47949,-3.06913,0.10406,
735.699,78.76321,-3.07045,0.09692765,
738.499,79.0465,-3.07144,0.09603896,
741.299,79.33019,-3.07308,0.09298591,
744.099,79.61461,-3.07209,0.09127425,
746.899,79.89891,-3.0734,0.08529893,
749.699,80.18341,-3.07341,0.08711481,
752.499,80.46823,-3.07572,0.08246116,
755.299,80.75398,-3.07575,0.08176802,
758.099,81.03882,-3.0767,0.08076139,
760.899,81.32283,-3.07867,0.07660432,
763.699,81.60777,-3.07868,0.07377529,
766.499,81.89135,-3.07713,0.07621507,
769.299,82.17566,-3.07933,0.07226361,
772.099,82.45983,-3.08064,0.07380007,
774.899,82.74353,-3.0813,0.06809666,
777.699,83.02808,-3.0813,0.06501064,
780.499,83.3121,-3.08329,0.06504621,
783.299,83.59747,-3.0847,0.06547026,
786.099,83.88215,-3.08412,0.05763599,
788.899,84.1675,-3.08523,0.06224793,
791.699,84.45267,-3.08488,0.06076453,
794.499,84.73813,-3.08807,0.06450551,
796.999,84.99271,-3.08854,0.06783821,