Folder: fsri_materials_database/01_Data/Plywood/STA/N2/30K_min (part 2)

File: Plywood_STA_N2_30KData_22253_R3.csv
##Temp./Â°C,Time/min,Mass loss(subtr.2)/mg,DSC(subtr.2)/(mW/mg)
48.688,10.00917,-0.03937,0.02774647
51.288,10.81779,-0.04294395,0.15098
53.888,11.02885,-0.0412301,0.24532
56.488,11.19022,-0.04232633,0.32144
59.088,11.32699,-0.04432254,0.38478
61.688,11.45086,-0.04192615,0.44376
64.288,11.56519,-0.04209584,0.496
66.888,11.6733,-0.04313494,0.54342
69.488,11.77696,-0.04371431,0.5857
72.088,11.87809,-0.04380356,0.62679
74.688,11.9763,-0.04584842,0.66661
77.288,12.07245,-0.04658995,0.70549
79.888,12.16694,-0.04831232,0.74299
82.488,12.26033,-0.04801122,0.77924
85.088,12.35212,-0.04824529,0.81322
87.688,12.44284,-0.04873218,0.84288
90.288,12.53307,-0.05145156,0.87279
92.888,12.62258,-0.05374017,0.89845
95.488,12.71108,-0.05486715,0.92223
98.088,12.79944,-0.05648101,0.94007
100.688,12.88723,-0.05925527,0.95911
103.288,12.97479,-0.06194285,0.96478
105.888,13.062,-0.06317408,0.97151
108.488,13.14929,-0.06349992,0.97457
111.088,13.23618,-0.06611199,0.96896
113.688,13.32313,-0.06772464,0.95993
116.288,13.40962,-0.06699948,0.95251
118.888,13.49589,-0.06732155,0.93825
121.488,13.58193,-0.06734003,0.9247
124.088,13.66759,-0.06766736,0.91478
126.688,13.75289,-0.07195126,0.90518
129.288,13.83769,-0.07217576,0.89577
131.888,13.92249,-0.07193286,0.88829
134.488,14.00699,-0.07063731,0.88615
137.088,14.09096,-0.07064004,0.88536
139.688,14.17481,-0.06984324,0.88378
142.288,14.25806,-0.07292506,0.88818
144.888,14.3413,-0.07424981,0.89193
147.488,14.42419,-0.07293717,0.89915
150.088,14.50681,-0.07379872,0.90919
152.688,14.58952,-0.07523709,0.91371
155.288,14.67197,-0.07716733,0.92539
157.888,14.75401,-0.07787118,0.93516
160.488,14.83612,-0.07755002,0.94411
163.088,14.91791,-0.07695257,0.9556
165.688,14.99955,-0.07689,0.96702
168.288,15.08139,-0.07688675,0.97969
170.888,15.16277,-0.07819988,0.99131
173.488,15.24416,-0.07747359,1.00158
176.088,15.32529,-0.07754007,1.01457
178.688,15.40616,-0.07889301,1.02457
181.288,15.48675,-0.08017132,1.03831
183.888,15.56733,-0.08150008,1.04956
186.488,15.64774,-0.08282684,1.05894
189.088,15.72779,-0.08413001,1.07379
191.688,15.80778,-0.08413084,1.0863
194.288,15.88752,-0.08676827,1.09575
196.888,15.96718,-0.08808267,1.10669
199.488,16.04675,-0.09073156,1.11876
202.088,16.12624,-0.09072439,1.13005
204.688,16.2055,-0.0917032,1.13978
207.288,16.28479,-0.09332042,1.14799
209.888,16.36408,-0.09627794,1.15401
212.488,16.44341,-0.10144,1.16064
215.088,16.52255,-0.10207,1.15919
217.688,16.60175,-0.10512,1.1603
220.288,16.68071,-0.1095,1.16184
222.888,16.75974,-0.11411,1.16107
225.488,16.8386,-0.11693,1.16178
228.088,16.91752,-0.12083,1.16281
230.688,16.99629,-0.12597,1.16876
233.288,17.07496,-0.13296,1.1718
235.888,17.15367,-0.13954,1.17998
238.488,17.23244,-0.14583,1.18058
241.088,17.31106,-0.15007,1.1893
243.688,17.38978,-0.15646,1.1944
246.288,17.46842,-0.16423,1.20198
248.888,17.54703,-0.1717,1.20883
251.488,17.62562,-0.18256,1.21167
254.088,17.70419,-0.18806,1.21749
256.688,17.78281,-0.19793,1.22366
259.288,17.86129,-0.2071,1.22765
261.888,17.94004,-0.217,1.23083
264.488,18.01867,-0.23,1.2348
267.088,18.09721,-0.24026,1.23871
269.688,18.17587,-0.25161,1.23656
272.288,18.25448,-0.26409,1.2378
274.888,18.33296,-0.27817,1.23673
277.488,18.41154,-0.2926,1.23583
280.088,18.49027,-0.30662,1.23361
282.688,18.56901,-0.32092,1.2259
285.288,18.64774,-0.33642,1.22234
287.888,18.72633,-0.3548,1.21807
290.488,18.8052,-0.37523,1.20844
293.088,18.88377,-0.39654,1.20245
295.688,18.96206,-0.41772,1.19311
298.288,19.04116,-0.44502,1.1808
300.888,19.11988,-0.47298,1.17165
303.488,19.19869,-0.50098,1.16278
306.088,19.27749,-0.53192,1.15066
308.688,19.35619,-0.56532,1.14232
311.288,19.43507,-0.60308,1.13869
313.888,19.51384,-0.63997,1.13418
316.488,19.59264,-0.67968,1.13362
319.088,19.67156,-0.72353,1.13659
321.688,19.75049,-0.76874,1.14011
324.288,19.82941,-0.81778,1.14103
326.888,19.90845,-0.86861,1.14541
329.488,19.98758,-0.92077,1.15042
332.088,20.06663,-0.97743,1.15724
334.688,20.14602,-1.03433,1.1578
337.288,20.22518,-1.09725,1.15749
339.888,20.30461,-1.16231,1.15992
342.488,20.38395,-1.2292,1.15558
345.088,20.46332,-1.29785,1.15442
347.688,20.5429,-1.37087,1.14888
350.288,20.62246,-1.44506,1.13899
352.888,20.70208,-1.5233,1.13069
355.488,20.78187,-1.60256,1.11832
358.088,20.86167,-1.68372,1.10562
360.688,20.94144,-1.76563,1.08171
363.288,21.02127,-1.84936,1.04748
365.888,21.10128,-1.93176,1.00777
368.488,21.18114,-2.0141,0.9596
371.088,21.26093,-2.0922,0.90022
373.688,21.34104,-2.1664,0.8295
376.288,21.42099,-2.23571,0.7567
378.888,21.50105,-2.3017,0.67692
381.488,21.58119,-2.36161,0.59863
384.088,21.66141,-2.41372,0.52081
386.688,21.74165,-2.45566,0.44812
389.288,21.82186,-2.49786,0.38195
391.888,21.90221,-2.53021,0.32211
394.488,21.98284,-2.55697,0.26638
397.088,22.06332,-2.57807,0.21553
399.688,22.1439,-2.5969,0.16742
402.288,22.22476,-2.61082,0.12804
404.888,22.30552,-2.62509,0.0915445
407.488,22.3865,-2.63835,0.05415243
410.088,22.46731,-2.64927,0.02309575
412.688,22.54842,-2.66024,-0.007071601
415.288,22.62946,-2.66814,-0.03408209
417.888,22.71061,-2.67946,-0.0581735
420.488,22.79145,-2.68946,-0.0843223
423.088,22.87295,-2.69692,-0.1055
425.688,22.9544,-2.70959,-0.12332
428.288,23.03565,-2.71856,-0.13694
430.888,23.11718,-2.72787,-0.1483
433.488,23.19862,-2.73431,-0.15886
436.088,23.28012,-2.74364,-0.16396
438.688,23.36167,-2.75224,-0.16445
441.288,23.44342,-2.75998,-0.16484
443.888,23.52521,-2.76888,-0.16168
446.488,23.60719,-2.77811,-0.15346
449.088,23.68921,-2.788,-0.14407
451.688,23.77135,-2.79498,-0.13275
454.288,23.85349,-2.80262,-0.12035
456.888,23.93573,-2.81014,-0.10404
459.488,24.01821,-2.81883,-0.09034056
462.088,24.10057,-2.8247,-0.07357113
464.688,24.18307,-2.83147,-0.05594524
467.288,24.26567,-2.8378,-0.03628781
469.888,24.34821,-2.84289,-0.02473604
472.488,24.43089,-2.84869,-0.006076749
475.088,24.51388,-2.85476,0.008107494
477.688,24.59664,-2.85993,0.02052475
480.288,24.67955,-2.86623,0.03284726
482.888,24.76229,-2.8729,0.0425544
485.488,24.8453,-2.88051,0.05418795
488.088,24.9282,-2.88236,0.0624879
490.688,25.01126,-2.88732,0.0682214
493.288,25.09431,-2.88982,0.07433288
495.888,25.17759,-2.89266,0.07903089
498.488,25.26079,-2.89769,0.08168465
501.088,25.3441,-2.90158,0.08621559
503.688,25.42752,-2.90592,0.09250835
506.288,25.51089,-2.91103,0.09360755
508.888,25.59435,-2.91546,0.09510096
511.488,25.67789,-2.91886,0.09829437
514.088,25.76158,-2.92193,0.09754038
516.688,25.8452,-2.92408,0.10137
519.288,25.92877,-2.92859,0.10192
521.888,26.01268,-2.93298,0.10559
524.488,26.09644,-2.93812,0.10595
527.088,26.18041,-2.94294,0.10608
529.688,26.26464,-2.94449,0.10662
532.288,26.34875,-2.94704,0.10553
534.888,26.43283,-2.95035,0.10636
537.488,26.51709,-2.95318,0.10867
540.088,26.60117,-2.95729,0.10991
542.688,26.68577,-2.95993,0.11135
545.288,26.77001,-2.96502,0.10852
547.888,26.85438,-2.96634,0.10634
550.488,26.93893,-2.96765,0.10785
553.088,27.02328,-2.97051,0.10552
555.688,27.10777,-2.97342,0.10622
558.288,27.19225,-2.97821,0.11179
560.888,27.27678,-2.98103,0.12424
563.488,27.36149,-2.98443,0.13755
566.088,27.446,-2.98555,0.15072
568.688,27.53084,-2.98686,0.15598
571.288,27.61545,-2.98773,0.16364
573.888,27.70024,-2.99071,0.16539
576.488,27.78538,-2.99348,0.17029
579.088,27.87015,-2.99629,0.17705
581.688,27.9552,-2.99907,0.17776
584.288,28.04043,-3.00081,0.1759
586.888,28.12587,-3.00367,0.17053
589.488,28.21113,-3.00567,0.16478
592.088,28.2966,-3.00429,0.16424
594.688,28.38184,-3.00858,0.16094
597.288,28.46731,-3.01001,0.16527
599.888,28.55266,-3.01384,0.16505
602.488,28.63809,-3.0166,0.16709
605.088,28.72367,-3.01516,0.1666
607.688,28.80913,-3.01516,0.1686
610.288,28.89468,-3.01699,0.16701
612.888,28.9802,-3.02051,0.17098
615.488,29.06587,-3.02351,0.17457
618.088,29.15152,-3.02565,0.17229
620.688,29.23732,-3.02693,0.17526
623.288,29.32307,-3.02874,0.18134
625.888,29.40895,-3.02876,0.18149
628.488,29.49483,-3.03008,0.18495
631.088,29.58066,-3.03311,0.18713
633.688,29.66655,-3.03435,0.19258
636.288,29.75233,-3.03434,0.19373
638.888,29.83821,-3.03657,0.19702
641.488,29.92415,-3.03983,0.2019
644.088,30.01007,-3.0421,0.2022
646.688,30.09613,-3.04236,0.20951
649.288,30.18209,-3.04368,0.20806
651.888,30.26802,-3.04433,0.21303
654.488,30.35408,-3.04394,0.21534
657.088,30.44016,-3.04499,0.21492
659.688,30.52621,-3.04631,0.21956
662.288,30.6123,-3.04891,0.22457
664.888,30.6984,-3.05025,0.22447
667.488,30.78464,-3.05152,0.22401
670.088,30.87066,-3.05156,0.22504
672.688,30.9569,-3.05365,0.226
675.288,31.04313,-3.05289,0.21875
677.888,31.12944,-3.05522,0.2181
680.488,31.21551,-3.05681,0.21395
683.088,31.30201,-3.05745,0.21657
685.688,31.38829,-3.05815,0.21413
688.288,31.47459,-3.05998,0.21225
690.888,31.56095,-3.0621,0.20604
693.488,31.64744,-3.06078,0.20743
696.088,31.7339,-3.06211,0.20248
698.688,31.82028,-3.06477,0.19966
701.288,31.90683,-3.06439,0.19268
703.888,31.99328,-3.0644,0.19222
706.488,32.07978,-3.06407,0.18867
709.088,32.16664,-3.06473,0.18457
711.688,32.25328,-3.06604,0.17862
714.288,32.33985,-3.06621,0.17925
716.888,32.42679,-3.07011,0.17497
719.488,32.51354,-3.07142,0.17531
722.088,32.60043,-3.07301,0.17087
724.688,32.68702,-3.07285,0.16239
727.288,32.77409,-3.07153,0.1605
729.888,32.86085,-3.07289,0.155
732.488,32.94762,-3.07285,0.15077
735.088,33.03451,-3.07524,0.14253
737.688,33.12153,-3.07709,0.14401
740.288,33.20849,-3.07695,0.13378
742.888,33.29537,-3.07716,0.12788
745.488,33.38238,-3.07822,0.12445
748.088,33.46918,-3.0791,0.11403
750.688,33.55647,-3.07697,0.11441
753.288,33.64375,-3.0778,0.11012
755.888,33.73101,-3.08013,0.10333
758.488,33.81834,-3.08195,0.09789753
761.088,33.90544,-3.08397,0.0991698
763.688,33.99267,-3.08393,0.09288739
766.288,34.08001,-3.0864,0.08994582
768.888,34.16742,-3.08756,0.08852071
771.488,34.2549,-3.08734,0.07936269
774.088,34.34223,-3.0877,0.07646371
776.688,34.4297,-3.08831,0.07370941
779.288,34.51717,-3.08864,0.06809025
781.888,34.60452,-3.08996,0.06482066
784.488,34.692,-3.08865,0.06402109
787.088,34.77933,-3.09127,0.06112767
789.688,34.86687,-3.09263,0.06023957
792.288,34.95425,-3.09088,0.05444498
793.588,34.99785,-3.09128,0.0542874