Folder: fsri_materials_database/01_Data/Plywood/STA/N2/30K_min

Note: README.md
# Materials and Products Database
### Repository of materials and products properties and fire test data to improve fire modeling and fire investigation.

This project was supported in part by Award No. 2019-DU-BX-0018, awarded by the National Institute of Justice, Office of Justice Programs, U.S. Department of Justice. The opinions, findings, and conclusions or recommendations expressed in this publication / program / exhibition are those of the author(s) and do not necessarily reflect those of the Department of Justice.

***
***

__Cite this database:__ "McKinnon, M., Weinschenk, C., Dow, N., DiDomizio, M., and Madrzykowski, D. Materials and Products Database (Version 1.0.0), Fire Safety Research Institute, UL Research Institutes. Columbia, MD 21045, 2023."

__Cite the Technical Reference Guide:__ "McKinnon, M., Weinschenk, C., and Madrzykowski, D. Materials and Products Database - Technical Reference Guide, Fire Safety Research Institute, UL Research Institutes. Columbia, MD 21045, 2023."

__Cite the User Guide:__ "McKinnon, M., and Weinschenk, C. Materials and Products Database - User Guide, Fire Safety Research Institute, UL Research Institutes. Columbia, MD 21045, 2023."

***
***

## Database Structure

## 01_Data/
Raw data generated from each apparatus are included here in plain-text format. The data is organized first by material, next by the short name of test apparatus used, and where applicable additional filtering by test settings.

### Test Apparatus and Data File Structure
- __Cone Calorimeter__ (Cone)
    + Data file structure includes the material, the short name for the apparatus, heat flux setting and scan/scalar, date of test, and replicate number. Scan is for the raw output data and scalar is for the initial conditions and high-level test parameters. 
        * Example: __MDF_Cone_HF25scalar_210323_R1__ stands for the first replicate of scalar data generated from a medium density fiber board test in cone calorimeter exposed to 25 kW/m<sup>2</sup> on March 23, 2021.
    + A _Cone_Notes.csv_ is generated for each material from the __plot_Cone_data.py__ script. For materials whose experiments deviated from typical behavior relevant pictures are included in the respective material directory.
- __Fourier Transform Infrared Spectrometer__ (FTIR)
    + The FTIR directory contains subdirectories for the Attenuated Total Reflectance method (ATR) and the Integrating Sphere (IS)
    + Data file structure for the ATR experiment files includes the material, the abbreviated name for the apparatus, date of test, and replicate number. 
        * Example: __MDF_ATR_210323_R5__ stands for the fifth replicate of data collected with the ATR accessory conducted on June 8, 2021.
    + Data file structure for the IS experiment files includes the material, the abbreviated name for the apparatus, the measurand, whether the test is a sample measurement or standard reference, date of test, and replicate number.
        * Example: __OSB_IS_REFLECT_MEAS_2

File: Plywood_STA_N2_30KData_22253_R1.csv
##Temp./Â°C,Time/min,Mass loss(subtr.2)/mg,DSC(subtr.2)/(mW/mg),Sensit./(uV/mW)
48.751,10.01,0.00559,0.01328796,
51.451,10.8291,0.006724464,0.17546,
54.151,11.04478,0.00675261,0.28259,
56.851,11.20798,0.006312562,0.37133,
59.551,11.34805,0.006191716,0.44941,
62.251,11.47401,0.006460411,0.5152,
64.951,11.59143,0.007317153,0.57874,
67.651,11.70207,0.006100927,0.63302,
70.351,11.80896,0.004791179,0.68179,
73.051,11.91271,0.005099146,0.7293,
75.751,12.01344,0.005531267,0.77093,
78.451,12.11192,0.004783763,0.81343,
81.151,12.21025,0.001547518,0.85651,
83.851,12.30613,0.001447863,0.89322,
86.551,12.40104,0.001016287,0.92731,
89.251,12.495,-0.000972594,0.95905,
91.951,12.58787,-0.001765267,0.98675,
94.651,12.68038,-0.002308063,1.01029,
97.351,12.77219,-0.003643311,1.03464,
100.051,12.86358,-0.004977697,1.0494,
102.751,12.95492,-0.007300601,1.06129,
105.451,13.04552,-0.007566352,1.06691,
108.151,13.13616,-0.008782805,1.06589,
110.851,13.2267,-0.01158625,1.06388,
113.551,13.317,-0.0129328,1.05614,
116.251,13.40719,-0.01151959,1.04732,
118.951,13.49705,-0.01283038,1.03846,
121.651,13.58654,-0.01544224,1.02746,
124.351,13.67554,-0.01678439,1.0217,
127.051,13.76427,-0.01546108,1.01124,
129.751,13.85255,-0.01608795,1.00731,
132.451,13.9406,-0.01680041,1.00583,
135.151,14.02813,-0.01941054,1.00479,
137.851,14.11562,-0.01951501,1.00744,
140.551,14.20243,-0.01809975,1.01412,
143.251,14.28887,-0.01940959,1.02047,
145.951,14.37533,-0.0190436,1.02682,
148.651,14.4614,-0.01940902,1.04014,
151.351,14.54716,-0.02072943,1.0492,
154.051,14.63239,-0.02073,1.06029,
156.751,14.7177,-0.02072965,1.07401,
159.451,14.80315,-0.02204049,1.08616,
162.151,14.8882,-0.02204,1.10104,
164.851,14.97298,-0.02204,1.115,
167.551,15.05765,-0.02204012,1.12956,
170.251,15.14229,-0.02335867,1.14274,
172.951,15.22671,-0.02369639,1.15793,
175.651,15.31105,-0.0246751,1.17301,
178.351,15.39491,-0.02468,1.18662,
181.051,15.47858,-0.02467999,1.19906,
183.751,15.5621,-0.02604258,1.21417,
186.451,15.64547,-0.02728175,1.22732,
189.151,15.72836,-0.02829997,1.23851,
191.851,15.81104,-0.02872466,1.2534,
194.551,15.89407,-0.03102615,1.26787,
197.251,15.97663,-0.03083587,1.28055,
199.951,16.05926,-0.03399439,1.2903,
202.651,16.14176,-0.03598264,1.29948,
205.351,16.22411,-0.03765142,1.30665,
208.051,16.30647,-0.04036076,1.31461,
210.751,16.38861,-0.04320041,1.31906,
213.451,16.47098,-0.04478388,1.32377,
216.151,16.55303,-0.04761817,1.3279,
218.851,16.63518,-0.05081787,1.33023,
221.551,16.71708,-0.05524079,1.33332,
224.251,16.79891,-0.05884459,1.33268,
226.951,16.88071,-0.06376497,1.33774,
229.651,16.9625,-0.06871565,1.34098,
232.351,17.04418,-0.07456328,1.34782,
235.051,17.12604,-0.08083868,1.35121,
237.751,17.20763,-0.08617782,1.35835,
240.451,17.2892,-0.09221877,1.36703,
243.151,17.37086,-0.09837194,1.37118,
245.851,17.45255,-0.1068,1.38011,
248.551,17.53405,-0.1149,1.38443,
251.251,17.6156,-0.12266,1.38973,
253.951,17.69706,-0.13138,1.39695,
256.651,17.77867,-0.14042,1.40008,
259.351,17.86023,-0.15151,1.40686,
262.051,17.94186,-0.16144,1.40796,
264.751,18.02325,-0.17228,1.41087,
267.451,18.10484,-0.18233,1.4115,
270.151,18.18647,-0.19352,1.41346,
272.851,18.26785,-0.20599,1.41099,
275.551,18.34937,-0.21934,1.4119,
278.251,18.43123,-0.23437,1.40998,
280.951,18.51293,-0.25035,1.40585,
283.651,18.59463,-0.26582,1.4004,
286.351,18.6763,-0.28404,1.39499,
289.051,18.75795,-0.3035,1.3895,
291.751,18.83962,-0.32446,1.38391,
294.451,18.92128,-0.34632,1.37323,
297.151,19.00297,-0.37136,1.36313,
299.851,19.08478,-0.39802,1.35616,
302.551,19.16655,-0.42824,1.34833,
305.251,19.2483,-0.45957,1.34004,
307.951,19.33016,-0.49642,1.33383,
310.651,19.41213,-0.53208,1.33061,
313.351,19.49404,-0.57286,1.32818,
316.051,19.57606,-0.61567,1.32907,
318.751,19.65795,-0.66152,1.33258,
321.451,19.74009,-0.7094,1.33413,
324.151,19.82222,-0.75911,1.34547,
326.851,19.90449,-0.81232,1.34768,
329.551,19.98668,-0.86897,1.35781,
332.251,20.06909,-0.92633,1.36272,
334.951,20.1514,-0.98873,1.36921,
337.651,20.23399,-1.05289,1.3707,
340.351,20.31653,-1.12017,1.37325,
343.051,20.39914,-1.19013,1.37337,
345.751,20.48169,-1.26434,1.37273,
348.451,20.56431,-1.34104,1.36607,
351.151,20.64713,-1.41965,1.35801,
353.851,20.72989,-1.50038,1.34674,
356.551,20.81261,-1.58592,1.33207,
359.251,20.89562,-1.67096,1.30687,
361.951,20.97857,-1.75695,1.27554,
364.651,21.06193,-1.8455,1.23351,
367.351,21.14501,-1.929,1.18159,
370.051,21.2283,-2.01034,1.11675,
372.751,21.31143,-2.08877,1.04206,
375.451,21.39482,-2.16444,0.96367,
378.151,21.47831,-2.23133,0.87838,
380.851,21.56154,-2.29305,0.79181,
383.551,21.64495,-2.34854,0.70764,
386.251,21.72834,-2.3953,0.62803,
388.951,21.81202,-2.43609,0.54956,
391.651,21.89564,-2.47094,0.48415,
394.351,21.97927,-2.49826,0.42207,
397.051,22.06306,-2.52046,0.37221,
399.751,22.14681,-2.5402,0.32419,
402.451,22.23075,-2.55656,0.28559,
405.151,22.31478,-2.56942,0.25088,
407.851,22.39882,-2.58093,0.21672,
410.551,22.48304,-2.5926,0.18806,
413.251,22.56719,-2.60168,0.15867,
415.951,22.65128,-2.61157,0.12973,
418.651,22.7359,-2.6227,0.10458,
421.351,22.82033,-2.63249,0.08265631,
424.051,22.90459,-2.64291,0.06064283,
426.751,22.98923,-2.65215,0.04433059,
429.451,23.07381,-2.66159,0.02968366,
432.151,23.15843,-2.67216,0.02175736,
434.851,23.24321,-2.68136,0.01598341,
437.551,23.32797,-2.68776,0.01388997,
440.251,23.41294,-2.69857,0.01875153,
442.951,23.49793,-2.70672,0.02170262,
445.651,23.58298,-2.71507,0.02953288,
448.351,23.66811,-2.72261,0.04065001,
451.051,23.75341,-2.73178,0.05545156,
453.751,23.83864,-2.73881,0.06885676,
456.451,23.92407,-2.7463,0.08810502,
459.151,24.00944,-2.75339,0.10563,
461.851,24.09495,-2.76105,0.12479,
464.551,24.1806,-2.76711,0.13998,
467.251,24.26635,-2.77406,0.16054,
469.951,24.35212,-2.78081,0.17433,
472.651,24.43796,-2.7876,0.19077,
475.351,24.52391,-2.79055,0.20528,
478.051,24.60971,-2.79733,0.21785,
480.751,24.69573,-2.80306,0.23144,
483.451,24.78186,-2.80918,0.23989,
486.151,24.86775,-2.81384,0.24948,
488.851,24.95381,-2.81779,0.25694,
491.551,25.04033,-2.82279,0.26696,
494.251,25.12677,-2.82907,0.27208,
496.951,25.21304,-2.83305,0.27971,
499.651,25.29962,-2.83775,0.28473,
502.351,25.38625,-2.84082,0.28751,
505.051,25.47275,-2.84466,0.29427,
507.751,25.55949,-2.84915,0.29609,
510.451,25.64622,-2.8541,0.29935,
513.151,25.73289,-2.85736,0.30341,
515.851,25.81969,-2.86017,0.30408,
518.551,25.90666,-2.86374,0.30699,
521.251,25.99375,-2.86882,0.30667,
523.951,26.08062,-2.87162,0.3093,
526.651,26.16759,-2.87443,0.31315,
529.351,26.25467,-2.8771,0.3159,
532.051,26.34187,-2.88216,0.31698,
534.751,26.42907,-2.88499,0.31865,
537.451,26.51638,-2.88749,0.32011,
540.151,26.60379,-2.89027,0.32377,
542.851,26.69114,-2.89011,0.32929,
545.551,26.77831,-2.89658,0.32844,
548.251,26.86591,-2.90067,0.32845,
550.951,26.95338,-2.90395,0.33164,
553.651,27.04095,-2.90589,0.33323,
556.351,27.12871,-2.90912,0.3324,
559.051,27.21632,-2.91055,0.33395,
561.751,27.30417,-2.91342,0.33436,
564.451,27.39195,-2.91613,0.33628,
567.151,27.47988,-2.91886,0.33891,
569.851,27.56788,-2.9214,0.3438,
572.551,27.65587,-2.92408,0.34984,
575.251,27.74393,-2.92749,0.36037,
577.951,27.83203,-2.92822,0.37135,
580.651,27.92026,-2.93312,0.37818,
583.351,28.00866,-2.93443,0.38802,
586.051,28.09689,-2.9372,0.40004,
588.751,28.18517,-2.9393,0.40666,
591.451,28.27335,-2.94139,0.41329,
594.151,28.36205,-2.94361,0.42021,
596.851,28.45043,-2.94616,0.42284,
599.551,28.539,-2.94848,0.42532,
602.251,28.62771,-2.95155,0.42777,
604.951,28.71647,-2.95299,0.42804,
607.651,28.80522,-2.9556,0.42883,
610.351,28.89412,-2.95635,0.42746,
613.051,28.98248,-2.95825,0.43249,
615.751,29.07199,-2.96084,0.43325,
618.451,29.16107,-2.96216,0.43577,
621.151,29.25004,-2.96349,0.43947,
623.851,29.33907,-2.96505,0.44378,
626.551,29.42828,-2.9684,0.4496,
629.251,29.51752,-2.97127,0.45195,
631.951,29.60662,-2.97084,0.45929,
634.651,29.6961,-2.97088,0.46052,
637.351,29.78547,-2.97393,0.46765,
640.051,29.87475,-2.97548,0.47155,
642.751,29.96415,-2.97785,0.47855,
645.451,30.05374,-2.97918,0.48511,
648.151,30.14312,-2.97932,0.49264,
650.851,30.23246,-2.9818,0.4976,
653.551,30.3219,-2.98189,0.50483,
656.251,30.41136,-2.98448,0.51151,
658.951,30.50058,-2.98515,0.51711,
661.651,30.59009,-2.98675,0.52131,
664.351,30.67958,-2.98806,0.52517,
667.051,30.7689,-2.98831,0.52737,
669.751,30.85851,-2.98992,0.52601,
672.451,30.94787,-2.9894,0.52986,
675.151,31.03741,-2.99216,0.5285,
677.851,31.1268,-2.99344,0.52854,
680.551,31.21616,-2.99476,0.52789,
683.251,31.30578,-2.99637,0.52672,
685.951,31.39528,-2.99799,0.52582,
688.651,31.48505,-2.99936,0.52537,
691.351,31.5747,-2.99805,0.52171,
694.051,31.66434,-3.00036,0.5209,
696.751,31.75388,-3.00167,0.51743,
699.451,31.84413,-3.00299,0.51875,
702.151,31.93404,-3.00432,0.51336,
704.851,32.02402,-3.00562,0.50898,
707.551,32.11408,-3.0043,0.50924,
710.251,32.20411,-3.00434,0.50528,
712.951,32.29431,-3.00753,0.50551,
715.651,32.38445,-3.00848,0.5013,
718.351,32.47457,-3.00979,0.50141,
721.051,32.56461,-3.01109,0.49698,
723.751,32.65491,-3.01251,0.49332,
726.451,32.74529,-3.01242,0.49183,
729.151,32.83562,-3.01233,0.48669,
731.851,32.92609,-3.01482,0.48696,
734.551,33.0166,-3.01515,0.4833,
737.251,33.10691,-3.01384,0.47677,
739.951,33.19763,-3.01484,0.47586,
742.651,33.28813,-3.01609,0.46869,
745.351,33.37871,-3.01714,0.46292,
748.051,33.46925,-3.01872,0.4582,
750.751,33.55984,-3.02075,0.454,
753.451,33.65045,-3.02075,0.44801,
756.151,33.74107,-3.02076,0.44016,
758.851,33.83173,-3.02076,0.43895,
761.551,33.92239,-3.02207,0.43421,
764.251,34.01314,-3.02338,0.43179,
766.951,34.10399,-3.02472,0.42805,
769.651,34.19453,-3.02471,0.41962,
772.351,34.28547,-3.02477,0.41815,
775.051,34.37623,-3.02509,0.41989,
777.751,34.46702,-3.02602,0.4118,
780.451,34.55764,-3.02832,0.41409,
783.151,34.64804,-3.02832,0.41099,
785.851,34.73911,-3.02964,0.40474,
788.551,34.82988,-3.03095,0.40202,
791.251,34.92094,-3.03056,0.4001,
793.551,34.99839,-3.03095,0.39707,

File: Plywood_STA_N2_30KData_22253_R2.csv
##Temp./Â°C,Time/min,Mass loss(subtr.2)/mg,DSC(subtr.2)/(mW/mg)
48.795,10.00917,-0.08019,0.009836841
51.495,10.82766,-0.08466837,0.12068
54.195,11.04293,-0.08541834,0.20726
56.895,11.20661,-0.09062684,0.279
59.595,11.34641,-0.0905962,0.34202
62.295,11.47241,-0.08909056,0.39691
64.995,11.58929,-0.09126967,0.44387
67.695,11.70049,-0.09045788,0.48722
70.395,11.80712,-0.09243969,0.53026
73.095,11.91043,-0.09314914,0.56782
75.795,12.01128,-0.09619269,0.60059
78.495,12.11044,-0.09490441,0.63364
81.195,12.2079,-0.09640277,0.66525
83.895,12.30387,-0.09741176,0.69957
86.595,12.39879,-0.10035,0.72983
89.295,12.49284,-0.10185,0.75712
91.995,12.58546,-0.10318,0.78055
94.695,12.67833,-0.10348,0.80395
97.395,12.7703,-0.10721,0.81731
100.095,12.86148,-0.10841,0.82971
102.795,12.95262,-0.1121,0.83284
105.495,13.04362,-0.11278,0.83751
108.195,13.13444,-0.11408,0.83462
110.895,13.22407,-0.11672,0.82536
113.595,13.31526,-0.11802,0.81699
116.295,13.40545,-0.11665,0.80311
118.995,13.49533,-0.11918,0.78825
121.695,13.58498,-0.12049,0.77389
124.395,13.67402,-0.12122,0.76198
127.095,13.76285,-0.12282,0.74936
129.795,13.85123,-0.12371,0.73959
132.495,13.93928,-0.12515,0.73411
135.195,14.02707,-0.12523,0.72998
137.895,14.11451,-0.12557,0.72916
140.595,14.2015,-0.12581,0.72998
143.295,14.28812,-0.12814,0.73313
145.995,14.37443,-0.129,0.73897
148.695,14.45993,-0.12943,0.74456
151.395,14.54654,-0.12943,0.75159
154.095,14.63211,-0.12943,0.76008
156.795,14.71769,-0.13074,0.76838
159.495,14.803,-0.13206,0.77828
162.195,14.88811,-0.13206,0.78861
164.895,14.97312,-0.13239,0.79914
167.595,15.0578,-0.13239,0.80988
170.295,15.14238,-0.13371,0.82094
172.995,15.22685,-0.13366,0.83322
175.695,15.31101,-0.13614,0.84203
178.395,15.39515,-0.13578,0.85497
181.095,15.47891,-0.137,0.86411
183.795,15.56232,-0.13832,0.87834
186.495,15.64553,-0.13825,0.89053
189.195,15.72876,-0.13897,0.90137
191.895,15.81165,-0.14162,0.91154
194.595,15.89438,-0.145,0.92291
197.295,15.97712,-0.14631,0.93595
199.995,16.05965,-0.14834,0.9443
202.695,16.14212,-0.15161,0.95335
205.395,16.22459,-0.15441,0.95938
208.095,16.30688,-0.15713,0.9675
210.795,16.38913,-0.15982,0.96797
213.495,16.47143,-0.1618,0.97105
216.195,16.55358,-0.16559,0.97579
218.895,16.6354,-0.16815,0.97393
221.595,16.71755,-0.17102,0.97607
224.295,16.79945,-0.17509,0.97684
226.995,16.8813,-0.18019,0.97577
229.695,16.9632,-0.18693,0.9817
232.395,17.045,-0.19368,0.98493
235.095,17.12677,-0.19884,0.98829
237.795,17.20848,-0.20571,0.99567
240.495,17.29021,-0.21453,1.00262
243.195,17.3719,-0.22045,1.00752
245.895,17.4536,-0.22795,1.01393
248.595,17.53519,-0.23498,1.02081
251.295,17.61674,-0.24338,1.02909
253.995,17.6983,-0.25447,1.03122
256.695,17.78001,-0.26553,1.03738
259.395,17.86165,-0.27601,1.04137
262.095,17.94305,-0.28599,1.04402
264.795,18.02461,-0.29638,1.04531
267.495,18.10613,-0.30601,1.04579
270.195,18.18765,-0.32005,1.04691
272.895,18.26912,-0.33366,1.04384
275.595,18.35067,-0.34692,1.0454
278.295,18.43207,-0.36078,1.04153
280.995,18.51385,-0.37692,1.03717
283.695,18.59556,-0.39323,1.0304
286.395,18.6771,-0.40867,1.02506
289.095,18.75866,-0.43534,1.01849
291.795,18.84043,-0.45709,1.00742
294.495,18.92205,-0.47995,0.99693
297.195,19.00367,-0.5043,0.98755
299.895,19.08537,-0.53104,0.97615
302.595,19.16721,-0.56003,0.96722
305.295,19.24886,-0.59265,0.95939
307.995,19.33027,-0.62681,0.95014
310.695,19.41202,-0.66418,0.94397
313.395,19.49427,-0.70336,0.94047
316.095,19.57606,-0.74735,0.9435
318.795,19.65801,-0.79511,0.94554
321.495,19.74004,-0.8429,0.95204
324.195,19.82214,-0.89409,0.95614
326.895,19.90429,-0.94891,0.96475
329.595,19.98645,-1.00307,0.97107
332.295,20.06889,-1.06087,0.98025
334.995,20.15109,-1.12375,0.98388
337.695,20.23345,-1.18917,0.9895
340.395,20.31611,-1.25728,0.99535
343.095,20.39861,-1.32878,0.99739
345.795,20.48129,-1.40431,0.99739
348.495,20.56416,-1.48149,0.99362
351.195,20.64675,-1.55958,0.99023
353.895,20.7297,-1.63926,0.98198
356.595,20.81264,-1.7231,0.96535
359.295,20.89522,-1.80956,0.94288
361.995,20.97817,-1.89668,0.91091
364.695,21.06141,-1.98258,0.87323
367.395,21.14477,-2.06969,0.82511
370.095,21.22791,-2.15379,0.76656
372.795,21.31093,-2.23285,0.69703
375.495,21.39409,-2.30741,0.61982
378.195,21.47738,-2.37519,0.53702
380.895,21.56077,-2.43563,0.46049
383.595,21.64411,-2.4872,0.37665
386.295,21.72744,-2.53403,0.29903
388.995,21.81089,-2.57057,0.22681
391.695,21.89429,-2.60254,0.16009
394.395,21.9778,-2.63046,0.10072
397.095,22.0614,-2.65282,0.04795669
399.795,22.14515,-2.67055,-0.001800745
402.495,22.22871,-2.68655,-0.04461296
405.195,22.31258,-2.70012,-0.08829144
407.895,22.39657,-2.71129,-0.12057
410.595,22.48053,-2.72347,-0.15929
413.295,22.56465,-2.73661,-0.19145
415.995,22.64869,-2.74614,-0.2235
418.695,22.73299,-2.75533,-0.24897
421.395,22.81715,-2.76694,-0.2748
424.095,22.90161,-2.77776,-0.29561
426.795,22.98605,-2.78686,-0.31585
429.495,23.0707,-2.79676,-0.32913
432.195,23.15529,-2.80472,-0.34147
434.895,23.24003,-2.81635,-0.34427
437.595,23.32499,-2.8234,-0.34887
440.295,23.40995,-2.83107,-0.35162
442.995,23.49483,-2.83999,-0.3508
445.695,23.57986,-2.84918,-0.34251
448.395,23.66511,-2.85953,-0.32967
451.095,23.75023,-2.86715,-0.31849
453.795,23.83539,-2.87293,-0.30404
456.495,23.92101,-2.88284,-0.28097
459.195,24.00662,-2.889,-0.26461
461.895,24.09224,-2.89894,-0.24848
464.595,24.17772,-2.9074,-0.2308
467.295,24.26339,-2.91366,-0.21284
469.995,24.34901,-2.91743,-0.19714
472.695,24.43496,-2.92349,-0.18067
475.395,24.52081,-2.93073,-0.16712
478.095,24.60691,-2.93541,-0.15456
480.795,24.693,-2.94183,-0.13932
483.495,24.77915,-2.94661,-0.1302
486.195,24.86548,-2.95055,-0.12141
488.895,24.95194,-2.95376,-0.11432
491.595,25.03827,-2.96112,-0.10795
494.295,25.12485,-2.96621,-0.10183
496.995,25.2115,-2.97226,-0.09564241
499.695,25.29805,-2.97723,-0.09217252
502.395,25.38483,-2.97766,-0.08773852
505.095,25.47137,-2.98134,-0.08359736
507.795,25.55832,-2.98689,-0.07954556
510.495,25.6452,-2.99051,-0.07650559
513.195,25.73208,-2.99376,-0.07192025
515.895,25.81922,-2.99839,-0.07076602
518.595,25.90604,-3.00115,-0.07319741
521.295,25.9932,-3.00386,-0.06838506
523.995,26.08027,-3.00553,-0.06933173
526.695,26.16736,-3.01066,-0.06411334
529.395,26.25462,-3.01652,-0.06279195
532.095,26.34184,-3.01789,-0.06023069
534.795,26.42952,-3.022,-0.05743964
537.495,26.51682,-3.02597,-0.05538121
540.195,26.60422,-3.03066,-0.0516696
542.895,26.69193,-3.03357,-0.05561733
545.595,26.77938,-3.03623,-0.05414369
548.295,26.86683,-3.03897,-0.04866197
550.995,26.95439,-3.04135,-0.04827733
553.695,27.04208,-3.04289,-0.04643512
556.395,27.12976,-3.04568,-0.04602984
559.095,27.21729,-3.05012,-0.0436249
561.795,27.30505,-3.05619,-0.04036417
564.495,27.39301,-3.05893,-0.04091215
567.195,27.48073,-3.05893,-0.03812426
569.895,27.56868,-3.06025,-0.03493472
572.595,27.65658,-3.06288,-0.02633366
575.295,27.74451,-3.06593,-0.01446129
577.995,27.83269,-3.06678,-0.003535018
580.695,27.92075,-3.06995,0.004609471
583.395,28.00894,-3.07264,0.01282545
586.095,28.09703,-3.07542,0.02475613
588.795,28.18525,-3.07783,0.02861815
591.495,28.27391,-3.07906,0.03902086
594.195,28.36233,-3.08306,0.04202999
596.895,28.45081,-3.08438,0.04611264
599.595,28.53937,-3.08713,0.04740869
602.295,28.62795,-3.09218,0.04654807
604.995,28.71666,-3.09444,0.04707655
607.695,28.80562,-3.09293,0.04410999
610.395,28.89419,-3.09404,0.0464332
613.095,28.98308,-3.09861,0.05018654
615.795,29.07204,-3.09994,0.0497169
618.495,29.16098,-3.09864,0.04934808
621.195,29.24997,-3.09936,0.05586531
623.895,29.33893,-3.10354,0.05622834
626.595,29.42784,-3.10747,0.05902225
629.295,29.51688,-3.10921,0.06369019
631.995,29.60603,-3.11014,0.06726989
634.695,29.6953,-3.11311,0.07367442
637.395,29.78439,-3.11302,0.07489661
640.095,29.87365,-3.11609,0.07980305
642.795,29.963,-3.11729,0.08611769
645.495,30.05218,-3.1186,0.09036232
648.195,30.14164,-3.1199,0.09514519
650.895,30.23099,-3.11991,0.09944112
653.595,30.32048,-3.12255,0.10474
656.295,30.40997,-3.12255,0.10658
658.995,30.49949,-3.12518,0.11245
661.695,30.58888,-3.12649,0.11504
664.395,30.67841,-3.12777,0.1175
667.095,30.76791,-3.13055,0.11947
669.795,30.85752,-3.13051,0.11736
672.495,30.94695,-3.13321,0.12016
675.195,31.03667,-3.1362,0.11966
677.895,31.12613,-3.13736,0.11631
680.595,31.21604,-3.13616,0.11133
683.295,31.3058,-3.14082,0.11289
685.995,31.39555,-3.14345,0.11081
688.695,31.48531,-3.14416,0.10831
691.395,31.57509,-3.14382,0.10444
694.095,31.66505,-3.14515,0.09927367
696.795,31.75491,-3.14607,0.09494633
699.495,31.84473,-3.14821,0.09093111
702.195,31.93478,-3.15141,0.0904933
704.895,32.02484,-3.15139,0.08156015
707.595,32.11484,-3.15008,0.08373431
710.295,32.20486,-3.14976,0.07572893
712.995,32.29483,-3.15041,0.07310933
715.695,32.38494,-3.15105,0.06701296
718.395,32.47515,-3.15106,0.06341387
721.095,32.56528,-3.15092,0.05730683
723.795,32.65552,-3.1508,0.05863996
726.495,32.74587,-3.15456,0.05291111
729.195,32.83617,-3.15774,0.05272547
731.895,32.92664,-3.15633,0.04925846
734.595,33.01715,-3.15633,0.04395615
737.295,33.10772,-3.15643,0.03978309
739.995,33.19804,-3.15776,0.03375385
742.695,33.2887,-3.15875,0.03338886
745.395,33.37954,-3.15875,0.02952928
748.095,33.47016,-3.16006,0.02538359
750.795,33.56053,-3.15908,0.01726896
753.495,33.65129,-3.16055,0.01327269
756.195,33.742,-3.16357,0.01356962
758.895,33.83271,-3.16356,0.004413611
761.595,33.92336,-3.16612,0.004780148
764.295,34.01425,-3.16739,0.002115346
766.995,34.10496,-3.16915,-0.002802343
769.695,34.19566,-3.16874,-0.008724495
772.395,34.28646,-3.17086,-0.01317515
775.095,34.37725,-3.17159,-0.01652503
777.795,34.46787,-3.17376,-0.01663699
780.495,34.55871,-3.1742,-0.02079063
783.195,34.64927,-3.17552,-0.02528349
785.895,34.7401,-3.17552,-0.02608384
788.595,34.83085,-3.17565,-0.03074599
791.295,34.92161,-3.17456,-0.03689572
793.595,34.99889,-3.17388,-0.04021999