Folder: fsri_materials_database/01_Data/Plywood/STA/N2/3K_min

Note: README.md
# Materials and Products Database
### Repository of materials and products properties and fire test data to improve fire modeling and fire investigation.

This project was supported in part by Award No. 2019-DU-BX-0018, awarded by the National Institute of Justice, Office of Justice Programs, U.S. Department of Justice. The opinions, findings, and conclusions or recommendations expressed in this publication / program / exhibition are those of the author(s) and do not necessarily reflect those of the Department of Justice.

***
***

__Cite this database:__ "McKinnon, M., Weinschenk, C., Dow, N., DiDomizio, M., and Madrzykowski, D. Materials and Products Database (Version 1.0.0), Fire Safety Research Institute, UL Research Institutes. Columbia, MD 21045, 2023."

__Cite the Technical Reference Guide:__ "McKinnon, M., Weinschenk, C., and Madrzykowski, D. Materials and Products Database - Technical Reference Guide, Fire Safety Research Institute, UL Research Institutes. Columbia, MD 21045, 2023."

__Cite the User Guide:__ "McKinnon, M., and Weinschenk, C. Materials and Products Database - User Guide, Fire Safety Research Institute, UL Research Institutes. Columbia, MD 21045, 2023."

***
***

## Database Structure

## 01_Data/
Raw data generated from each apparatus are included here in plain-text format. The data is organized first by material, next by the short name of test apparatus used, and where applicable additional filtering by test settings.

### Test Apparatus and Data File Structure
- __Cone Calorimeter__ (Cone)
    + Data file structure includes the material, the short name for the apparatus, heat flux setting and scan/scalar, date of test, and replicate number. Scan is for the raw output data and scalar is for the initial conditions and high-level test parameters. 
        * Example: __MDF_Cone_HF25scalar_210323_R1__ stands for the first replicate of scalar data generated from a medium density fiber board test in cone calorimeter exposed to 25 kW/m<sup>2</sup> on March 23, 2021.
    + A _Cone_Notes.csv_ is generated for each material from the __plot_Cone_data.py__ script. For materials whose experiments deviated from typical behavior relevant pictures are included in the respective material directory.
- __Fourier Transform Infrared Spectrometer__ (FTIR)
    + The FTIR directory contains subdirectories for the Attenuated Total Reflectance method (ATR) and the Integrating Sphere (IS)
    + Data file structure for the ATR experiment files includes the material, the abbreviated name for the apparatus, date of test, and replicate number. 
        * Example: __MDF_ATR_210323_R5__ stands for the fifth replicate of data collected with the ATR accessory conducted on June 8, 2021.
    + Data file structure for the IS experiment files includes the material, the abbreviated name for the apparatus, the measurand, whether the test is a sample measurement or standard reference, date of test, and replicate number.
        * Example: __OSB_IS_REFLECT_MEAS_2

File: Plywood_STA_N2_3KData_22243_R1.csv
##Temp./Â°C,Time/min,Mass loss(subtr.2)/mg,DSC(subtr.2)/mW,Sensit./(uV/mW)
50.341,10.01667,-0.08655,0.12887,1.04791
53.441,12.24996,-0.09949008,0.36087,1.04654
56.541,13.4282,-0.10575,0.39825,1.04518
59.641,14.5442,-0.11125,0.43785,1.04382
62.741,15.6137,-0.11492,0.46444,1.04246
65.841,16.67118,-0.12034,0.48518,1.04111
68.941,17.72554,-0.12559,0.5032,1.03977
72.041,18.7677,-0.12977,0.50507,1.03843
75.141,19.81211,-0.13213,0.49893,1.03709
78.241,20.85482,-0.13733,0.49225,1.03576
81.341,21.88782,-0.13997,0.48805,1.03443
84.441,22.9224,-0.13999,0.45933,1.03311
87.541,23.95838,-0.1426,0.45697,1.03179
90.641,24.9893,-0.14387,0.44655,1.03048
93.741,26.02047,-0.14643,0.45605,1.02917
96.841,27.04625,-0.14921,0.44432,1.02786
99.941,28.0721,-0.14754,0.4273,1.02656
103.041,29.10183,-0.14622,0.4347,1.02526
106.141,30.12702,-0.14742,0.44926,1.02397
109.241,31.1477,-0.14622,0.43925,1.02268
112.341,32.17775,-0.14687,0.43987,1.02139
115.441,33.20448,-0.14602,0.46749,1.0201
118.541,34.22688,-0.14444,0.46652,1.01882
121.641,35.2507,-0.14392,0.47296,1.01754
124.741,36.2731,-0.14393,0.48158,1.01627
127.841,37.2931,-0.14425,0.48005,1.01499
130.941,38.30705,-0.14335,0.50727,1.01372
134.041,39.32172,-0.14436,0.51583,1.01245
137.141,40.34195,-0.14253,0.51672,1.01119
140.241,41.3574,-0.14436,0.52953,1.00992
143.341,42.3754,-0.14725,0.52509,1.00866
146.441,43.3916,-0.14942,0.54592,1.0074
149.541,44.4059,-0.14763,0.53985,1.00614
152.641,45.42337,-0.14622,0.55513,1.00488
155.741,46.43233,-0.15017,0.57391,1.00363
158.841,47.44512,-0.1511,0.57721,1.00237
161.941,48.45919,-0.15304,0.57294,1.00112
165.041,49.4672,-0.15575,0.5747,0.99987
168.141,50.47656,-0.16011,0.59775,0.99861
171.241,51.49024,-0.15796,0.6101,0.99736
174.341,52.5054,-0.16189,0.61739,0.99611
177.441,53.5169,-0.16289,0.62195,0.99486
180.541,54.5236,-0.16486,0.6278,0.99361
183.641,55.53422,-0.16981,0.63238,0.99236
186.741,56.5485,-0.1743,0.64958,0.99111
189.841,57.55515,-0.18155,0.64115,0.98986
192.941,58.56479,-0.18938,0.65153,0.98861
196.041,59.57705,-0.19997,0.65815,0.98736
199.141,60.5837,-0.20589,0.67939,0.98611
202.241,61.58806,-0.20688,0.67086,0.98486
205.341,62.5991,-0.21445,0.67873,0.98361
208.441,63.6039,-0.22125,0.69581,0.98235
211.541,64.60435,-0.22749,0.70452,0.9811
214.641,65.6108,-0.23441,0.70943,0.97984
217.741,66.6195,-0.24471,0.72051,0.97858
220.841,67.62871,-0.25339,0.73443,0.97732
223.941,68.6319,-0.26459,0.7589,0.97606
227.041,69.63861,-0.27282,0.75115,0.97479
230.141,70.64487,-0.28636,0.776,0.97352
233.241,71.65103,-0.30341,0.77103,0.97225
236.341,72.65438,-0.31686,0.78429,0.97098
239.441,73.66587,-0.33202,0.79346,0.96971
242.541,74.67204,-0.34722,0.79803,0.96843
245.641,75.6769,-0.36712,0.79786,0.96715
248.741,76.68516,-0.38846,0.82021,0.96587
251.841,77.68945,-0.41191,0.81726,0.96458
254.941,78.6995,-0.43392,0.81364,0.96329
258.041,79.7067,-0.46126,0.82276,0.96199
261.141,80.70991,-0.49561,0.83797,0.96069
264.241,81.71081,-0.52828,0.83277,0.95939
267.341,82.71999,-0.56766,0.83817,0.95809
270.441,83.7275,-0.61026,0.859,0.95677
273.541,84.73233,-0.65886,0.88537,0.95546
276.641,85.7424,-0.70983,0.89052,0.95414
279.741,86.75318,-0.7662,0.91212,0.95281
282.841,87.76114,-0.82477,0.93652,0.95148
285.941,88.7714,-0.88597,0.97528,0.95015
289.041,89.78138,-0.95475,0.97799,0.94881
292.141,90.7953,-1.02783,0.99089,0.94746
295.241,91.8026,-1.09924,1.01328,0.94611
298.341,92.81183,-1.1814,1.03292,0.94476
301.441,93.81801,-1.26544,1.03916,0.94339
304.541,94.83113,-1.35394,1.03509,0.94202
307.641,95.84459,-1.44678,1.03716,0.94065
310.741,96.85621,-1.54047,1.02227,0.93927
313.841,97.86414,-1.6361,1.01244,0.93788
316.941,98.86867,-1.73372,1.01112,0.93649
320.041,99.87129,-1.8335,0.98439,0.93508
323.141,100.879,-1.92973,0.95672,0.93368
326.241,101.886,-2.02263,0.91528,0.93226
329.341,102.8992,-2.11002,0.85882,0.93084
332.441,103.916,-2.18869,0.80514,0.92941
335.541,104.9281,-2.25965,0.75733,0.92797
338.641,105.935,-2.32345,0.69545,0.92653
341.741,106.945,-2.37713,0.62618,0.92507
344.841,107.96,-2.41842,0.57619,0.92361
347.941,108.976,-2.45222,0.52894,0.92214
351.041,109.993,-2.48327,0.4887,0.92067
354.141,111.011,-2.50728,0.47174,0.91918
357.241,112.022,-2.52724,0.44245,0.91769
360.341,113.035,-2.5436,0.42589,0.91619
363.441,114.052,-2.55339,0.41196,0.91468
366.541,115.068,-2.56512,0.38148,0.91316
369.641,116.082,-2.57434,0.38124,0.91163
372.741,117.096,-2.58749,0.35875,0.91009
375.841,118.117,-2.59715,0.33924,0.90854
378.941,119.131,-2.60901,0.334,0.90699
382.041,120.155,-2.62216,0.32621,0.90542
385.141,121.175,-2.63415,0.32355,0.90384
388.241,122.1947,-2.64093,0.31038,0.90226
391.341,123.219,-2.65308,0.30955,0.90066
394.441,124.238,-2.66338,0.3228,0.89906
397.541,125.256,-2.67448,0.32378,0.89744
400.641,126.279,-2.68402,0.31374,0.89582
403.741,127.305,-2.69287,0.3343,0.89418
406.841,128.3302,-2.70441,0.34166,0.89254
409.941,129.351,-2.71101,0.35375,0.89088
413.041,130.378,-2.71956,0.36857,0.88922
416.141,131.404,-2.72561,0.385,0.88754
419.241,132.427,-2.73928,0.40938,0.88585
422.341,133.446,-2.74358,0.41962,0.88415
425.441,134.466,-2.75011,0.42334,0.88244
428.541,135.489,-2.75542,0.4421,0.88072
431.641,136.521,-2.76375,0.4579,0.87899
434.741,137.548,-2.7696,0.45881,0.87724
437.841,138.572,-2.77633,0.46852,0.87549
440.941,139.596,-2.77989,0.46796,0.87372
444.041,140.622,-2.7837,0.48443,0.87194
447.141,141.655,-2.78809,0.48036,0.87015
450.241,142.682,-2.79461,0.48839,0.86835
453.341,143.706,-2.79671,0.50277,0.86654
456.441,144.736,-2.80413,0.50339,0.86472
459.541,145.767,-2.80907,0.51479,0.86288
462.641,146.796,-2.81245,0.52075,0.86103
465.741,147.8248,-2.81664,0.54477,0.85917
468.841,148.853,-2.82108,0.56734,0.8573
471.941,149.88,-2.82652,0.56069,0.85541
475.041,150.898,-2.82912,0.56672,0.85351
478.141,151.931,-2.83177,0.55884,0.85161
481.241,152.968,-2.83541,0.55158,0.84968
484.341,154.001,-2.83737,0.53128,0.84775
487.441,155.0298,-2.84066,0.49631,0.8458
490.541,156.0534,-2.84459,0.50283,0.84384
493.641,157.08,-2.8468,0.48039,0.84187
496.741,158.113,-2.85238,0.49398,0.83989
499.841,159.147,-2.85611,0.47797,0.83789
502.941,160.175,-2.85799,0.46857,0.83588
506.041,161.202,-2.85996,0.4463,0.83386
509.141,162.244,-2.86095,0.44394,0.83182
512.241,163.28,-2.86455,0.39369,0.82978
515.341,164.305,-2.86621,0.38431,0.82772
518.441,165.339,-2.86687,0.38308,0.82564
521.541,166.381,-2.87148,0.39178,0.82356
524.641,167.423,-2.87357,0.38482,0.82146
527.741,168.457,-2.87496,0.39725,0.81935
530.841,169.49,-2.87773,0.3962,0.81722
533.941,170.528,-2.87902,0.43128,0.81508
537.041,171.562,-2.88069,0.41894,0.81293
540.141,172.597,-2.88398,0.44005,0.81077
543.241,173.634,-2.88563,0.42445,0.80859
546.341,174.678,-2.89024,0.44132,0.8064
549.441,175.719,-2.89288,0.43778,0.8042
552.541,176.755,-2.89488,0.44513,0.80198
555.641,177.792,-2.89488,0.44041,0.79975
558.741,178.826,-2.89847,0.44348,0.79751
561.841,179.862,-2.89978,0.44442,0.79525
564.941,180.9029,-2.89978,0.45265,0.79299
568.041,181.945,-2.90371,0.4473,0.79071
571.141,182.986,-2.90603,0.4444,0.78841
574.241,184.031,-2.90734,0.46519,0.78611
577.341,185.076,-2.90998,0.47202,0.78379
580.441,186.111,-2.90998,0.47657,0.78145
583.541,187.148,-2.9116,0.50781,0.77911
586.641,188.188,-2.91196,0.5233,0.77675
589.741,189.222,-2.91252,0.54224,0.77438
592.841,190.2592,-2.91426,0.55322,0.77199
595.941,191.301,-2.91492,0.56622,0.7696
599.041,192.3463,-2.91557,0.59332,0.76719
602.141,193.391,-2.91723,0.62415,0.76476
605.241,194.435,-2.91854,0.64721,0.76233
608.341,195.475,-2.9222,0.64956,0.75988
611.441,196.519,-2.92181,0.67555,0.75742
614.541,197.572,-2.92215,0.70348,0.75495
617.641,198.618,-2.9225,0.73176,0.75246
620.741,199.667,-2.92347,0.77618,0.74996
623.841,200.702,-2.9241,0.81159,0.74745
626.941,201.75,-2.92577,0.83166,0.74493
630.041,202.7936,-2.92709,0.85926,0.7424
633.141,203.841,-2.92908,0.85309,0.73985
636.241,204.887,-2.93071,0.83183,0.73729
639.341,205.925,-2.93174,0.85061,0.73472
642.441,206.973,-2.93232,0.85643,0.73213
645.541,208.027,-2.93236,0.85093,0.72954
648.641,209.07,-2.93071,0.86115,0.72693
651.741,210.113,-2.93228,0.86491,0.72431
654.841,211.1604,-2.9343,0.89155,0.72168
657.941,212.205,-2.9363,0.87668,0.71904
661.041,213.248,-2.93531,0.90412,0.71639
664.141,214.289,-2.93598,0.90357,0.71372
667.241,215.34,-2.93663,0.90314,0.71104
670.341,216.3889,-2.93993,0.91722,0.70835
673.441,217.431,-2.94058,0.92139,0.70565
676.541,218.4826,-2.94256,0.94324,0.70294
679.641,219.53,-2.94486,0.94984,0.70022
682.741,220.572,-2.94684,0.94766,0.69749
685.841,221.625,-2.94651,0.96108,0.69475
688.941,222.6673,-2.94712,0.935,0.69199
692.041,223.712,-2.94815,0.92921,0.68923
695.141,224.763,-2.95043,0.93551,0.68645
698.241,225.813,-2.95276,0.9169,0.68366
701.341,226.862,-2.95275,0.90432,0.68087
704.441,227.91,-2.95436,0.89863,0.67806
707.541,228.953,-2.95473,0.88392,0.67524
710.641,230.012,-2.95545,0.89082,0.67242
713.741,231.065,-2.95572,0.90631,0.66958
716.841,232.109,-2.95571,0.88818,0.66673
719.941,233.164,-2.95737,0.89949,0.66388
723.041,234.215,-2.96031,0.88028,0.66101
726.141,235.26,-2.96132,0.87269,0.65813
729.241,236.31,-2.96065,0.85602,0.65525
732.341,237.362,-2.96328,0.86717,0.65236
735.441,238.401,-2.96427,0.84726,0.64945
738.541,239.449,-2.96397,0.82982,0.64654
741.641,240.511,-2.96574,0.82269,0.64362
744.741,241.559,-2.96579,0.82395,0.64069
747.841,242.6123,-2.96821,0.81203,0.63775
750.941,243.663,-2.97148,0.81214,0.6348
754.041,244.713,-2.97053,0.79492,0.63185
757.141,245.765,-2.97119,0.80766,0.62889
760.241,246.816,-2.97349,0.79837,0.62592
763.341,247.868,-2.97316,0.81541,0.62294
766.441,248.916,-2.97214,0.79981,0.61995
769.541,249.97,-2.97479,0.80088,0.61695
772.641,251.0291,-2.97612,0.78981,0.61395
775.741,252.076,-2.97875,0.81038,0.61094
778.841,253.121,-2.97919,0.83923,0.60793
781.941,254.177,-2.98072,0.85297,0.6049
785.041,255.232,-2.98235,0.88419,0.60187
788.141,256.281,-2.98427,0.89732,0.59884
791.241,257.336,-2.98566,0.89539,0.59579
794.341,258.382,-2.98965,0.90367,0.59274
797.441,259.434,-2.9906,0.91888,0.58969
799.041,259.981,-2.98961,0.9004,0.58811