Folder: fsri_materials_database/01_Data/Window_Screen/Cone

Note: README.md
# Materials and Products Database
### Repository of materials and products properties and fire test data to improve fire modeling and fire investigation.

This project was supported in part by Award No. 2019-DU-BX-0018, awarded by the National Institute of Justice, Office of Justice Programs, U.S. Department of Justice. The opinions, findings, and conclusions or recommendations expressed in this publication / program / exhibition are those of the author(s) and do not necessarily reflect those of the Department of Justice.

***
***

__Cite this database:__ "McKinnon, M., Weinschenk, C., Dow, N., DiDomizio, M., and Madrzykowski, D. Materials and Products Database (Version 1.0.0), Fire Safety Research Institute, UL Research Institutes. Columbia, MD 21045, 2023."

__Cite the Technical Reference Guide:__ "McKinnon, M., Weinschenk, C., and Madrzykowski, D. Materials and Products Database - Technical Reference Guide, Fire Safety Research Institute, UL Research Institutes. Columbia, MD 21045, 2023."

__Cite the User Guide:__ "McKinnon, M., and Weinschenk, C. Materials and Products Database - User Guide, Fire Safety Research Institute, UL Research Institutes. Columbia, MD 21045, 2023."

***
***

## Database Structure

## 01_Data/
Raw data generated from each apparatus are included here in plain-text format. The data is organized first by material, next by the short name of test apparatus used, and where applicable additional filtering by test settings.

### Test Apparatus and Data File Structure
- __Cone Calorimeter__ (Cone)
    + Data file structure includes the material, the short name for the apparatus, heat flux setting and scan/scalar, date of test, and replicate number. Scan is for the raw output data and scalar is for the initial conditions and high-level test parameters. 
        * Example: __MDF_Cone_HF25scalar_210323_R1__ stands for the first replicate of scalar data generated from a medium density fiber board test in cone calorimeter exposed to 25 kW/m<sup>2</sup> on March 23, 2021.
    + A _Cone_Notes.csv_ is generated for each material from the __plot_Cone_data.py__ script. For materials whose experiments deviated from typical behavior relevant pictures are included in the respective material directory.
- __Fourier Transform Infrared Spectrometer__ (FTIR)
    + The FTIR directory contains subdirectories for the Attenuated Total Reflectance method (ATR) and the Integrating Sphere (IS)
    + Data file structure for the ATR experiment files includes the material, the abbreviated name for the apparatus, date of test, and replicate number. 
        * Example: __MDF_ATR_210323_R5__ stands for the fifth replicate of data collected with the ATR accessory conducted on June 8, 2021.
    + Data file structure for the IS experiment files includes the material, the abbreviated name for the apparatus, the measurand, whether the test is a sample measurement or standard reference, date of test, and replicate number.
        * Example: __OSB_IS_REFLECT_MEAS_2

File: Window_Screen_HRRPUA_25.csv
Time after Ignition,Window_Screen_R1,Window_Screen_R2,Window_Screen_R3,Window_Screen_R4,Mean,Std. Dev.
0.0,60.5,17.9,32.0,20.5,32.7,19.5
0.25,66.7,21.2,35.3,25.4,37.1,20.6
0.5,71.4,24.1,39.1,29.7,41.1,21.2
0.75,80.2,28.6,42.3,33.5,46.1,23.4
1.0,85.0,32.3,45.7,37.1,50.0,24.0
1.25,89.4,35.4,48.8,41.6,53.8,24.4
1.5,94.0,39.4,49.8,44.5,56.9,25.1
1.75,97.1,42.5,53.1,47.4,60.0,25.1
2.0,101.0,44.8,54.4,50.8,62.7,25.8
2.25,105.0,46.9,56.8,52.5,65.3,26.8
2.5,106.3,49.4,56.8,54.6,66.8,26.5
2.75,109.7,51.2,59.3,57.0,69.3,27.1
3.0,114.6,53.2,60.3,58.3,71.6,28.8
3.25,114.4,55.7,61.7,60.3,73.0,27.7
3.5,115.1,56.8,61.9,61.7,73.9,27.6
3.75,119.7,56.8,63.5,63.2,75.8,29.4
4.0,117.0,59.2,64.5,64.8,76.3,27.2
4.25,113.8,58.5,66.1,66.5,76.2,25.3
4.5,113.0,59.3,64.7,65.9,75.7,25.0
4.75,111.7,58.0,65.0,64.7,74.8,24.8
5.0,107.6,58.7,65.0,63.7,73.7,22.7
5.25,102.1,57.9,63.5,63.7,71.8,20.4
5.5,97.9,56.3,61.8,63.7,69.9,18.9
5.75,94.8,55.7,58.9,63.0,68.1,18.1
6.0,92.3,54.1,55.7,60.7,65.7,17.9
6.25,80.9,54.0,53.9,59.0,62.0,12.8
6.5,81.5,50.7,51.5,56.4,60.0,14.5
6.75,77.3,49.5,48.9,54.9,57.6,13.4

File: Window_Screen_HRRPUA_50.csv
Time after Ignition,Window_Screen_R1,Window_Screen_R2,Window_Screen_R3,Mean,Std. Dev.
0.0,47.7,24.0,49.6,40.4,14.3
0.25,52.9,29.0,54.2,45.4,14.2
0.5,55.1,34.0,59.8,49.6,13.7
0.75,59.5,38.6,63.6,53.9,13.4
1.0,61.8,41.9,67.3,57.0,13.3
1.25,65.4,46.1,71.3,60.9,13.2
1.5,68.5,49.7,73.2,63.8,12.4
1.75,71.9,53.8,77.8,67.8,12.5
2.0,72.7,57.7,78.2,69.5,10.6
2.25,75.2,58.3,82.6,72.0,12.4
2.5,77.2,61.0,79.7,72.6,10.2
2.75,78.4,64.4,79.1,73.9,8.3
3.0,82.0,65.6,78.5,75.4,8.6
3.25,82.0,67.6,78.7,76.1,7.6
3.5,79.1,69.7,78.3,75.7,5.2
3.75,78.4,70.8,78.0,75.8,4.3
4.0,77.9,72.5,74.8,75.0,2.7
4.25,74.4,71.1,72.1,72.5,1.7
4.5,73.9,68.6,69.0,70.5,2.9
4.75,73.0,67.2,68.0,69.4,3.1
5.0,70.1,65.5,65.5,67.0,2.7
5.25,66.7,61.5,63.2,63.8,2.6
5.5,63.9,58.5,59.3,60.6,2.9
5.75,61.2,56.6,57.8,58.5,2.4
6.0,58.8,54.0,55.5,56.1,2.5
6.25,55.5,50.9,52.3,52.9,2.4

File: Window_Screen_HRRPUA_75.csv
Time after Ignition,Window_Screen_R1,Window_Screen_R2,Window_Screen_R3,Mean,Std. Dev.
0.0,40.2,48.7,60.7,49.8,10.3
0.25,46.0,54.5,67.8,56.1,11.0
0.5,50.3,60.2,72.7,61.1,11.3
0.75,54.4,65.4,78.2,66.0,11.9
1.0,58.9,69.1,83.3,70.4,12.3
1.25,62.0,74.4,88.3,74.9,13.2
1.5,66.0,77.7,92.8,78.8,13.4
1.75,69.2,80.8,97.1,82.4,14.0
2.0,71.9,85.2,101.6,86.2,14.9
2.25,75.6,88.2,104.9,89.6,14.7
2.5,76.7,91.1,103.1,90.3,13.2
2.75,78.9,90.5,100.0,89.8,10.6
3.0,81.2,88.4,99.4,89.7,9.2
3.25,78.3,87.3,98.9,88.2,10.3
3.5,78.4,86.9,93.2,86.2,7.5
3.75,75.6,84.0,90.7,83.4,7.6
4.0,74.1,82.4,87.1,81.2,6.6
4.25,71.2,79.7,84.4,78.4,6.7
4.5,67.5,77.8,79.3,74.9,6.4
4.75,65.1,75.8,76.1,72.3,6.3
5.0,63.2,75.0,71.4,69.9,6.1
5.25,61.3,73.2,69.1,67.9,6.1
5.5,58.3,71.2,65.5,65.0,6.4