Folder: fsri_materials_database/01_Data/Cotton_Rug/FTIR/IS

Note: README.md
# Materials and Products Database
### Repository of materials and products properties and fire test data to improve fire modeling and fire investigation.

This project was supported in part by Award No. 2019-DU-BX-0018, awarded by the National Institute of Justice, Office of Justice Programs, U.S. Department of Justice. The opinions, findings, and conclusions or recommendations expressed in this publication / program / exhibition are those of the author(s) and do not necessarily reflect those of the Department of Justice.

***
***

__Cite this database:__ "McKinnon, M., Weinschenk, C., Dow, N., DiDomizio, M., and Madrzykowski, D. Materials and Products Database (Version 1.0.0), Fire Safety Research Institute, UL Research Institutes. Columbia, MD 21045, 2023."

__Cite the Technical Reference Guide:__ "McKinnon, M., Weinschenk, C., and Madrzykowski, D. Materials and Products Database - Technical Reference Guide, Fire Safety Research Institute, UL Research Institutes. Columbia, MD 21045, 2023."

__Cite the User Guide:__ "McKinnon, M., and Weinschenk, C. Materials and Products Database - User Guide, Fire Safety Research Institute, UL Research Institutes. Columbia, MD 21045, 2023."

***
***

## Database Structure

## 01_Data/
Raw data generated from each apparatus are included here in plain-text format. The data is organized first by material, next by the short name of test apparatus used, and where applicable additional filtering by test settings.

### Test Apparatus and Data File Structure
- __Cone Calorimeter__ (Cone)
    + Data file structure includes the material, the short name for the apparatus, heat flux setting and scan/scalar, date of test, and replicate number. Scan is for the raw output data and scalar is for the initial conditions and high-level test parameters. 
        * Example: __MDF_Cone_HF25scalar_210323_R1__ stands for the first replicate of scalar data generated from a medium density fiber board test in cone calorimeter exposed to 25 kW/m<sup>2</sup> on March 23, 2021.
    + A _Cone_Notes.csv_ is generated for each material from the __plot_Cone_data.py__ script. For materials whose experiments deviated from typical behavior relevant pictures are included in the respective material directory.
- __Fourier Transform Infrared Spectrometer__ (FTIR)
    + The FTIR directory contains subdirectories for the Attenuated Total Reflectance method (ATR) and the Integrating Sphere (IS)
    + Data file structure for the ATR experiment files includes the material, the abbreviated name for the apparatus, date of test, and replicate number. 
        * Example: __MDF_ATR_210323_R5__ stands for the fifth replicate of data collected with the ATR accessory conducted on June 8, 2021.
    + Data file structure for the IS experiment files includes the material, the abbreviated name for the apparatus, the measurand, whether the test is a sample measurement or standard reference, date of test, and replicate number.
        * Example: __OSB_IS_REFLECT_MEAS_2

File: Cotton_Rug_IS_S_220822_R1.dpt
7497.03,0.68504
7473.89,0.67476
7450.74,0.67797
7427.6,0.67448
7404.45,0.66149
7381.31,0.66332
7358.16,0.65752
7335.02,0.64919
7311.87,0.64775
7288.73,0.63826
7265.58,0.64033
7242.44,0.64377
7219.29,0.63994
7196.15,0.63693
7173,0.63964
7149.86,0.62712
7126.71,0.63080
7103.57,0.61283
7080.42,0.59344
7057.28,0.59155
7034.13,0.58078
7010.99,0.57381
6987.84,0.56373
6964.7,0.55743
6941.55,0.54988
6918.41,0.54587
6895.26,0.54048
6872.12,0.53929
6848.97,0.53521
6825.83,0.52948
6802.68,0.52760
6779.54,0.51752
6756.39,0.51679
6733.25,0.51474
6710.1,0.51409
6686.96,0.51825
6663.82,0.51540
6640.67,0.52682
6617.53,0.52302
6594.38,0.53171
6571.24,0.53015
6548.09,0.53102
6524.95,0.53082
6501.8,0.53114
6478.66,0.52974
6455.51,0.53011
6432.37,0.53347
6409.22,0.53338
6386.08,0.53623
6362.93,0.53682
6339.79,0.53794
6316.64,0.54214
6293.5,0.53794
6270.35,0.54531
6247.21,0.55261
6224.06,0.55741
6200.92,0.56132
6177.77,0.57094
6154.63,0.57676
6131.48,0.57879
6108.34,0.57644
6085.19,0.56995
6062.05,0.56505
6038.9,0.54917
6015.76,0.54191
5992.61,0.56076
5969.47,0.56802
5946.32,0.57354
5923.18,0.58009
5900.03,0.58291
5876.89,0.57104
5853.74,0.56846
5830.6,0.56899
5807.45,0.56807
5784.31,0.56617
5761.16,0.56540
5738.02,0.57207
5714.87,0.57159
5691.73,0.57112
5668.58,0.56841
5645.44,0.57098
5622.29,0.57296
5599.15,0.57355
5576,0.57401
5552.86,0.57282
5529.71,0.57323
5506.57,0.57445
5483.42,0.57451
5460.28,0.57452
5437.13,0.58019
5413.99,0.58485
5390.84,0.58818
5367.7,0.58886
5344.55,0.58526
5321.41,0.58118
5298.26,0.56693
5275.12,0.54120
5251.97,0.50814
5228.83,0.48539
5205.68,0.47051
5182.54,0.46728
5159.39,0.46721
5136.25,0.47416
5113.1,0.48210
5089.96,0.49393
5066.81,0.50307
5043.67,0.51159
5020.52,0.51672
4997.38,0.52272
4974.23,0.52215
4951.09,0.51569
4927.94,0.50404
4904.8,0.48675
4881.65,0.46582
4858.51,0.44674
4835.36,0.43154
4812.22,0.41571
4789.07,0.40513
4765.93,0.40192
4742.78,0.39662
4719.64,0.39593
4696.49,0.39643
4673.35,0.41132
4650.2,0.42114
4627.06,0.42477
4603.92,0.44236
4580.77,0.44399
4557.63,0.46131
4534.48,0.46697
4511.34,0.46766
4488.19,0.45332
4465.05,0.43147
4441.9,0.40423
4418.76,0.38468
4395.61,0.37148
4372.47,0.38564
4349.32,0.38226
4326.18,0.36934
4303.03,0.35564
4279.89,0.34593
4256.74,0.34827
4233.6,0.35198
4210.45,0.35839
4187.31,0.36227
4164.16,0.36603
4141.02,0.36298
4117.87,0.35043
4094.73,0.31690
4071.58,0.31199
4048.44,0.29509
4025.29,0.28434
4002.15,0.28810
3979,0.29679
3955.86,0.30526
3932.71,0.31728
3909.57,0.32679
3886.42,0.33789
3863.28,0.34827
3840.13,0.35933
3816.99,0.35953
3793.84,0.35917
3770.7,0.35555
3747.55,0.34973
3724.41,0.33595
3701.26,0.30547
3678.12,0.25050
3654.97,0.18139
3631.83,0.12940
3608.68,0.09720
3585.54,0.07532
3562.39,0.06013
3539.25,0.05093
3516.1,0.04573
3492.96,0.04212
3469.81,0.03994
3446.67,0.03640
3423.52,0.03543
3400.38,0.03850
3377.23,0.03854
3354.09,0.04026
3330.94,0.04217
3307.8,0.04224
3284.65,0.04327
3261.51,0.04600
3238.36,0.04829
3215.22,0.05165
3192.07,0.05561
3168.93,0.06022
3145.78,0.06610
3122.64,0.07137
3099.49,0.07700
3076.35,0.08346
3053.2,0.09009
3030.06,0.10226
3006.91,0.09774
2983.77,0.08239
2960.62,0.05917
2937.48,0.05833
2914.33,0.04664
2891.19,0.04965
2868.04,0.05837
2844.9,0.07338
2821.75,0.09776
2798.61,0.11405
2775.46,0.12376
2752.32,0.12808
2729.17,0.13049
2706.03,0.14077
2682.88,0.15495
2659.74,0.16383
2636.59,0.17047
2613.45,0.17866
2590.3,0.18351
2567.16,0.18513
2544.02,0.18236
2520.87,0.18636
2497.73,0.19903
2474.58,0.21431
2451.44,0.22303
2428.29,0.23080
2405.15,0.23389
2382,0.23948
2358.86,0.25508
2335.71,0.26778
2312.57,0.27522
2289.42,0.26197
2266.28,0.25208
2243.13,0.22486
2219.99,0.25088
2196.84,0.25594
2173.7,0.24028
2150.55,0.21966
2127.41,0.21133
2104.26,0.21734
2081.12,0.22891
2057.97,0.23958
2034.83,0.24805
2011.68,0.25932
1988.54,0.25521
1965.39,0.23969
1942.25,0.25707
1919.1,0.28460
1895.96,0.29463
1872.81,0.29019
1849.67,0.26308
1826.52,0.22938
1803.38,0.21603
1780.23,0.19265
1757.09,0.14052
1733.94,0.08574
1710.8,0.09281
1687.65,0.09893
1664.51,0.09301
1641.36,0.09082
1618.22,0.09875
1595.07,0.11996
1571.93,0.12065
1548.78,0.13187
1525.64,0.12171
1502.49,0.08649
1479.35,0.06427
1456.2,0.03811
1433.06,0.03589
1409.91,0.03327
1386.77,0.03465
1363.62,0.02815
1340.48,0.02716
1317.33,0.02571
1294.19,0.03066
1271.04,0.03879
1247.9,0.03833
1224.75,0.04077
1201.61,0.04001
1178.46,0.03386
1155.32,0.02883
1132.17,0.02056
1109.03,0.02590
1085.88,0.02731
1062.74,0.04982
1039.59,0.03926
1016.45,0.03850
993.304,0.05500
970.159,0.07024
947.014,0.12294
923.869,0.13000
900.724,0.08792
877.579,0.09822
854.434,0.10596
831.289,0.11390
808.144,0.10435
784.999,0.09214
761.854,0.08347
738.709,0.04580
715.565,0.05563
692.42,0.06251
669.275,0.05536
646.13,0.05828
622.985,0.05159
599.84,0.05415

File: Cotton_Rug_IS_S_220822_R2.dpt
7497.03,0.68184
7473.89,0.67538
7450.74,0.68096
7427.6,0.66952
7404.45,0.66674
7381.31,0.65776
7358.16,0.65906
7335.02,0.64817
7311.87,0.64489
7288.73,0.63899
7265.58,0.64564
7242.44,0.64391
7219.29,0.63998
7196.15,0.63840
7173,0.63754
7149.86,0.63862
7126.71,0.62949
7103.57,0.61378
7080.42,0.61043
7057.28,0.59293
7034.13,0.57886
7010.99,0.57165
6987.84,0.56012
6964.7,0.55704
6941.55,0.54894
6918.41,0.55030
6895.26,0.54880
6872.12,0.54137
6848.97,0.53621
6825.83,0.53058
6802.68,0.53140
6779.54,0.52466
6756.39,0.52175
6733.25,0.52318
6710.1,0.51968
6686.96,0.51512
6663.82,0.52069
6640.67,0.52456
6617.53,0.52516
6594.38,0.53043
6571.24,0.53152
6548.09,0.53490
6524.95,0.53613
6501.8,0.52902
6478.66,0.53456
6455.51,0.53527
6432.37,0.53997
6409.22,0.53663
6386.08,0.53856
6362.93,0.54258
6339.79,0.54141
6316.64,0.54134
6293.5,0.54383
6270.35,0.54845
6247.21,0.55547
6224.06,0.56203
6200.92,0.56479
6177.77,0.57040
6154.63,0.57748
6131.48,0.57981
6108.34,0.57838
6085.19,0.57133
6062.05,0.56295
6038.9,0.55447
6015.76,0.54261
5992.61,0.56320
5969.47,0.57152
5946.32,0.57692
5923.18,0.57993
5900.03,0.58274
5876.89,0.57402
5853.74,0.57062
5830.6,0.56985
5807.45,0.56652
5784.31,0.56526
5761.16,0.56870
5738.02,0.57004
5714.87,0.57277
5691.73,0.57113
5668.58,0.57087
5645.44,0.57132
5622.29,0.57395
5599.15,0.57616
5576,0.57525
5552.86,0.57492
5529.71,0.57438
5506.57,0.57671
5483.42,0.57673
5460.28,0.57804
5437.13,0.58409
5413.99,0.59040
5390.84,0.59203
5367.7,0.59102
5344.55,0.59083
5321.41,0.58349
5298.26,0.57250
5275.12,0.54648
5251.97,0.51545
5228.83,0.49290
5205.68,0.48139
5182.54,0.47652
5159.39,0.47764
5136.25,0.48566
5113.1,0.49132
5089.96,0.50297
5066.81,0.51319
5043.67,0.52002
5020.52,0.52599
4997.38,0.52932
4974.23,0.52775
4951.09,0.52073
4927.94,0.50821
4904.8,0.48961
4881.65,0.46783
4858.51,0.44885
4835.36,0.43253
4812.22,0.41637
4789.07,0.40629
4765.93,0.40108
4742.78,0.39784
4719.64,0.39655
4696.49,0.39732
4673.35,0.41178
4650.2,0.42218
4627.06,0.42553
4603.92,0.44333
4580.77,0.44510
4557.63,0.46142
4534.48,0.47016
4511.34,0.46857
4488.19,0.45396
4465.05,0.43233
4441.9,0.40590
4418.76,0.38533
4395.61,0.37210
4372.47,0.38632
4349.32,0.38254
4326.18,0.37104
4303.03,0.35638
4279.89,0.34591
4256.74,0.34976
4233.6,0.35263
4210.45,0.35884
4187.31,0.36341
4164.16,0.36760
4141.02,0.36464
4117.87,0.35250
4094.73,0.31832
4071.58,0.31329
4048.44,0.29691
4025.29,0.28546
4002.15,0.28937
3979,0.29846
3955.86,0.30702
3932.71,0.31771
3909.57,0.32878
3886.42,0.33979
3863.28,0.34987
3840.13,0.36158
3816.99,0.36302
3793.84,0.36285
3770.7,0.35940
3747.55,0.35415
3724.41,0.34194
3701.26,0.31284
3678.12,0.26059
3654.97,0.19067
3631.83,0.13754
3608.68,0.10339
3585.54,0.07900
3562.39,0.06265
3539.25,0.05303
3516.1,0.04716
3492.96,0.04323
3469.81,0.04022
3446.67,0.03606
3423.52,0.03533
3400.38,0.03882
3377.23,0.04001
3354.09,0.04035
3330.94,0.04182
3307.8,0.04290
3284.65,0.04361
3261.51,0.04662
3238.36,0.04850
3215.22,0.05276
3192.07,0.05657
3168.93,0.06182
3145.78,0.06758
3122.64,0.07337
3099.49,0.07916
3076.35,0.08582
3053.2,0.09247
3030.06,0.10548
3006.91,0.10084
2983.77,0.08388
2960.62,0.05949
2937.48,0.05785
2914.33,0.04670
2891.19,0.05076
2868.04,0.05829
2844.9,0.07368
2821.75,0.09810
2798.61,0.11510
2775.46,0.12479
2752.32,0.12926
2729.17,0.13130
2706.03,0.14151
2682.88,0.15579
2659.74,0.16472
2636.59,0.17132
2613.45,0.17907
2590.3,0.18461
2567.16,0.18611
2544.02,0.18297
2520.87,0.18740
2497.73,0.20049
2474.58,0.21540
2451.44,0.22396
2428.29,0.23203
2405.15,0.23527
2382,0.24127
2358.86,0.25682
2335.71,0.26997
2312.57,0.27749
2289.42,0.26424
2266.28,0.25495
2243.13,0.22726
2219.99,0.25408
2196.84,0.25939
2173.7,0.24384
2150.55,0.22275
2127.41,0.21403
2104.26,0.22009
2081.12,0.23211
2057.97,0.24247
2034.83,0.25155
2011.68,0.26261
1988.54,0.25747
1965.39,0.24208
1942.25,0.25907
1919.1,0.28807
1895.96,0.29792
1872.81,0.29346
1849.67,0.26543
1826.52,0.23098
1803.38,0.21816
1780.23,0.19432
1757.09,0.14175
1733.94,0.08669
1710.8,0.09406
1687.65,0.10198
1664.51,0.09693
1641.36,0.09520
1618.22,0.10184
1595.07,0.12331
1571.93,0.12236
1548.78,0.13380
1525.64,0.12354
1502.49,0.08752
1479.35,0.06485
1456.2,0.03807
1433.06,0.03587
1409.91,0.03352
1386.77,0.03477
1363.62,0.02839
1340.48,0.02683
1317.33,0.02572
1294.19,0.03086
1271.04,0.03851
1247.9,0.03785
1224.75,0.04052
1201.61,0.04023
1178.46,0.03346
1155.32,0.02892
1132.17,0.02047
1109.03,0.02556
1085.88,0.02605
1062.74,0.04922
1039.59,0.03993
1016.45,0.03929
993.304,0.05452
970.159,0.07029
947.014,0.12309
923.869,0.13122
900.724,0.08946
877.579,0.10000
854.434,0.10922
831.289,0.11739
808.144,0.10761
784.999,0.09504
761.854,0.08607
738.709,0.04803
715.565,0.05615
692.42,0.06337
669.275,0.05638
646.13,0.05747
622.985,0.05181
599.84,0.05455

File: Cotton_Rug_IS_S_220822_R3.dpt
7497.03,0.68214
7473.89,0.69068
7450.74,0.67646
7427.6,0.66852
7404.45,0.67039
7381.31,0.67193
7358.16,0.65299
7335.02,0.64867
7311.87,0.65570
7288.73,0.64834
7265.58,0.64438
7242.44,0.64525
7219.29,0.64620
7196.15,0.64581
7173,0.64091
7149.86,0.63345
7126.71,0.62176
7103.57,0.62897
7080.42,0.60858
7057.28,0.59472
7034.13,0.58416
7010.99,0.57225
6987.84,0.56685
6964.7,0.56039
6941.55,0.55682
6918.41,0.54934
6895.26,0.54734
6872.12,0.53901
6848.97,0.54149
6825.83,0.53436
6802.68,0.53259
6779.54,0.52059
6756.39,0.52733
6733.25,0.52170
6710.1,0.52169
6686.96,0.51766
6663.82,0.52882
6640.67,0.52648
6617.53,0.53276
6594.38,0.53752
6571.24,0.53328
6548.09,0.53582
6524.95,0.53939
6501.8,0.53270
6478.66,0.53742
6455.51,0.53655
6432.37,0.54250
6409.22,0.53681
6386.08,0.53977
6362.93,0.54051
6339.79,0.54205
6316.64,0.54161
6293.5,0.54950
6270.35,0.54886
6247.21,0.55509
6224.06,0.56336
6200.92,0.57129
6177.77,0.58044
6154.63,0.57881
6131.48,0.58163
6108.34,0.58464
6085.19,0.57575
6062.05,0.56399
6038.9,0.55408
6015.76,0.54552
5992.61,0.56636
5969.47,0.57201
5946.32,0.57750
5923.18,0.58423
5900.03,0.58776
5876.89,0.57799
5853.74,0.57294
5830.6,0.57383
5807.45,0.57016
5784.31,0.56986
5761.16,0.57025
5738.02,0.57366
5714.87,0.57527
5691.73,0.57620
5668.58,0.57319
5645.44,0.57637
5622.29,0.57685
5599.15,0.57728
5576,0.57810
5552.86,0.57713
5529.71,0.57987
5506.57,0.57748
5483.42,0.57877
5460.28,0.58256
5437.13,0.58692
5413.99,0.59193
5390.84,0.59657
5367.7,0.59591
5344.55,0.59253
5321.41,0.58922
5298.26,0.57794
5275.12,0.55630
5251.97,0.52446
5228.83,0.50243
5205.68,0.49265
5182.54,0.48712
5159.39,0.48862
5136.25,0.49464
5113.1,0.50078
5089.96,0.51236
5066.81,0.52207
5043.67,0.52812
5020.52,0.53391
4997.38,0.53695
4974.23,0.53471
4951.09,0.52656
4927.94,0.51202
4904.8,0.49205
4881.65,0.47110
4858.51,0.45070
4835.36,0.43405
4812.22,0.41744
4789.07,0.40796
4765.93,0.40525
4742.78,0.40066
4719.64,0.39741
4696.49,0.39840
4673.35,0.41378
4650.2,0.42416
4627.06,0.42742
4603.92,0.44639
4580.77,0.44754
4557.63,0.46465
4534.48,0.47151
4511.34,0.47114
4488.19,0.45569
4465.05,0.43422
4441.9,0.40704
4418.76,0.38656
4395.61,0.37424
4372.47,0.38702
4349.32,0.38371
4326.18,0.37220
4303.03,0.35760
4279.89,0.34768
4256.74,0.35134
4233.6,0.35500
4210.45,0.35999
4187.31,0.36581
4164.16,0.37021
4141.02,0.36713
4117.87,0.35482
4094.73,0.32043
4071.58,0.31489
4048.44,0.29748
4025.29,0.28610
4002.15,0.29039
3979,0.30006
3955.86,0.30893
3932.71,0.32061
3909.57,0.33163
3886.42,0.34162
3863.28,0.35329
3840.13,0.36548
3816.99,0.36639
3793.84,0.36753
3770.7,0.36413
3747.55,0.36006
3724.41,0.34719
3701.26,0.31904
3678.12,0.26856
3654.97,0.20125
3631.83,0.14656
3608.68,0.10970
3585.54,0.08291
3562.39,0.06557
3539.25,0.05453
3516.1,0.04800
3492.96,0.04415
3469.81,0.04049
3446.67,0.03728
3423.52,0.03567
3400.38,0.03821
3377.23,0.03964
3354.09,0.04063
3330.94,0.04189
3307.8,0.04210
3284.65,0.04426
3261.51,0.04656
3238.36,0.04880
3215.22,0.05326
3192.07,0.05799
3168.93,0.06322
3145.78,0.06882
3122.64,0.07554
3099.49,0.08102
3076.35,0.08840
3053.2,0.09488
3030.06,0.10778
3006.91,0.10241
2983.77,0.08465
2960.62,0.05995
2937.48,0.05818
2914.33,0.04686
2891.19,0.05064
2868.04,0.05827
2844.9,0.07460
2821.75,0.09935
2798.61,0.11591
2775.46,0.12611
2752.32,0.13043
2729.17,0.13323
2706.03,0.14263
2682.88,0.15655
2659.74,0.16622
2636.59,0.17292
2613.45,0.18088
2590.3,0.18602
2567.16,0.18720
2544.02,0.18460
2520.87,0.18849
2497.73,0.20175
2474.58,0.21684
2451.44,0.22582
2428.29,0.23330
2405.15,0.23692
2382,0.24309
2358.86,0.25897
2335.71,0.27284
2312.57,0.28009
2289.42,0.26742
2266.28,0.25771
2243.13,0.22938
2219.99,0.25742
2196.84,0.26282
2173.7,0.24718
2150.55,0.22579
2127.41,0.21695
2104.26,0.22307
2081.12,0.23494
2057.97,0.24559
2034.83,0.25507
2011.68,0.26600
1988.54,0.26094
1965.39,0.24461
1942.25,0.26220
1919.1,0.29163
1895.96,0.30149
1872.81,0.29698
1849.67,0.26870
1826.52,0.23331
1803.38,0.22070
1780.23,0.19649
1757.09,0.14284
1733.94,0.08733
1710.8,0.09576
1687.65,0.10461
1664.51,0.10044
1641.36,0.09851
1618.22,0.10585
1595.07,0.12587
1571.93,0.12444
1548.78,0.13578
1525.64,0.12498
1502.49,0.08804
1479.35,0.06492
1456.2,0.03829
1433.06,0.03583
1409.91,0.03329
1386.77,0.03462
1363.62,0.02809
1340.48,0.02721
1317.33,0.02559
1294.19,0.03078
1271.04,0.03851
1247.9,0.03746
1224.75,0.04048
1201.61,0.04004
1178.46,0.03355
1155.32,0.02856
1132.17,0.02063
1109.03,0.02596
1085.88,0.02649
1062.74,0.04980
1039.59,0.03974
1016.45,0.03926
993.304,0.05500
970.159,0.07023
947.014,0.12410
923.869,0.13310
900.724,0.09046
877.579,0.10099
854.434,0.11097
831.289,0.12084
808.144,0.11095
784.999,0.09796
761.854,0.08874
738.709,0.04920
715.565,0.05540
692.42,0.06371
669.275,0.05657
646.13,0.05857
622.985,0.05262
599.84,0.05728

File: Cotton_Rug_IS_S_220822_R4.dpt
7497.03,0.68085
7473.89,0.68094
7450.74,0.68773
7427.6,0.67964
7404.45,0.66018
7381.31,0.66053
7358.16,0.65934
7335.02,0.65009
7311.87,0.64769
7288.73,0.64472
7265.58,0.65007
7242.44,0.64630
7219.29,0.65044
7196.15,0.63920
7173,0.64812
7149.86,0.63471
7126.71,0.62896
7103.57,0.62880
7080.42,0.61659
7057.28,0.59642
7034.13,0.59253
7010.99,0.57203
6987.84,0.56349
6964.7,0.55877
6941.55,0.55832
6918.41,0.55163
6895.26,0.55277
6872.12,0.54675
6848.97,0.54122
6825.83,0.53827
6802.68,0.52817
6779.54,0.52505
6756.39,0.52584
6733.25,0.52669
6710.1,0.52418
6686.96,0.52409
6663.82,0.52738
6640.67,0.52877
6617.53,0.53156
6594.38,0.53625
6571.24,0.53619
6548.09,0.53893
6524.95,0.53827
6501.8,0.54039
6478.66,0.53755
6455.51,0.53975
6432.37,0.54381
6409.22,0.54201
6386.08,0.54109
6362.93,0.54423
6339.79,0.54285
6316.64,0.54266
6293.5,0.55001
6270.35,0.55215
6247.21,0.55665
6224.06,0.56251
6200.92,0.56720
6177.77,0.57539
6154.63,0.58095
6131.48,0.58409
6108.34,0.58695
6085.19,0.57556
6062.05,0.56914
6038.9,0.55632
6015.76,0.54666
5992.61,0.56919
5969.47,0.57781
5946.32,0.57757
5923.18,0.58478
5900.03,0.58986
5876.89,0.57842
5853.74,0.57411
5830.6,0.57488
5807.45,0.57357
5784.31,0.57041
5761.16,0.57213
5738.02,0.57512
5714.87,0.57458
5691.73,0.57659
5668.58,0.57716
5645.44,0.57730
5622.29,0.57744
5599.15,0.58057
5576,0.57825
5552.86,0.58178
5529.71,0.58128
5506.57,0.58141
5483.42,0.58064
5460.28,0.58195
5437.13,0.58621
5413.99,0.59413
5390.84,0.59679
5367.7,0.59905
5344.55,0.59597
5321.41,0.59331
5298.26,0.58229
5275.12,0.56431
5251.97,0.53881
5228.83,0.51608
5205.68,0.50546
5182.54,0.50288
5159.39,0.50357
5136.25,0.50797
5113.1,0.51530
5089.96,0.52498
5066.81,0.53493
5043.67,0.53957
5020.52,0.54451
4997.38,0.54488
4974.23,0.54202
4951.09,0.53265
4927.94,0.51666
4904.8,0.49478
4881.65,0.47074
4858.51,0.45258
4835.36,0.43440
4812.22,0.41819
4789.07,0.40842
4765.93,0.40556
4742.78,0.40156
4719.64,0.39972
4696.49,0.40015
4673.35,0.41443
4650.2,0.42461
4627.06,0.42965
4603.92,0.44676
4580.77,0.44854
4557.63,0.46670
4534.48,0.47263
4511.34,0.47176
4488.19,0.45695
4465.05,0.43533
4441.9,0.40670
4418.76,0.38737
4395.61,0.37460
4372.47,0.38744
4349.32,0.38483
4326.18,0.37251
4303.03,0.35834
4279.89,0.34856
4256.74,0.35096
4233.6,0.35517
4210.45,0.36175
4187.31,0.36702
4164.16,0.37030
4141.02,0.36853
4117.87,0.35568
4094.73,0.32140
4071.58,0.31556
4048.44,0.29982
4025.29,0.28759
4002.15,0.29190
3979,0.30135
3955.86,0.31054
3932.71,0.32288
3909.57,0.33347
3886.42,0.34480
3863.28,0.35601
3840.13,0.36850
3816.99,0.37025
3793.84,0.37118
3770.7,0.36966
3747.55,0.36626
3724.41,0.35528
3701.26,0.32789
3678.12,0.28189
3654.97,0.21716
3631.83,0.16120
3608.68,0.11958
3585.54,0.08869
3562.39,0.06812
3539.25,0.05675
3516.1,0.04940
3492.96,0.04425
3469.81,0.04112
3446.67,0.03761
3423.52,0.03602
3400.38,0.03869
3377.23,0.04014
3354.09,0.03993
3330.94,0.04254
3307.8,0.04290
3284.65,0.04449
3261.51,0.04651
3238.36,0.04954
3215.22,0.05402
3192.07,0.05928
3168.93,0.06596
3145.78,0.07147
3122.64,0.07796
3099.49,0.08420
3076.35,0.09189
3053.2,0.09870
3030.06,0.11149
3006.91,0.10581
2983.77,0.08663
2960.62,0.06058
2937.48,0.05850
2914.33,0.04788
2891.19,0.05098
2868.04,0.05830
2844.9,0.07525
2821.75,0.10013
2798.61,0.11692
2775.46,0.12698
2752.32,0.13123
2729.17,0.13396
2706.03,0.14415
2682.88,0.15860
2659.74,0.16704
2636.59,0.17386
2613.45,0.18158
2590.3,0.18671
2567.16,0.18851
2544.02,0.18579
2520.87,0.18989
2497.73,0.20276
2474.58,0.21826
2451.44,0.22709
2428.29,0.23455
2405.15,0.23855
2382,0.24485
2358.86,0.26042
2335.71,0.27515
2312.57,0.28283
2289.42,0.27035
2266.28,0.26035
2243.13,0.23247
2219.99,0.26089
2196.84,0.26726
2173.7,0.25134
2150.55,0.22966
2127.41,0.22036
2104.26,0.22687
2081.12,0.23918
2057.97,0.24992
2034.83,0.25914
2011.68,0.27013
1988.54,0.26489
1965.39,0.24769
1942.25,0.26538
1919.1,0.29567
1895.96,0.30562
1872.81,0.30155
1849.67,0.27211
1826.52,0.23602
1803.38,0.22274
1780.23,0.19870
1757.09,0.14415
1733.94,0.08850
1710.8,0.09722
1687.65,0.10880
1664.51,0.10598
1641.36,0.10513
1618.22,0.11053
1595.07,0.12971
1571.93,0.12671
1548.78,0.13849
1525.64,0.12698
1502.49,0.08923
1479.35,0.06606
1456.2,0.03854
1433.06,0.03573
1409.91,0.03324
1386.77,0.03473
1363.62,0.02798
1340.48,0.02714
1317.33,0.02580
1294.19,0.03063
1271.04,0.03814
1247.9,0.03759
1224.75,0.04025
1201.61,0.04021
1178.46,0.03294
1155.32,0.02906
1132.17,0.02059
1109.03,0.02584
1085.88,0.02596
1062.74,0.04952
1039.59,0.03994
1016.45,0.03903
993.304,0.05475
970.159,0.07008
947.014,0.12411
923.869,0.13419
900.724,0.09136
877.579,0.10300
854.434,0.11506
831.289,0.12511
808.144,0.11677
784.999,0.10272
761.854,0.09210
738.709,0.05026
715.565,0.05671
692.42,0.06588
669.275,0.05821
646.13,0.05958
622.985,0.05236
599.84,0.05651