Folder: fsri_materials_database/01_Data/Cotton_Rug/FTIR/IS (part 2)

File: Cotton_Rug_IS_S_220822_R5.dpt
7497.03,0.68486
7473.89,0.68098
7450.74,0.67315
7427.6,0.67416
7404.45,0.67438
7381.31,0.66899
7358.16,0.65103
7335.02,0.65277
7311.87,0.65442
7288.73,0.64136
7265.58,0.64201
7242.44,0.65023
7219.29,0.64474
7196.15,0.64240
7173,0.64408
7149.86,0.63318
7126.71,0.63712
7103.57,0.62570
7080.42,0.61349
7057.28,0.59851
7034.13,0.57997
7010.99,0.57823
6987.84,0.56143
6964.7,0.55670
6941.55,0.55156
6918.41,0.55428
6895.26,0.54644
6872.12,0.54689
6848.97,0.54040
6825.83,0.53692
6802.68,0.53272
6779.54,0.52489
6756.39,0.52701
6733.25,0.52843
6710.1,0.51899
6686.96,0.52832
6663.82,0.52597
6640.67,0.52857
6617.53,0.52831
6594.38,0.53531
6571.24,0.53804
6548.09,0.53917
6524.95,0.53191
6501.8,0.53633
6478.66,0.53557
6455.51,0.53512
6432.37,0.53567
6409.22,0.53623
6386.08,0.53856
6362.93,0.54251
6339.79,0.54511
6316.64,0.54613
6293.5,0.54781
6270.35,0.55029
6247.21,0.55624
6224.06,0.56326
6200.92,0.57049
6177.77,0.57752
6154.63,0.58089
6131.48,0.58324
6108.34,0.58133
6085.19,0.57450
6062.05,0.56520
6038.9,0.55638
6015.76,0.54365
5992.61,0.56784
5969.47,0.57492
5946.32,0.57717
5923.18,0.58251
5900.03,0.58307
5876.89,0.57462
5853.74,0.57273
5830.6,0.57066
5807.45,0.56866
5784.31,0.56628
5761.16,0.56761
5738.02,0.57407
5714.87,0.57529
5691.73,0.57190
5668.58,0.57479
5645.44,0.57464
5622.29,0.57595
5599.15,0.57745
5576,0.57738
5552.86,0.57817
5529.71,0.57838
5506.57,0.57888
5483.42,0.57817
5460.28,0.58050
5437.13,0.58561
5413.99,0.59249
5390.84,0.59435
5367.7,0.59526
5344.55,0.59359
5321.41,0.58989
5298.26,0.57982
5275.12,0.55929
5251.97,0.53283
5228.83,0.51097
5205.68,0.49906
5182.54,0.49576
5159.39,0.49724
5136.25,0.50074
5113.1,0.51039
5089.96,0.52062
5066.81,0.52895
5043.67,0.53536
5020.52,0.53872
4997.38,0.54073
4974.23,0.53709
4951.09,0.53048
4927.94,0.51319
4904.8,0.49223
4881.65,0.46946
4858.51,0.45056
4835.36,0.43329
4812.22,0.41555
4789.07,0.40741
4765.93,0.40276
4742.78,0.39952
4719.64,0.39842
4696.49,0.39898
4673.35,0.41351
4650.2,0.42372
4627.06,0.42749
4603.92,0.44522
4580.77,0.44567
4557.63,0.46445
4534.48,0.46982
4511.34,0.46946
4488.19,0.45527
4465.05,0.43369
4441.9,0.40644
4418.76,0.38634
4395.61,0.37248
4372.47,0.38661
4349.32,0.38299
4326.18,0.37145
4303.03,0.35670
4279.89,0.34719
4256.74,0.35022
4233.6,0.35391
4210.45,0.36094
4187.31,0.36563
4164.16,0.36881
4141.02,0.36611
4117.87,0.35497
4094.73,0.32056
4071.58,0.31433
4048.44,0.29747
4025.29,0.28624
4002.15,0.29051
3979,0.30054
3955.86,0.30908
3932.71,0.32060
3909.57,0.33166
3886.42,0.34294
3863.28,0.35431
3840.13,0.36621
3816.99,0.36717
3793.84,0.36865
3770.7,0.36590
3747.55,0.36254
3724.41,0.35134
3701.26,0.32438
3678.12,0.27566
3654.97,0.21053
3631.83,0.15474
3608.68,0.11506
3585.54,0.08710
3562.39,0.06762
3539.25,0.05572
3516.1,0.04913
3492.96,0.04403
3469.81,0.04143
3446.67,0.03714
3423.52,0.03631
3400.38,0.03946
3377.23,0.03966
3354.09,0.04075
3330.94,0.04180
3307.8,0.04236
3284.65,0.04400
3261.51,0.04635
3238.36,0.04963
3215.22,0.05359
3192.07,0.05908
3168.93,0.06457
3145.78,0.07114
3122.64,0.07726
3099.49,0.08341
3076.35,0.09016
3053.2,0.09650
3030.06,0.10982
3006.91,0.10377
2983.77,0.08594
2960.62,0.06011
2937.48,0.05851
2914.33,0.04683
2891.19,0.05085
2868.04,0.05855
2844.9,0.07430
2821.75,0.09933
2798.61,0.11629
2775.46,0.12588
2752.32,0.13114
2729.17,0.13360
2706.03,0.14339
2682.88,0.15729
2659.74,0.16618
2636.59,0.17314
2613.45,0.18110
2590.3,0.18610
2567.16,0.18711
2544.02,0.18464
2520.87,0.18847
2497.73,0.20219
2474.58,0.21698
2451.44,0.22585
2428.29,0.23336
2405.15,0.23706
2382,0.24352
2358.86,0.25907
2335.71,0.27381
2312.57,0.28143
2289.42,0.26799
2266.28,0.25868
2243.13,0.23093
2219.99,0.25886
2196.84,0.26482
2173.7,0.24958
2150.55,0.22786
2127.41,0.21870
2104.26,0.22514
2081.12,0.23705
2057.97,0.24758
2034.83,0.25694
2011.68,0.26802
1988.54,0.26250
1965.39,0.24616
1942.25,0.26361
1919.1,0.29324
1895.96,0.30353
1872.81,0.29865
1849.67,0.27016
1826.52,0.23448
1803.38,0.22123
1780.23,0.19731
1757.09,0.14336
1733.94,0.08772
1710.8,0.09671
1687.65,0.10682
1664.51,0.10370
1641.36,0.10278
1618.22,0.10880
1595.07,0.12827
1571.93,0.12610
1548.78,0.13713
1525.64,0.12577
1502.49,0.08841
1479.35,0.06505
1456.2,0.03831
1433.06,0.03583
1409.91,0.03271
1386.77,0.03466
1363.62,0.02779
1340.48,0.02703
1317.33,0.02582
1294.19,0.03053
1271.04,0.03817
1247.9,0.03771
1224.75,0.04040
1201.61,0.03981
1178.46,0.03354
1155.32,0.02845
1132.17,0.02126
1109.03,0.02698
1085.88,0.02644
1062.74,0.04961
1039.59,0.03975
1016.45,0.03830
993.304,0.05502
970.159,0.07005
947.014,0.12390
923.869,0.13301
900.724,0.09119
877.579,0.10235
854.434,0.11350
831.289,0.12351
808.144,0.11470
784.999,0.10097
761.854,0.09148
738.709,0.05005
715.565,0.05660
692.42,0.06416
669.275,0.05788
646.13,0.05929
622.985,0.05308
599.84,0.05750

File: Cotton_Rug_IS_S_220822_R6.dpt
7497.03,0.67701
7473.89,0.68278
7450.74,0.67526
7427.6,0.67668
7404.45,0.67189
7381.31,0.66366
7358.16,0.64994
7335.02,0.65218
7311.87,0.64885
7288.73,0.64225
7265.58,0.64736
7242.44,0.64799
7219.29,0.65269
7196.15,0.64719
7173,0.64474
7149.86,0.64443
7126.71,0.63237
7103.57,0.62176
7080.42,0.61342
7057.28,0.59717
7034.13,0.58665
7010.99,0.57500
6987.84,0.56546
6964.7,0.56128
6941.55,0.55806
6918.41,0.55698
6895.26,0.55015
6872.12,0.54840
6848.97,0.54907
6825.83,0.53699
6802.68,0.53325
6779.54,0.52972
6756.39,0.52304
6733.25,0.52251
6710.1,0.52490
6686.96,0.52383
6663.82,0.52268
6640.67,0.53170
6617.53,0.53040
6594.38,0.53941
6571.24,0.54300
6548.09,0.53548
6524.95,0.54213
6501.8,0.53949
6478.66,0.53869
6455.51,0.54131
6432.37,0.53799
6409.22,0.53971
6386.08,0.54506
6362.93,0.54510
6339.79,0.54411
6316.64,0.54474
6293.5,0.55117
6270.35,0.55485
6247.21,0.55849
6224.06,0.56586
6200.92,0.57162
6177.77,0.57730
6154.63,0.58462
6131.48,0.58544
6108.34,0.58312
6085.19,0.57979
6062.05,0.56824
6038.9,0.55453
6015.76,0.54976
5992.61,0.56759
5969.47,0.57905
5946.32,0.58143
5923.18,0.58436
5900.03,0.58787
5876.89,0.57650
5853.74,0.57313
5830.6,0.57420
5807.45,0.57085
5784.31,0.56757
5761.16,0.57261
5738.02,0.57631
5714.87,0.57595
5691.73,0.57511
5668.58,0.57682
5645.44,0.57528
5622.29,0.57901
5599.15,0.58211
5576,0.58076
5552.86,0.58166
5529.71,0.58263
5506.57,0.58141
5483.42,0.58094
5460.28,0.58189
5437.13,0.58933
5413.99,0.59354
5390.84,0.59820
5367.7,0.59757
5344.55,0.59888
5321.41,0.59465
5298.26,0.58486
5275.12,0.56541
5251.97,0.54056
5228.83,0.52001
5205.68,0.50901
5182.54,0.50457
5159.39,0.50753
5136.25,0.51157
5113.1,0.51681
5089.96,0.52767
5066.81,0.53730
5043.67,0.54197
5020.52,0.54509
4997.38,0.54687
4974.23,0.54352
4951.09,0.53267
4927.94,0.51731
4904.8,0.49598
4881.65,0.47206
4858.51,0.45313
4835.36,0.43368
4812.22,0.41748
4789.07,0.40862
4765.93,0.40494
4742.78,0.40126
4719.64,0.39918
4696.49,0.40105
4673.35,0.41529
4650.2,0.42564
4627.06,0.42955
4603.92,0.44708
4580.77,0.44847
4557.63,0.46602
4534.48,0.47221
4511.34,0.47176
4488.19,0.45784
4465.05,0.43525
4441.9,0.40886
4418.76,0.38814
4395.61,0.37472
4372.47,0.38752
4349.32,0.38559
4326.18,0.37214
4303.03,0.35873
4279.89,0.34880
4256.74,0.35187
4233.6,0.35578
4210.45,0.36208
4187.31,0.36627
4164.16,0.37092
4141.02,0.36860
4117.87,0.35655
4094.73,0.32247
4071.58,0.31569
4048.44,0.29892
4025.29,0.28803
4002.15,0.29167
3979,0.30269
3955.86,0.31075
3932.71,0.32298
3909.57,0.33362
3886.42,0.34525
3863.28,0.35701
3840.13,0.36957
3816.99,0.37148
3793.84,0.37170
3770.7,0.37030
3747.55,0.36664
3724.41,0.35597
3701.26,0.32997
3678.12,0.28423
3654.97,0.21972
3631.83,0.16367
3608.68,0.12152
3585.54,0.08994
3562.39,0.06958
3539.25,0.05608
3516.1,0.04936
3492.96,0.04489
3469.81,0.04130
3446.67,0.03689
3423.52,0.03638
3400.38,0.03947
3377.23,0.04047
3354.09,0.04071
3330.94,0.04190
3307.8,0.04346
3284.65,0.04464
3261.51,0.04675
3238.36,0.04932
3215.22,0.05411
3192.07,0.05986
3168.93,0.06578
3145.78,0.07234
3122.64,0.07836
3099.49,0.08405
3076.35,0.09225
3053.2,0.09939
3030.06,0.11297
3006.91,0.10623
2983.77,0.08759
2960.62,0.06049
2937.48,0.05873
2914.33,0.04715
2891.19,0.05097
2868.04,0.05849
2844.9,0.07457
2821.75,0.10045
2798.61,0.11685
2775.46,0.12753
2752.32,0.13172
2729.17,0.13392
2706.03,0.14392
2682.88,0.15888
2659.74,0.16725
2636.59,0.17402
2613.45,0.18159
2590.3,0.18746
2567.16,0.18856
2544.02,0.18551
2520.87,0.18998
2497.73,0.20286
2474.58,0.21810
2451.44,0.22698
2428.29,0.23443
2405.15,0.23849
2382,0.24491
2358.86,0.26103
2335.71,0.27603
2312.57,0.28379
2289.42,0.27097
2266.28,0.26111
2243.13,0.23307
2219.99,0.26169
2196.84,0.26820
2173.7,0.25234
2150.55,0.23013
2127.41,0.22138
2104.26,0.22733
2081.12,0.23976
2057.97,0.25105
2034.83,0.26000
2011.68,0.27089
1988.54,0.26516
1965.39,0.24825
1942.25,0.26594
1919.1,0.29637
1895.96,0.30629
1872.81,0.30203
1849.67,0.27254
1826.52,0.23631
1803.38,0.22335
1780.23,0.19915
1757.09,0.14467
1733.94,0.08821
1710.8,0.09788
1687.65,0.10919
1664.51,0.10703
1641.36,0.10626
1618.22,0.11136
1595.07,0.13029
1571.93,0.12778
1548.78,0.13874
1525.64,0.12709
1502.49,0.08910
1479.35,0.06591
1456.2,0.03824
1433.06,0.03624
1409.91,0.03320
1386.77,0.03457
1363.62,0.02800
1340.48,0.02703
1317.33,0.02591
1294.19,0.03053
1271.04,0.03831
1247.9,0.03807
1224.75,0.04073
1201.61,0.04066
1178.46,0.03361
1155.32,0.02888
1132.17,0.02073
1109.03,0.02539
1085.88,0.02582
1062.74,0.04928
1039.59,0.04014
1016.45,0.03848
993.304,0.05468
970.159,0.06965
947.014,0.12432
923.869,0.13416
900.724,0.09154
877.579,0.10310
854.434,0.11589
831.289,0.12597
808.144,0.11784
784.999,0.10350
761.854,0.09355
738.709,0.05080
715.565,0.05780
692.42,0.06551
669.275,0.05787
646.13,0.06032
622.985,0.05139
599.84,0.05648

File: Cotton_Rug_IS_S_220822_R7.dpt
7497.03,0.68334
7473.89,0.68138
7450.74,0.67884
7427.6,0.67669
7404.45,0.67515
7381.31,0.66777
7358.16,0.65952
7335.02,0.66076
7311.87,0.65381
7288.73,0.64786
7265.58,0.64847
7242.44,0.64799
7219.29,0.64987
7196.15,0.64697
7173,0.64365
7149.86,0.63920
7126.71,0.63474
7103.57,0.62413
7080.42,0.61640
7057.28,0.59740
7034.13,0.58712
7010.99,0.57651
6987.84,0.57245
6964.7,0.56147
6941.55,0.55974
6918.41,0.54994
6895.26,0.54842
6872.12,0.55258
6848.97,0.54900
6825.83,0.53908
6802.68,0.54069
6779.54,0.53117
6756.39,0.52514
6733.25,0.52664
6710.1,0.51954
6686.96,0.52389
6663.82,0.52705
6640.67,0.53078
6617.53,0.53743
6594.38,0.53909
6571.24,0.53652
6548.09,0.53926
6524.95,0.54077
6501.8,0.54023
6478.66,0.53757
6455.51,0.53874
6432.37,0.54290
6409.22,0.54493
6386.08,0.54558
6362.93,0.54611
6339.79,0.54567
6316.64,0.54715
6293.5,0.54887
6270.35,0.55728
6247.21,0.55713
6224.06,0.56814
6200.92,0.56779
6177.77,0.57697
6154.63,0.58444
6131.48,0.58982
6108.34,0.59011
6085.19,0.57818
6062.05,0.56869
6038.9,0.55780
6015.76,0.54922
5992.61,0.56866
5969.47,0.57789
5946.32,0.58332
5923.18,0.58628
5900.03,0.58734
5876.89,0.58058
5853.74,0.57710
5830.6,0.57452
5807.45,0.57514
5784.31,0.57032
5761.16,0.57162
5738.02,0.57577
5714.87,0.57750
5691.73,0.57807
5668.58,0.57763
5645.44,0.57779
5622.29,0.58109
5599.15,0.58400
5576,0.58213
5552.86,0.58440
5529.71,0.58407
5506.57,0.58239
5483.42,0.58412
5460.28,0.58533
5437.13,0.59100
5413.99,0.59580
5390.84,0.60126
5367.7,0.60195
5344.55,0.60056
5321.41,0.59686
5298.26,0.58707
5275.12,0.56913
5251.97,0.54503
5228.83,0.52550
5205.68,0.51282
5182.54,0.51037
5159.39,0.51131
5136.25,0.51555
5113.1,0.52280
5089.96,0.53271
5066.81,0.54004
5043.67,0.54504
5020.52,0.54976
4997.38,0.55041
4974.23,0.54618
4951.09,0.53614
4927.94,0.52081
4904.8,0.49755
4881.65,0.47407
4858.51,0.45306
4835.36,0.43655
4812.22,0.42018
4789.07,0.40953
4765.93,0.40654
4742.78,0.40305
4719.64,0.40191
4696.49,0.40167
4673.35,0.41672
4650.2,0.42669
4627.06,0.43063
4603.92,0.44869
4580.77,0.45092
4557.63,0.46782
4534.48,0.47379
4511.34,0.47420
4488.19,0.45886
4465.05,0.43742
4441.9,0.40953
4418.76,0.38878
4395.61,0.37585
4372.47,0.38923
4349.32,0.38546
4326.18,0.37332
4303.03,0.35993
4279.89,0.35032
4256.74,0.35290
4233.6,0.35670
4210.45,0.36346
4187.31,0.36788
4164.16,0.37284
4141.02,0.37021
4117.87,0.35794
4094.73,0.32259
4071.58,0.31720
4048.44,0.30048
4025.29,0.28978
4002.15,0.29296
3979,0.30342
3955.86,0.31309
3932.71,0.32354
3909.57,0.33541
3886.42,0.34699
3863.28,0.35817
3840.13,0.37051
3816.99,0.37266
3793.84,0.37469
3770.7,0.37326
3747.55,0.36982
3724.41,0.35895
3701.26,0.33296
3678.12,0.28627
3654.97,0.22345
3631.83,0.16646
3608.68,0.12343
3585.54,0.09115
3562.39,0.06981
3539.25,0.05699
3516.1,0.04939
3492.96,0.04505
3469.81,0.04133
3446.67,0.03785
3423.52,0.03548
3400.38,0.03985
3377.23,0.04011
3354.09,0.03974
3330.94,0.04214
3307.8,0.04309
3284.65,0.04434
3261.51,0.04682
3238.36,0.04995
3215.22,0.05373
3192.07,0.05976
3168.93,0.06568
3145.78,0.07255
3122.64,0.07964
3099.49,0.08546
3076.35,0.09294
3053.2,0.10014
3030.06,0.11300
3006.91,0.10672
2983.77,0.08756
2960.62,0.06037
2937.48,0.05866
2914.33,0.04667
2891.19,0.05036
2868.04,0.05822
2844.9,0.07518
2821.75,0.10035
2798.61,0.11767
2775.46,0.12737
2752.32,0.13246
2729.17,0.13476
2706.03,0.14502
2682.88,0.15959
2659.74,0.16844
2636.59,0.17512
2613.45,0.18275
2590.3,0.18814
2567.16,0.18913
2544.02,0.18599
2520.87,0.19063
2497.73,0.20373
2474.58,0.21898
2451.44,0.22771
2428.29,0.23541
2405.15,0.23935
2382,0.24582
2358.86,0.26269
2335.71,0.27702
2312.57,0.28569
2289.42,0.27176
2266.28,0.26248
2243.13,0.23399
2219.99,0.26349
2196.84,0.26948
2173.7,0.25383
2150.55,0.23190
2127.41,0.22243
2104.26,0.22856
2081.12,0.24090
2057.97,0.25200
2034.83,0.26143
2011.68,0.27282
1988.54,0.26662
1965.39,0.25017
1942.25,0.26718
1919.1,0.29774
1895.96,0.30802
1872.81,0.30338
1849.67,0.27403
1826.52,0.23750
1803.38,0.22455
1780.23,0.20003
1757.09,0.14485
1733.94,0.08851
1710.8,0.09802
1687.65,0.11031
1664.51,0.10843
1641.36,0.10792
1618.22,0.11288
1595.07,0.13137
1571.93,0.12856
1548.78,0.13987
1525.64,0.12791
1502.49,0.08953
1479.35,0.06630
1456.2,0.03858
1433.06,0.03589
1409.91,0.03310
1386.77,0.03462
1363.62,0.02804
1340.48,0.02667
1317.33,0.02592
1294.19,0.03064
1271.04,0.03821
1247.9,0.03793
1224.75,0.04046
1201.61,0.04009
1178.46,0.03367
1155.32,0.02891
1132.17,0.02015
1109.03,0.02560
1085.88,0.02618
1062.74,0.04923
1039.59,0.03933
1016.45,0.03810
993.304,0.05528
970.159,0.07021
947.014,0.12475
923.869,0.13515
900.724,0.09174
877.579,0.10382
854.434,0.11635
831.289,0.12670
808.144,0.11834
784.999,0.10461
761.854,0.09345
738.709,0.05075
715.565,0.05803
692.42,0.06491
669.275,0.05859
646.13,0.05851
622.985,0.05342
599.84,0.05597

File: Cotton_Rug_IS_S_220822_R8.dpt
7497.03,0.69246
7473.89,0.67933
7450.74,0.67795
7427.6,0.67275
7404.45,0.67454
7381.31,0.66363
7358.16,0.65763
7335.02,0.65331
7311.87,0.64800
7288.73,0.65241
7265.58,0.64785
7242.44,0.63928
7219.29,0.64901
7196.15,0.65377
7173,0.64328
7149.86,0.64038
7126.71,0.63443
7103.57,0.62246
7080.42,0.61373
7057.28,0.60125
7034.13,0.58525
7010.99,0.57774
6987.84,0.57050
6964.7,0.56520
6941.55,0.55652
6918.41,0.56115
6895.26,0.55553
6872.12,0.54845
6848.97,0.54623
6825.83,0.53937
6802.68,0.53362
6779.54,0.52540
6756.39,0.53393
6733.25,0.52760
6710.1,0.53003
6686.96,0.52511
6663.82,0.52872
6640.67,0.53111
6617.53,0.54210
6594.38,0.53862
6571.24,0.53825
6548.09,0.54013
6524.95,0.53953
6501.8,0.54166
6478.66,0.53966
6455.51,0.54347
6432.37,0.54173
6409.22,0.54659
6386.08,0.54494
6362.93,0.54712
6339.79,0.54534
6316.64,0.54531
6293.5,0.54930
6270.35,0.55242
6247.21,0.55971
6224.06,0.56835
6200.92,0.57533
6177.77,0.57856
6154.63,0.58492
6131.48,0.58768
6108.34,0.58743
6085.19,0.57811
6062.05,0.56659
6038.9,0.55862
6015.76,0.54828
5992.61,0.56961
5969.47,0.57854
5946.32,0.58108
5923.18,0.58632
5900.03,0.58757
5876.89,0.58053
5853.74,0.57328
5830.6,0.57524
5807.45,0.57550
5784.31,0.57250
5761.16,0.57345
5738.02,0.57740
5714.87,0.57632
5691.73,0.57929
5668.58,0.58009
5645.44,0.57697
5622.29,0.58295
5599.15,0.58214
5576,0.58117
5552.86,0.58385
5529.71,0.58185
5506.57,0.58350
5483.42,0.58548
5460.28,0.58458
5437.13,0.59015
5413.99,0.59605
5390.84,0.59930
5367.7,0.60119
5344.55,0.60089
5321.41,0.59773
5298.26,0.58691
5275.12,0.57136
5251.97,0.54429
5228.83,0.52729
5205.68,0.51609
5182.54,0.51302
5159.39,0.51262
5136.25,0.51928
5113.1,0.52395
5089.96,0.53676
5066.81,0.54235
5043.67,0.54922
5020.52,0.55057
4997.38,0.55099
4974.23,0.54783
4951.09,0.53616
4927.94,0.51916
4904.8,0.49830
4881.65,0.47438
4858.51,0.45318
4835.36,0.43678
4812.22,0.41916
4789.07,0.41019
4765.93,0.40737
4742.78,0.40205
4719.64,0.40041
4696.49,0.40070
4673.35,0.41632
4650.2,0.42637
4627.06,0.43055
4603.92,0.44847
4580.77,0.45006
4557.63,0.46775
4534.48,0.47376
4511.34,0.47374
4488.19,0.45949
4465.05,0.43620
4441.9,0.41013
4418.76,0.38848
4395.61,0.37529
4372.47,0.38875
4349.32,0.38595
4326.18,0.37339
4303.03,0.35990
4279.89,0.35013
4256.74,0.35267
4233.6,0.35619
4210.45,0.36387
4187.31,0.36828
4164.16,0.37260
4141.02,0.37014
4117.87,0.35763
4094.73,0.32323
4071.58,0.31698
4048.44,0.29969
4025.29,0.28936
4002.15,0.29357
3979,0.30341
3955.86,0.31200
3932.71,0.32428
3909.57,0.33559
3886.42,0.34771
3863.28,0.35913
3840.13,0.37102
3816.99,0.37333
3793.84,0.37494
3770.7,0.37324
3747.55,0.37036
3724.41,0.35937
3701.26,0.33422
3678.12,0.28837
3654.97,0.22694
3631.83,0.16895
3608.68,0.12589
3585.54,0.09275
3562.39,0.07150
3539.25,0.05796
3516.1,0.05041
3492.96,0.04497
3469.81,0.04156
3446.67,0.03779
3423.52,0.03598
3400.38,0.04067
3377.23,0.04075
3354.09,0.04147
3330.94,0.04244
3307.8,0.04286
3284.65,0.04476
3261.51,0.04693
3238.36,0.04993
3215.22,0.05489
3192.07,0.06004
3168.93,0.06592
3145.78,0.07216
3122.64,0.08035
3099.49,0.08604
3076.35,0.09373
3053.2,0.09998
3030.06,0.11373
3006.91,0.10678
2983.77,0.08796
2960.62,0.06079
2937.48,0.05870
2914.33,0.04685
2891.19,0.05084
2868.04,0.05851
2844.9,0.07476
2821.75,0.10105
2798.61,0.11764
2775.46,0.12845
2752.32,0.13283
2729.17,0.13498
2706.03,0.14491
2682.88,0.15949
2659.74,0.16846
2636.59,0.17468
2613.45,0.18278
2590.3,0.18777
2567.16,0.18947
2544.02,0.18651
2520.87,0.19065
2497.73,0.20436
2474.58,0.21882
2451.44,0.22800
2428.29,0.23586
2405.15,0.23947
2382,0.24659
2358.86,0.26239
2335.71,0.27763
2312.57,0.28564
2289.42,0.27234
2266.28,0.26309
2243.13,0.23446
2219.99,0.26345
2196.84,0.26982
2173.7,0.25428
2150.55,0.23193
2127.41,0.22265
2104.26,0.22935
2081.12,0.24166
2057.97,0.25281
2034.83,0.26183
2011.68,0.27293
1988.54,0.26704
1965.39,0.25033
1942.25,0.26790
1919.1,0.29801
1895.96,0.30908
1872.81,0.30426
1849.67,0.27440
1826.52,0.23787
1803.38,0.22433
1780.23,0.20007
1757.09,0.14494
1733.94,0.08876
1710.8,0.09852
1687.65,0.11095
1664.51,0.10968
1641.36,0.10855
1618.22,0.11361
1595.07,0.13203
1571.93,0.12896
1548.78,0.14028
1525.64,0.12808
1502.49,0.08978
1479.35,0.06599
1456.2,0.03851
1433.06,0.03580
1409.91,0.03306
1386.77,0.03471
1363.62,0.02820
1340.48,0.02666
1317.33,0.02563
1294.19,0.03057
1271.04,0.03841
1247.9,0.03784
1224.75,0.04009
1201.61,0.03962
1178.46,0.03387
1155.32,0.02887
1132.17,0.02091
1109.03,0.02538
1085.88,0.02576
1062.74,0.04971
1039.59,0.03973
1016.45,0.03907
993.304,0.05458
970.159,0.07041
947.014,0.12491
923.869,0.13509
900.724,0.09236
877.579,0.10378
854.434,0.11780
831.289,0.12760
808.144,0.11935
784.999,0.10486
761.854,0.09476
738.709,0.05198
715.565,0.05723
692.42,0.06527
669.275,0.05744
646.13,0.05855
622.985,0.05413
599.84,0.05640

File: Cotton_Rug_IS_T_220822_R3.dpt
7497.03,0.01968
7473.89,0.02470
7450.74,0.02402
7427.6,0.02451
7404.45,0.01962
7381.31,0.01888
7358.16,0.02551
7335.02,0.01985
7311.87,0.02259
7288.73,0.02613
7265.58,0.02081
7242.44,0.01976
7219.29,0.02599
7196.15,0.01816
7173,0.02572
7149.86,0.02243
7126.71,0.02404
7103.57,0.02148
7080.42,0.02227
7057.28,0.01802
7034.13,0.01875
7010.99,0.02564
6987.84,0.02295
6964.7,0.02123
6941.55,0.02157
6918.41,0.02373
6895.26,0.02107
6872.12,0.01974
6848.97,0.02286
6825.83,0.01223
6802.68,0.02236
6779.54,0.02214
6756.39,0.02260
6733.25,0.01804
6710.1,0.02355
6686.96,0.02149
6663.82,0.02087
6640.67,0.01622
6617.53,0.01947
6594.38,0.02056
6571.24,0.01945
6548.09,0.01969
6524.95,0.02148
6501.8,0.01971
6478.66,0.01890
6455.51,0.01880
6432.37,0.02309
6409.22,0.01896
6386.08,0.02133
6362.93,0.01994
6339.79,0.02070
6316.64,0.01826
6293.5,0.01561
6270.35,0.01703
6247.21,0.01863
6224.06,0.01887
6200.92,0.01921
6177.77,0.01738
6154.63,0.02015
6131.48,0.01891
6108.34,0.01890
6085.19,0.02047
6062.05,0.01812
6038.9,0.01516
6015.76,0.01976
5992.61,0.02045
5969.47,0.01905
5946.32,0.01811
5923.18,0.01729
5900.03,0.01968
5876.89,0.01667
5853.74,0.02018
5830.6,0.02016
5807.45,0.01982
5784.31,0.01837
5761.16,0.01953
5738.02,0.01721
5714.87,0.01816
5691.73,0.01948
5668.58,0.01893
5645.44,0.01967
5622.29,0.02119
5599.15,0.01838
5576,0.01968
5552.86,0.02014
5529.71,0.01964
5506.57,0.01966
5483.42,0.01892
5460.28,0.01845
5437.13,0.01940
5413.99,0.01878
5390.84,0.01823
5367.7,0.01745
5344.55,0.02030
5321.41,0.01954
5298.26,0.01953
5275.12,0.01760
5251.97,0.01819
5228.83,0.01987
5205.68,0.01742
5182.54,0.02035
5159.39,0.02079
5136.25,0.01773
5113.1,0.02000
5089.96,0.01901
5066.81,0.01774
5043.67,0.01914
5020.52,0.01851
4997.38,0.01912
4974.23,0.01938
4951.09,0.01944
4927.94,0.01914
4904.8,0.01935
4881.65,0.01876
4858.51,0.01875
4835.36,0.01810
4812.22,0.01944
4789.07,0.01982
4765.93,0.01904
4742.78,0.01902
4719.64,0.01987
4696.49,0.01981
4673.35,0.01968
4650.2,0.01866
4627.06,0.01920
4603.92,0.01883
4580.77,0.01987
4557.63,0.01862
4534.48,0.01914
4511.34,0.01910
4488.19,0.01889
4465.05,0.01965
4441.9,0.01942
4418.76,0.01914
4395.61,0.01904
4372.47,0.01896
4349.32,0.01938
4326.18,0.01930
4303.03,0.01917
4279.89,0.01911
4256.74,0.02009
4233.6,0.01855
4210.45,0.01935
4187.31,0.02038
4164.16,0.01937
4141.02,0.01947
4117.87,0.02004
4094.73,0.01977
4071.58,0.01888
4048.44,0.01931
4025.29,0.02007
4002.15,0.01973
3979,0.01858
3955.86,0.01963
3932.71,0.01911
3909.57,0.02008
3886.42,0.01924
3863.28,0.01947
3840.13,0.02018
3816.99,0.02009
3793.84,0.01977
3770.7,0.01993
3747.55,0.01970
3724.41,0.01961
3701.26,0.01917
3678.12,0.01967
3654.97,0.01904
3631.83,0.01968
3608.68,0.01829
3585.54,0.01815
3562.39,0.01782
3539.25,0.01882
3516.1,0.01813
3492.96,0.01750
3469.81,0.01771
3446.67,0.01787
3423.52,0.01701
3400.38,0.01760
3377.23,0.01734
3354.09,0.01745
3330.94,0.01786
3307.8,0.01729
3284.65,0.01732
3261.51,0.01784
3238.36,0.01823
3215.22,0.01787
3192.07,0.01771
3168.93,0.01724
3145.78,0.01756
3122.64,0.01742
3099.49,0.01710
3076.35,0.01669
3053.2,0.01825
3030.06,0.01739
3006.91,0.01731
2983.77,0.01689
2960.62,0.01655
2937.48,0.01627
2914.33,0.01767
2891.19,0.01774
2868.04,0.01751
2844.9,0.01783
2821.75,0.01822
2798.61,0.01821
2775.46,0.01806
2752.32,0.01834
2729.17,0.01789
2706.03,0.01811
2682.88,0.01790
2659.74,0.01835
2636.59,0.01801
2613.45,0.01788
2590.3,0.01818
2567.16,0.01856
2544.02,0.01821
2520.87,0.01823
2497.73,0.01830
2474.58,0.01790
2451.44,0.01822
2428.29,0.01773
2405.15,0.01774
2382,0.01808
2358.86,0.01812
2335.71,0.01799
2312.57,0.01802
2289.42,0.01783
2266.28,0.01831
2243.13,0.01805
2219.99,0.01827
2196.84,0.01823
2173.7,0.01800
2150.55,0.01778
2127.41,0.01765
2104.26,0.01791
2081.12,0.01763
2057.97,0.01785
2034.83,0.01753
2011.68,0.01797
1988.54,0.01779
1965.39,0.01781
1942.25,0.01783
1919.1,0.01785
1895.96,0.01751
1872.81,0.01731
1849.67,0.01699
1826.52,0.01711
1803.38,0.01661
1780.23,0.01577
1757.09,0.01439
1733.94,0.01686
1710.8,0.01767
1687.65,0.01619
1664.51,0.01553
1641.36,0.01546
1618.22,0.01596
1595.07,0.01596
1571.93,0.01508
1548.78,0.01495
1525.64,0.01583
1502.49,0.01543
1479.35,0.01584
1456.2,0.01533
1433.06,0.01575
1409.91,0.01552
1386.77,0.01501
1363.62,0.01524
1340.48,0.01486
1317.33,0.01383
1294.19,0.01484
1271.04,0.01633
1247.9,0.01686
1224.75,0.01597
1201.61,0.01519
1178.46,0.01536
1155.32,0.01460
1132.17,0.01529
1109.03,0.01586
1085.88,0.01562
1062.74,0.01704
1039.59,0.01558
1016.45,0.01643
993.304,0.01795
970.159,0.01793
947.014,0.01686
923.869,0.01671
900.724,0.01659
877.579,0.01568
854.434,0.01475
831.289,0.01620
808.144,0.01646
784.999,0.01550
761.854,0.01534
738.709,0.01544
715.565,0.01489
692.42,0.01426
669.275,0.01360
646.13,0.01232
622.985,0.01298
599.84,0.01262