Folder: fsri_materials_database/01_Data/Cotton_Rug/FTIR/IS (part 3)

File: Cotton_Rug_IS_T_220822_R8.dpt
7497.03,0.01920
7473.89,0.01486
7450.74,0.01939
7427.6,0.02225
7404.45,0.00944
7381.31,0.02088
7358.16,0.02822
7335.02,0.02693
7311.87,0.02366
7288.73,0.02057
7265.58,0.01557
7242.44,0.01835
7219.29,0.02132
7196.15,0.02561
7173,0.02015
7149.86,0.02212
7126.71,0.02194
7103.57,0.02025
7080.42,0.02112
7057.28,0.02031
7034.13,0.02425
7010.99,0.02325
6987.84,0.01361
6964.7,0.02069
6941.55,0.01541
6918.41,0.02338
6895.26,0.01968
6872.12,0.02306
6848.97,0.02254
6825.83,0.02126
6802.68,0.02401
6779.54,0.01981
6756.39,0.02047
6733.25,0.02546
6710.1,0.02475
6686.96,0.02281
6663.82,0.01911
6640.67,0.01795
6617.53,0.02022
6594.38,0.02073
6571.24,0.01356
6548.09,0.02259
6524.95,0.01530
6501.8,0.01238
6478.66,0.01539
6455.51,0.01529
6432.37,0.01836
6409.22,0.01815
6386.08,0.01893
6362.93,0.01782
6339.79,0.01875
6316.64,0.01775
6293.5,0.01828
6270.35,0.01856
6247.21,0.01786
6224.06,0.02091
6200.92,0.01989
6177.77,0.01995
6154.63,0.01954
6131.48,0.02122
6108.34,0.02011
6085.19,0.01814
6062.05,0.02021
6038.9,0.01848
6015.76,0.01783
5992.61,0.01924
5969.47,0.01924
5946.32,0.01718
5923.18,0.01860
5900.03,0.02011
5876.89,0.01910
5853.74,0.01897
5830.6,0.01851
5807.45,0.02074
5784.31,0.01679
5761.16,0.01925
5738.02,0.01869
5714.87,0.01827
5691.73,0.01910
5668.58,0.02116
5645.44,0.01903
5622.29,0.01902
5599.15,0.01915
5576,0.01901
5552.86,0.02112
5529.71,0.01840
5506.57,0.01901
5483.42,0.01966
5460.28,0.01933
5437.13,0.01868
5413.99,0.01967
5390.84,0.02038
5367.7,0.01814
5344.55,0.01923
5321.41,0.01845
5298.26,0.01967
5275.12,0.01872
5251.97,0.01875
5228.83,0.01873
5205.68,0.01870
5182.54,0.01959
5159.39,0.01996
5136.25,0.01920
5113.1,0.01859
5089.96,0.01887
5066.81,0.02000
5043.67,0.01906
5020.52,0.01936
4997.38,0.01988
4974.23,0.02003
4951.09,0.01935
4927.94,0.01860
4904.8,0.01955
4881.65,0.01882
4858.51,0.01963
4835.36,0.01972
4812.22,0.01863
4789.07,0.01985
4765.93,0.01959
4742.78,0.01851
4719.64,0.01878
4696.49,0.01928
4673.35,0.01975
4650.2,0.01868
4627.06,0.01899
4603.92,0.01995
4580.77,0.02023
4557.63,0.01985
4534.48,0.01877
4511.34,0.01920
4488.19,0.01904
4465.05,0.01949
4441.9,0.01825
4418.76,0.01910
4395.61,0.01934
4372.47,0.01900
4349.32,0.01889
4326.18,0.01945
4303.03,0.01917
4279.89,0.01928
4256.74,0.01945
4233.6,0.01942
4210.45,0.01974
4187.31,0.01963
4164.16,0.01921
4141.02,0.01927
4117.87,0.01916
4094.73,0.01950
4071.58,0.02003
4048.44,0.02061
4025.29,0.01995
4002.15,0.01939
3979,0.02001
3955.86,0.01892
3932.71,0.02019
3909.57,0.01902
3886.42,0.02031
3863.28,0.01974
3840.13,0.01962
3816.99,0.01989
3793.84,0.01964
3770.7,0.02015
3747.55,0.01937
3724.41,0.01892
3701.26,0.01933
3678.12,0.01900
3654.97,0.01929
3631.83,0.01941
3608.68,0.01890
3585.54,0.01819
3562.39,0.01811
3539.25,0.01828
3516.1,0.01783
3492.96,0.01803
3469.81,0.01758
3446.67,0.01837
3423.52,0.01785
3400.38,0.01724
3377.23,0.01715
3354.09,0.01733
3330.94,0.01727
3307.8,0.01775
3284.65,0.01782
3261.51,0.01717
3238.36,0.01774
3215.22,0.01767
3192.07,0.01776
3168.93,0.01788
3145.78,0.01747
3122.64,0.01799
3099.49,0.01794
3076.35,0.01816
3053.2,0.01788
3030.06,0.01809
3006.91,0.01781
2983.77,0.01744
2960.62,0.01717
2937.48,0.01714
2914.33,0.01766
2891.19,0.01737
2868.04,0.01749
2844.9,0.01838
2821.75,0.01829
2798.61,0.01841
2775.46,0.01862
2752.32,0.01767
2729.17,0.01861
2706.03,0.01871
2682.88,0.01828
2659.74,0.01839
2636.59,0.01852
2613.45,0.01839
2590.3,0.01791
2567.16,0.01834
2544.02,0.01804
2520.87,0.01853
2497.73,0.01833
2474.58,0.01817
2451.44,0.01851
2428.29,0.01866
2405.15,0.01845
2382,0.01851
2358.86,0.01841
2335.71,0.01838
2312.57,0.01825
2289.42,0.01841
2266.28,0.01845
2243.13,0.01806
2219.99,0.01821
2196.84,0.01838
2173.7,0.01846
2150.55,0.01831
2127.41,0.01833
2104.26,0.01824
2081.12,0.01793
2057.97,0.01826
2034.83,0.01829
2011.68,0.01782
1988.54,0.01823
1965.39,0.01788
1942.25,0.01798
1919.1,0.01823
1895.96,0.01767
1872.81,0.01772
1849.67,0.01718
1826.52,0.01729
1803.38,0.01706
1780.23,0.01602
1757.09,0.01470
1733.94,0.01679
1710.8,0.01758
1687.65,0.01613
1664.51,0.01604
1641.36,0.01560
1618.22,0.01605
1595.07,0.01616
1571.93,0.01564
1548.78,0.01576
1525.64,0.01615
1502.49,0.01549
1479.35,0.01553
1456.2,0.01552
1433.06,0.01598
1409.91,0.01542
1386.77,0.01526
1363.62,0.01537
1340.48,0.01486
1317.33,0.01450
1294.19,0.01476
1271.04,0.01679
1247.9,0.01739
1224.75,0.01618
1201.61,0.01547
1178.46,0.01492
1155.32,0.01430
1132.17,0.01449
1109.03,0.01581
1085.88,0.01488
1062.74,0.01669
1039.59,0.01683
1016.45,0.01741
993.304,0.01843
970.159,0.01715
947.014,0.01693
923.869,0.01650
900.724,0.01587
877.579,0.01654
854.434,0.01704
831.289,0.01679
808.144,0.01585
784.999,0.01518
761.854,0.01504
738.709,0.01630
715.565,0.01560
692.42,0.01391
669.275,0.01390
646.13,0.01341
622.985,0.01395
599.84,0.01130