Folder: fsri_materials_database/01_Data/Wool_Rug/FTIR/IS (part 2)

File: Wool_Rug_IS_S_220826_R5.dpt
7497.03,0.56444
7473.89,0.56621
7450.74,0.55827
7427.6,0.55594
7404.45,0.55730
7381.31,0.54913
7358.16,0.55753
7335.02,0.54182
7311.87,0.54053
7288.73,0.53474
7265.58,0.53197
7242.44,0.53113
7219.29,0.52485
7196.15,0.51698
7173,0.50483
7149.86,0.50667
7126.71,0.49647
7103.57,0.48534
7080.42,0.47728
7057.28,0.47351
7034.13,0.46261
7010.99,0.46590
6987.84,0.45547
6964.7,0.45539
6941.55,0.45014
6918.41,0.44167
6895.26,0.43799
6872.12,0.43255
6848.97,0.42785
6825.83,0.41949
6802.68,0.41937
6779.54,0.41171
6756.39,0.39497
6733.25,0.38508
6710.1,0.37091
6686.96,0.36489
6663.82,0.36371
6640.67,0.35916
6617.53,0.36517
6594.38,0.36633
6571.24,0.36532
6548.09,0.38000
6524.95,0.38706
6501.8,0.39166
6478.66,0.40172
6455.51,0.40792
6432.37,0.41432
6409.22,0.41812
6386.08,0.42004
6362.93,0.41584
6339.79,0.42204
6316.64,0.42488
6293.5,0.43351
6270.35,0.43701
6247.21,0.44218
6224.06,0.44887
6200.92,0.45190
6177.77,0.45705
6154.63,0.46375
6131.48,0.46286
6108.34,0.46991
6085.19,0.47146
6062.05,0.47100
6038.9,0.46440
6015.76,0.45964
5992.61,0.44676
5969.47,0.42624
5946.32,0.40506
5923.18,0.38223
5900.03,0.36850
5876.89,0.37111
5853.74,0.37445
5830.6,0.37016
5807.45,0.35791
5784.31,0.34812
5761.16,0.33995
5738.02,0.34445
5714.87,0.35352
5691.73,0.37243
5668.58,0.38480
5645.44,0.39884
5622.29,0.40768
5599.15,0.40852
5576,0.41047
5552.86,0.41174
5529.71,0.41356
5506.57,0.41593
5483.42,0.41782
5460.28,0.42053
5437.13,0.42638
5413.99,0.43112
5390.84,0.43186
5367.7,0.43062
5344.55,0.42389
5321.41,0.40849
5298.26,0.37819
5275.12,0.33343
5251.97,0.29287
5228.83,0.26311
5205.68,0.24554
5182.54,0.23191
5159.39,0.22401
5136.25,0.22345
5113.1,0.22526
5089.96,0.22171
5066.81,0.21595
5043.67,0.21484
5020.52,0.21703
4997.38,0.22287
4974.23,0.22189
4951.09,0.21588
4927.94,0.20367
4904.8,0.18822
4881.65,0.17479
4858.51,0.17023
4835.36,0.18153
4812.22,0.19831
4789.07,0.21291
4765.93,0.21776
4742.78,0.21555
4719.64,0.21025
4696.49,0.19962
4673.35,0.18337
4650.2,0.16643
4627.06,0.15035
4603.92,0.14357
4580.77,0.14378
4557.63,0.14853
4534.48,0.15602
4511.34,0.16372
4488.19,0.17265
4465.05,0.17211
4441.9,0.16176
4418.76,0.14368
4395.61,0.13566
4372.47,0.13015
4349.32,0.13032
4326.18,0.13510
4303.03,0.13966
4279.89,0.13860
4256.74,0.13618
4233.6,0.14079
4210.45,0.14517
4187.31,0.14808
4164.16,0.15039
4141.02,0.14850
4117.87,0.14691
4094.73,0.13811
4071.58,0.12835
4048.44,0.12407
4025.29,0.12639
4002.15,0.12692
3979,0.12425
3955.86,0.12208
3932.71,0.12057
3909.57,0.12602
3886.42,0.13607
3863.28,0.14439
3840.13,0.14945
3816.99,0.15301
3793.84,0.15351
3770.7,0.15142
3747.55,0.14372
3724.41,0.13244
3701.26,0.11043
3678.12,0.07397
3654.97,0.04794
3631.83,0.03468
3608.68,0.02810
3585.54,0.02454
3562.39,0.02242
3539.25,0.02057
3516.1,0.01974
3492.96,0.01921
3469.81,0.01806
3446.67,0.01778
3423.52,0.01783
3400.38,0.01821
3377.23,0.01735
3354.09,0.01762
3330.94,0.01746
3307.8,0.01683
3284.65,0.01708
3261.51,0.01736
3238.36,0.01843
3215.22,0.01809
3192.07,0.01822
3168.93,0.01910
3145.78,0.01917
3122.64,0.01900
3099.49,0.01916
3076.35,0.01858
3053.2,0.01867
3030.06,0.01903
3006.91,0.01902
2983.77,0.01850
2960.62,0.01784
2937.48,0.01749
2914.33,0.01863
2891.19,0.01903
2868.04,0.01921
2844.9,0.02094
2821.75,0.02244
2798.61,0.02263
2775.46,0.02456
2752.32,0.02540
2729.17,0.02676
2706.03,0.02855
2682.88,0.02975
2659.74,0.03109
2636.59,0.03242
2613.45,0.03352
2590.3,0.03533
2567.16,0.03695
2544.02,0.03817
2520.87,0.04029
2497.73,0.04142
2474.58,0.04373
2451.44,0.04629
2428.29,0.04914
2405.15,0.05108
2382,0.05387
2358.86,0.05568
2335.71,0.05723
2312.57,0.05729
2289.42,0.05837
2266.28,0.05912
2243.13,0.05942
2219.99,0.05920
2196.84,0.05953
2173.7,0.06003
2150.55,0.05982
2127.41,0.05931
2104.26,0.05956
2081.12,0.06012
2057.97,0.06123
2034.83,0.06230
2011.68,0.06358
1988.54,0.06401
1965.39,0.06361
1942.25,0.06360
1919.1,0.06288
1895.96,0.06044
1872.81,0.05800
1849.67,0.05467
1826.52,0.04906
1803.38,0.04306
1780.23,0.03530
1757.09,0.02718
1733.94,0.01924
1710.8,0.01477
1687.65,0.01314
1664.51,0.01484
1641.36,0.01759
1618.22,0.01771
1595.07,0.01703
1571.93,0.01628
1548.78,0.01587
1525.64,0.01660
1502.49,0.01825
1479.35,0.01864
1456.2,0.01750
1433.06,0.01752
1409.91,0.01723
1386.77,0.01722
1363.62,0.01749
1340.48,0.01735
1317.33,0.01687
1294.19,0.01693
1271.04,0.01708
1247.9,0.01722
1224.75,0.01735
1201.61,0.01787
1178.46,0.01834
1155.32,0.01806
1132.17,0.01886
1109.03,0.01800
1085.88,0.01863
1062.74,0.01929
1039.59,0.01977
1016.45,0.02321
993.304,0.02548
970.159,0.02769
947.014,0.02678
923.869,0.02566
900.724,0.02602
877.579,0.02454
854.434,0.02455
831.289,0.02127
808.144,0.02090
784.999,0.01949
761.854,0.01759
738.709,0.01803
715.565,0.01817
692.42,0.01601
669.275,0.01505
646.13,0.01568
622.985,0.01424
599.84,0.01355

File: Wool_Rug_IS_S_220826_R6.dpt
7497.03,0.56866
7473.89,0.56554
7450.74,0.56505
7427.6,0.56373
7404.45,0.55378
7381.31,0.56061
7358.16,0.54514
7335.02,0.54095
7311.87,0.54383
7288.73,0.53520
7265.58,0.53405
7242.44,0.52847
7219.29,0.53054
7196.15,0.51859
7173,0.51223
7149.86,0.50764
7126.71,0.50446
7103.57,0.49034
7080.42,0.48610
7057.28,0.48299
7034.13,0.47316
7010.99,0.46468
6987.84,0.46453
6964.7,0.45645
6941.55,0.46026
6918.41,0.45054
6895.26,0.43957
6872.12,0.43964
6848.97,0.43480
6825.83,0.42911
6802.68,0.42690
6779.54,0.41498
6756.39,0.40400
6733.25,0.38741
6710.1,0.37289
6686.96,0.36714
6663.82,0.36371
6640.67,0.36278
6617.53,0.36396
6594.38,0.36921
6571.24,0.37821
6548.09,0.37763
6524.95,0.38730
6501.8,0.38980
6478.66,0.39962
6455.51,0.40498
6432.37,0.41638
6409.22,0.42086
6386.08,0.42005
6362.93,0.41850
6339.79,0.42658
6316.64,0.42624
6293.5,0.43190
6270.35,0.43702
6247.21,0.44143
6224.06,0.44869
6200.92,0.45498
6177.77,0.45687
6154.63,0.46240
6131.48,0.46923
6108.34,0.46969
6085.19,0.47012
6062.05,0.46983
6038.9,0.46894
6015.76,0.46150
5992.61,0.44861
5969.47,0.42766
5946.32,0.40529
5923.18,0.38099
5900.03,0.37222
5876.89,0.37041
5853.74,0.37517
5830.6,0.37127
5807.45,0.35897
5784.31,0.34830
5761.16,0.34264
5738.02,0.34387
5714.87,0.35562
5691.73,0.37429
5668.58,0.38692
5645.44,0.40071
5622.29,0.40888
5599.15,0.41110
5576,0.41410
5552.86,0.41305
5529.71,0.41501
5506.57,0.41623
5483.42,0.41724
5460.28,0.42382
5437.13,0.42802
5413.99,0.43244
5390.84,0.43320
5367.7,0.43166
5344.55,0.42454
5321.41,0.41380
5298.26,0.38240
5275.12,0.33943
5251.97,0.29898
5228.83,0.27087
5205.68,0.25161
5182.54,0.23744
5159.39,0.23027
5136.25,0.23041
5113.1,0.23138
5089.96,0.22631
5066.81,0.21741
5043.67,0.21867
5020.52,0.22196
4997.38,0.22510
4974.23,0.22363
4951.09,0.21696
4927.94,0.20521
4904.8,0.19005
4881.65,0.17595
4858.51,0.17043
4835.36,0.18309
4812.22,0.20065
4789.07,0.21332
4765.93,0.21762
4742.78,0.21719
4719.64,0.21089
4696.49,0.19990
4673.35,0.18236
4650.2,0.16649
4627.06,0.15060
4603.92,0.14372
4580.77,0.14367
4557.63,0.14845
4534.48,0.15663
4511.34,0.16465
4488.19,0.17130
4465.05,0.17300
4441.9,0.16130
4418.76,0.14423
4395.61,0.13553
4372.47,0.13059
4349.32,0.12969
4326.18,0.13502
4303.03,0.13989
4279.89,0.13893
4256.74,0.13670
4233.6,0.14082
4210.45,0.14622
4187.31,0.14919
4164.16,0.15078
4141.02,0.14915
4117.87,0.14698
4094.73,0.14002
4071.58,0.12979
4048.44,0.12478
4025.29,0.12734
4002.15,0.12666
3979,0.12575
3955.86,0.12270
3932.71,0.12086
3909.57,0.12659
3886.42,0.13662
3863.28,0.14545
3840.13,0.15132
3816.99,0.15473
3793.84,0.15564
3770.7,0.15386
3747.55,0.14617
3724.41,0.13500
3701.26,0.11270
3678.12,0.07670
3654.97,0.04982
3631.83,0.03651
3608.68,0.02890
3585.54,0.02520
3562.39,0.02265
3539.25,0.02080
3516.1,0.02031
3492.96,0.01925
3469.81,0.01854
3446.67,0.01839
3423.52,0.01749
3400.38,0.01743
3377.23,0.01730
3354.09,0.01735
3330.94,0.01739
3307.8,0.01681
3284.65,0.01773
3261.51,0.01753
3238.36,0.01812
3215.22,0.01799
3192.07,0.01743
3168.93,0.01840
3145.78,0.01941
3122.64,0.01892
3099.49,0.01859
3076.35,0.01818
3053.2,0.01812
3030.06,0.01889
3006.91,0.01872
2983.77,0.01850
2960.62,0.01736
2937.48,0.01805
2914.33,0.01810
2891.19,0.01950
2868.04,0.01894
2844.9,0.02114
2821.75,0.02225
2798.61,0.02318
2775.46,0.02442
2752.32,0.02574
2729.17,0.02684
2706.03,0.02831
2682.88,0.03034
2659.74,0.03109
2636.59,0.03247
2613.45,0.03339
2590.3,0.03555
2567.16,0.03672
2544.02,0.03859
2520.87,0.04006
2497.73,0.04177
2474.58,0.04361
2451.44,0.04616
2428.29,0.04924
2405.15,0.05103
2382,0.05377
2358.86,0.05585
2335.71,0.05726
2312.57,0.05783
2289.42,0.05848
2266.28,0.05990
2243.13,0.05975
2219.99,0.05972
2196.84,0.06030
2173.7,0.06065
2150.55,0.06051
2127.41,0.06005
2104.26,0.06009
2081.12,0.06080
2057.97,0.06222
2034.83,0.06295
2011.68,0.06432
1988.54,0.06429
1965.39,0.06400
1942.25,0.06353
1919.1,0.06323
1895.96,0.06071
1872.81,0.05803
1849.67,0.05472
1826.52,0.04920
1803.38,0.04313
1780.23,0.03523
1757.09,0.02763
1733.94,0.01948
1710.8,0.01465
1687.65,0.01313
1664.51,0.01461
1641.36,0.01755
1618.22,0.01763
1595.07,0.01698
1571.93,0.01586
1548.78,0.01550
1525.64,0.01723
1502.49,0.01792
1479.35,0.01800
1456.2,0.01717
1433.06,0.01746
1409.91,0.01739
1386.77,0.01702
1363.62,0.01752
1340.48,0.01731
1317.33,0.01681
1294.19,0.01737
1271.04,0.01700
1247.9,0.01708
1224.75,0.01805
1201.61,0.01799
1178.46,0.01761
1155.32,0.01860
1132.17,0.01880
1109.03,0.01875
1085.88,0.01820
1062.74,0.01909
1039.59,0.01942
1016.45,0.02338
993.304,0.02496
970.159,0.02695
947.014,0.02728
923.869,0.02598
900.724,0.02581
877.579,0.02496
854.434,0.02457
831.289,0.02238
808.144,0.02100
784.999,0.02043
761.854,0.01812
738.709,0.01737
715.565,0.01727
692.42,0.01546
669.275,0.01591
646.13,0.01717
622.985,0.01561
599.84,0.01853

File: Wool_Rug_IS_S_220826_R7.dpt
7497.03,0.57487
7473.89,0.55645
7450.74,0.55652
7427.6,0.56146
7404.45,0.56203
7381.31,0.56406
7358.16,0.55213
7335.02,0.55757
7311.87,0.54453
7288.73,0.53129
7265.58,0.53544
7242.44,0.53971
7219.29,0.53176
7196.15,0.51853
7173,0.51469
7149.86,0.50622
7126.71,0.49441
7103.57,0.49091
7080.42,0.48409
7057.28,0.47842
7034.13,0.47616
7010.99,0.46861
6987.84,0.46744
6964.7,0.45781
6941.55,0.46069
6918.41,0.45377
6895.26,0.45049
6872.12,0.43784
6848.97,0.43465
6825.83,0.43241
6802.68,0.42587
6779.54,0.41786
6756.39,0.40723
6733.25,0.38844
6710.1,0.37483
6686.96,0.36170
6663.82,0.36438
6640.67,0.36701
6617.53,0.36285
6594.38,0.37202
6571.24,0.37464
6548.09,0.37977
6524.95,0.38998
6501.8,0.39487
6478.66,0.39992
6455.51,0.40694
6432.37,0.41799
6409.22,0.42224
6386.08,0.42073
6362.93,0.42357
6339.79,0.42546
6316.64,0.43162
6293.5,0.43482
6270.35,0.43821
6247.21,0.44758
6224.06,0.45073
6200.92,0.45238
6177.77,0.46098
6154.63,0.46489
6131.48,0.46865
6108.34,0.47077
6085.19,0.47044
6062.05,0.47160
6038.9,0.46851
6015.76,0.46056
5992.61,0.45021
5969.47,0.42948
5946.32,0.40608
5923.18,0.38169
5900.03,0.37345
5876.89,0.37103
5853.74,0.37488
5830.6,0.37116
5807.45,0.35974
5784.31,0.34744
5761.16,0.34236
5738.02,0.34337
5714.87,0.35552
5691.73,0.37516
5668.58,0.39150
5645.44,0.40183
5622.29,0.41121
5599.15,0.41484
5576,0.41434
5552.86,0.41516
5529.71,0.41576
5506.57,0.41744
5483.42,0.41924
5460.28,0.42514
5437.13,0.43071
5413.99,0.43166
5390.84,0.43587
5367.7,0.43235
5344.55,0.42860
5321.41,0.41383
5298.26,0.38581
5275.12,0.34551
5251.97,0.30563
5228.83,0.27602
5205.68,0.25807
5182.54,0.24340
5159.39,0.23522
5136.25,0.23526
5113.1,0.23607
5089.96,0.23112
5066.81,0.22167
5043.67,0.22088
5020.52,0.22436
4997.38,0.22734
4974.23,0.22502
4951.09,0.21880
4927.94,0.20606
4904.8,0.19127
4881.65,0.17548
4858.51,0.17087
4835.36,0.18377
4812.22,0.20158
4789.07,0.21423
4765.93,0.21826
4742.78,0.21762
4719.64,0.21174
4696.49,0.20009
4673.35,0.18351
4650.2,0.16608
4627.06,0.15006
4603.92,0.14290
4580.77,0.14401
4557.63,0.15019
4534.48,0.15681
4511.34,0.16394
4488.19,0.17215
4465.05,0.17238
4441.9,0.16189
4418.76,0.14530
4395.61,0.13607
4372.47,0.13003
4349.32,0.13086
4326.18,0.13514
4303.03,0.14037
4279.89,0.13788
4256.74,0.13750
4233.6,0.14193
4210.45,0.14671
4187.31,0.14948
4164.16,0.15132
4141.02,0.15003
4117.87,0.14835
4094.73,0.13976
4071.58,0.13092
4048.44,0.12599
4025.29,0.12792
4002.15,0.12822
3979,0.12614
3955.86,0.12338
3932.71,0.12156
3909.57,0.12716
3886.42,0.13814
3863.28,0.14634
3840.13,0.15218
3816.99,0.15661
3793.84,0.15797
3770.7,0.15581
3747.55,0.14833
3724.41,0.13693
3701.26,0.11542
3678.12,0.07872
3654.97,0.05205
3631.83,0.03756
3608.68,0.03075
3585.54,0.02581
3562.39,0.02254
3539.25,0.02085
3516.1,0.01989
3492.96,0.01934
3469.81,0.01829
3446.67,0.01862
3423.52,0.01824
3400.38,0.01779
3377.23,0.01720
3354.09,0.01700
3330.94,0.01732
3307.8,0.01677
3284.65,0.01700
3261.51,0.01749
3238.36,0.01780
3215.22,0.01766
3192.07,0.01857
3168.93,0.01860
3145.78,0.01854
3122.64,0.01900
3099.49,0.01897
3076.35,0.01836
3053.2,0.01894
3030.06,0.01933
3006.91,0.01972
2983.77,0.01847
2960.62,0.01749
2937.48,0.01762
2914.33,0.01819
2891.19,0.01898
2868.04,0.01916
2844.9,0.02129
2821.75,0.02283
2798.61,0.02354
2775.46,0.02425
2752.32,0.02583
2729.17,0.02742
2706.03,0.02843
2682.88,0.03030
2659.74,0.03123
2636.59,0.03216
2613.45,0.03348
2590.3,0.03541
2567.16,0.03691
2544.02,0.03857
2520.87,0.04012
2497.73,0.04158
2474.58,0.04381
2451.44,0.04599
2428.29,0.04868
2405.15,0.05138
2382,0.05407
2358.86,0.05564
2335.71,0.05685
2312.57,0.05813
2289.42,0.05899
2266.28,0.06028
2243.13,0.05989
2219.99,0.06044
2196.84,0.06067
2173.7,0.06100
2150.55,0.06083
2127.41,0.06085
2104.26,0.06082
2081.12,0.06130
2057.97,0.06255
2034.83,0.06348
2011.68,0.06473
1988.54,0.06470
1965.39,0.06414
1942.25,0.06441
1919.1,0.06353
1895.96,0.06096
1872.81,0.05847
1849.67,0.05501
1826.52,0.04939
1803.38,0.04311
1780.23,0.03555
1757.09,0.02717
1733.94,0.01934
1710.8,0.01476
1687.65,0.01347
1664.51,0.01508
1641.36,0.01743
1618.22,0.01762
1595.07,0.01687
1571.93,0.01569
1548.78,0.01529
1525.64,0.01713
1502.49,0.01816
1479.35,0.01809
1456.2,0.01712
1433.06,0.01768
1409.91,0.01710
1386.77,0.01725
1363.62,0.01748
1340.48,0.01720
1317.33,0.01738
1294.19,0.01684
1271.04,0.01711
1247.9,0.01691
1224.75,0.01781
1201.61,0.01813
1178.46,0.01829
1155.32,0.01779
1132.17,0.01863
1109.03,0.01812
1085.88,0.01881
1062.74,0.01937
1039.59,0.01897
1016.45,0.02300
993.304,0.02457
970.159,0.02725
947.014,0.02709
923.869,0.02632
900.724,0.02646
877.579,0.02483
854.434,0.02450
831.289,0.02229
808.144,0.02162
784.999,0.02013
761.854,0.01808
738.709,0.01775
715.565,0.01695
692.42,0.01588
669.275,0.01618
646.13,0.01509
622.985,0.01356
599.84,0.01383

File: Wool_Rug_IS_S_220826_R8.dpt
7497.03,0.56221
7473.89,0.56841
7450.74,0.56288
7427.6,0.56281
7404.45,0.55326
7381.31,0.54173
7358.16,0.54578
7335.02,0.53711
7311.87,0.54384
7288.73,0.54008
7265.58,0.53936
7242.44,0.52943
7219.29,0.52528
7196.15,0.51312
7173,0.51461
7149.86,0.51606
7126.71,0.50226
7103.57,0.49794
7080.42,0.48728
7057.28,0.48267
7034.13,0.48327
7010.99,0.46574
6987.84,0.46709
6964.7,0.46390
6941.55,0.46225
6918.41,0.45217
6895.26,0.44852
6872.12,0.44341
6848.97,0.43321
6825.83,0.43657
6802.68,0.42777
6779.54,0.42537
6756.39,0.40473
6733.25,0.38844
6710.1,0.37564
6686.96,0.36559
6663.82,0.36321
6640.67,0.36625
6617.53,0.36822
6594.38,0.36760
6571.24,0.37228
6548.09,0.38410
6524.95,0.39055
6501.8,0.39263
6478.66,0.40574
6455.51,0.41431
6432.37,0.41479
6409.22,0.42249
6386.08,0.42363
6362.93,0.42233
6339.79,0.42555
6316.64,0.42979
6293.5,0.43705
6270.35,0.44065
6247.21,0.44554
6224.06,0.44936
6200.92,0.45419
6177.77,0.45779
6154.63,0.46364
6131.48,0.46765
6108.34,0.47062
6085.19,0.47181
6062.05,0.47179
6038.9,0.47004
6015.76,0.46292
5992.61,0.44919
5969.47,0.42832
5946.32,0.40541
5923.18,0.38189
5900.03,0.36830
5876.89,0.37043
5853.74,0.37522
5830.6,0.36884
5807.45,0.35709
5784.31,0.34850
5761.16,0.34173
5738.02,0.34257
5714.87,0.35663
5691.73,0.37465
5668.58,0.38665
5645.44,0.40148
5622.29,0.41023
5599.15,0.41594
5576,0.41497
5552.86,0.41526
5529.71,0.41554
5506.57,0.41575
5483.42,0.41834
5460.28,0.42448
5437.13,0.42842
5413.99,0.43256
5390.84,0.43360
5367.7,0.43333
5344.55,0.42808
5321.41,0.41522
5298.26,0.38853
5275.12,0.34711
5251.97,0.30991
5228.83,0.28176
5205.68,0.26070
5182.54,0.24904
5159.39,0.24140
5136.25,0.23889
5113.1,0.23862
5089.96,0.23288
5066.81,0.22313
5043.67,0.22214
5020.52,0.22563
4997.38,0.22678
4974.23,0.22646
4951.09,0.21918
4927.94,0.20690
4904.8,0.19044
4881.65,0.17551
4858.51,0.17040
4835.36,0.18285
4812.22,0.20057
4789.07,0.21299
4765.93,0.21936
4742.78,0.21750
4719.64,0.21179
4696.49,0.20014
4673.35,0.18288
4650.2,0.16651
4627.06,0.15043
4603.92,0.14322
4580.77,0.14386
4557.63,0.14932
4534.48,0.15645
4511.34,0.16470
4488.19,0.17229
4465.05,0.17229
4441.9,0.16212
4418.76,0.14370
4395.61,0.13628
4372.47,0.13044
4349.32,0.13084
4326.18,0.13495
4303.03,0.13958
4279.89,0.13808
4256.74,0.13678
4233.6,0.14139
4210.45,0.14644
4187.31,0.14927
4164.16,0.15113
4141.02,0.15027
4117.87,0.14911
4094.73,0.13999
4071.58,0.13031
4048.44,0.12568
4025.29,0.12882
4002.15,0.12850
3979,0.12663
3955.86,0.12432
3932.71,0.12221
3909.57,0.12767
3886.42,0.13842
3863.28,0.14693
3840.13,0.15275
3816.99,0.15698
3793.84,0.15799
3770.7,0.15724
3747.55,0.15037
3724.41,0.13902
3701.26,0.11712
3678.12,0.08166
3654.97,0.05336
3631.83,0.03835
3608.68,0.03026
3585.54,0.02638
3562.39,0.02327
3539.25,0.02152
3516.1,0.02026
3492.96,0.01895
3469.81,0.01854
3446.67,0.01796
3423.52,0.01774
3400.38,0.01770
3377.23,0.01657
3354.09,0.01667
3330.94,0.01715
3307.8,0.01719
3284.65,0.01789
3261.51,0.01753
3238.36,0.01724
3215.22,0.01775
3192.07,0.01825
3168.93,0.01903
3145.78,0.01868
3122.64,0.01912
3099.49,0.01887
3076.35,0.01869
3053.2,0.01901
3030.06,0.01884
3006.91,0.01921
2983.77,0.01839
2960.62,0.01752
2937.48,0.01780
2914.33,0.01810
2891.19,0.01922
2868.04,0.01957
2844.9,0.02070
2821.75,0.02283
2798.61,0.02367
2775.46,0.02424
2752.32,0.02581
2729.17,0.02670
2706.03,0.02886
2682.88,0.02955
2659.74,0.03096
2636.59,0.03195
2613.45,0.03344
2590.3,0.03533
2567.16,0.03671
2544.02,0.03858
2520.87,0.04023
2497.73,0.04145
2474.58,0.04353
2451.44,0.04649
2428.29,0.04846
2405.15,0.05101
2382,0.05335
2358.86,0.05596
2335.71,0.05695
2312.57,0.05817
2289.42,0.05888
2266.28,0.06017
2243.13,0.06020
2219.99,0.06069
2196.84,0.06070
2173.7,0.06125
2150.55,0.06138
2127.41,0.06102
2104.26,0.06106
2081.12,0.06186
2057.97,0.06264
2034.83,0.06389
2011.68,0.06481
1988.54,0.06494
1965.39,0.06457
1942.25,0.06443
1919.1,0.06359
1895.96,0.06073
1872.81,0.05813
1849.67,0.05498
1826.52,0.04961
1803.38,0.04300
1780.23,0.03540
1757.09,0.02729
1733.94,0.01962
1710.8,0.01498
1687.65,0.01365
1664.51,0.01517
1641.36,0.01722
1618.22,0.01732
1595.07,0.01686
1571.93,0.01633
1548.78,0.01556
1525.64,0.01740
1502.49,0.01796
1479.35,0.01789
1456.2,0.01747
1433.06,0.01758
1409.91,0.01706
1386.77,0.01685
1363.62,0.01718
1340.48,0.01707
1317.33,0.01677
1294.19,0.01689
1271.04,0.01738
1247.9,0.01688
1224.75,0.01789
1201.61,0.01870
1178.46,0.01780
1155.32,0.01844
1132.17,0.01867
1109.03,0.01824
1085.88,0.01899
1062.74,0.01953
1039.59,0.01915
1016.45,0.02268
993.304,0.02592
970.159,0.02761
947.014,0.02729
923.869,0.02620
900.724,0.02637
877.579,0.02473
854.434,0.02390
831.289,0.02253
808.144,0.02107
784.999,0.01976
761.854,0.01890
738.709,0.01825
715.565,0.01679
692.42,0.01548
669.275,0.01571
646.13,0.01378
622.985,0.01737
599.84,0.01788

File: Wool_Rug_IS_T_220826_R1.dpt
7497.03,0.02452
7473.89,0.02569
7450.74,0.02472
7427.6,0.02558
7404.45,0.02168
7381.31,0.02708
7358.16,0.02214
7335.02,0.02475
7311.87,0.03058
7288.73,0.02493
7265.58,0.03024
7242.44,0.02787
7219.29,0.02166
7196.15,0.02222
7173,0.02236
7149.86,0.02367
7126.71,0.02369
7103.57,0.02157
7080.42,0.02777
7057.28,0.02642
7034.13,0.02578
7010.99,0.02549
6987.84,0.02148
6964.7,0.02272
6941.55,0.02372
6918.41,0.02420
6895.26,0.02549
6872.12,0.02297
6848.97,0.02732
6825.83,0.02320
6802.68,0.02058
6779.54,0.02244
6756.39,0.02679
6733.25,0.02532
6710.1,0.02663
6686.96,0.02589
6663.82,0.02309
6640.67,0.02070
6617.53,0.02591
6594.38,0.01792
6571.24,0.02581
6548.09,0.01948
6524.95,0.02956
6501.8,0.02262
6478.66,0.02589
6455.51,0.02526
6432.37,0.02339
6409.22,0.02355
6386.08,0.02516
6362.93,0.02097
6339.79,0.01918
6316.64,0.02300
6293.5,0.02114
6270.35,0.02121
6247.21,0.02337
6224.06,0.02149
6200.92,0.02202
6177.77,0.02156
6154.63,0.02319
6131.48,0.02285
6108.34,0.02438
6085.19,0.01942
6062.05,0.02245
6038.9,0.02144
6015.76,0.02078
5992.61,0.02357
5969.47,0.02292
5946.32,0.02392
5923.18,0.02229
5900.03,0.02354
5876.89,0.02244
5853.74,0.02057
5830.6,0.02166
5807.45,0.02233
5784.31,0.02255
5761.16,0.02156
5738.02,0.02368
5714.87,0.02318
5691.73,0.02385
5668.58,0.02222
5645.44,0.02197
5622.29,0.02257
5599.15,0.02181
5576,0.02167
5552.86,0.02223
5529.71,0.02151
5506.57,0.02059
5483.42,0.02411
5460.28,0.02183
5437.13,0.02268
5413.99,0.02275
5390.84,0.02382
5367.7,0.02129
5344.55,0.02246
5321.41,0.02287
5298.26,0.02314
5275.12,0.02216
5251.97,0.02179
5228.83,0.02295
5205.68,0.02167
5182.54,0.02240
5159.39,0.02251
5136.25,0.02173
5113.1,0.02306
5089.96,0.02184
5066.81,0.02313
5043.67,0.02216
5020.52,0.02266
4997.38,0.02249
4974.23,0.02093
4951.09,0.02177
4927.94,0.02166
4904.8,0.02112
4881.65,0.02190
4858.51,0.02173
4835.36,0.02257
4812.22,0.02259
4789.07,0.02201
4765.93,0.02310
4742.78,0.02197
4719.64,0.02263
4696.49,0.02144
4673.35,0.02235
4650.2,0.02291
4627.06,0.02159
4603.92,0.02293
4580.77,0.02327
4557.63,0.02231
4534.48,0.02306
4511.34,0.02168
4488.19,0.02279
4465.05,0.02230
4441.9,0.02290
4418.76,0.02143
4395.61,0.02294
4372.47,0.02246
4349.32,0.02298
4326.18,0.02221
4303.03,0.02246
4279.89,0.02276
4256.74,0.02303
4233.6,0.02209
4210.45,0.02298
4187.31,0.02278
4164.16,0.02278
4141.02,0.02284
4117.87,0.02264
4094.73,0.02270
4071.58,0.02234
4048.44,0.02208
4025.29,0.02320
4002.15,0.02327
3979,0.02267
3955.86,0.02292
3932.71,0.02239
3909.57,0.02245
3886.42,0.02313
3863.28,0.02296
3840.13,0.02208
3816.99,0.02316
3793.84,0.02255
3770.7,0.02255
3747.55,0.02280
3724.41,0.02289
3701.26,0.02247
3678.12,0.02222
3654.97,0.02230
3631.83,0.02133
3608.68,0.02172
3585.54,0.02141
3562.39,0.02129
3539.25,0.02059
3516.1,0.02044
3492.96,0.02104
3469.81,0.02061
3446.67,0.02082
3423.52,0.02044
3400.38,0.02087
3377.23,0.02022
3354.09,0.02019
3330.94,0.02101
3307.8,0.01983
3284.65,0.02081
3261.51,0.02092
3238.36,0.02064
3215.22,0.02103
3192.07,0.02121
3168.93,0.02046
3145.78,0.02051
3122.64,0.02044
3099.49,0.02100
3076.35,0.02022
3053.2,0.02082
3030.06,0.02063
3006.91,0.02004
2983.77,0.01992
2960.62,0.01949
2937.48,0.02007
2914.33,0.01965
2891.19,0.02078
2868.04,0.02082
2844.9,0.02124
2821.75,0.02155
2798.61,0.02106
2775.46,0.02132
2752.32,0.02100
2729.17,0.02092
2706.03,0.02122
2682.88,0.02113
2659.74,0.02117
2636.59,0.02123
2613.45,0.02149
2590.3,0.02122
2567.16,0.02130
2544.02,0.02126
2520.87,0.02120
2497.73,0.02109
2474.58,0.02064
2451.44,0.02110
2428.29,0.02118
2405.15,0.02081
2382,0.02104
2358.86,0.02077
2335.71,0.02127
2312.57,0.02096
2289.42,0.02123
2266.28,0.02090
2243.13,0.02138
2219.99,0.02109
2196.84,0.02091
2173.7,0.02099
2150.55,0.02084
2127.41,0.02101
2104.26,0.02123
2081.12,0.02053
2057.97,0.02067
2034.83,0.02083
2011.68,0.02082
1988.54,0.02068
1965.39,0.02046
1942.25,0.02089
1919.1,0.02077
1895.96,0.02065
1872.81,0.02009
1849.67,0.02015
1826.52,0.01997
1803.38,0.01948
1780.23,0.01890
1757.09,0.01769
1733.94,0.02016
1710.8,0.02040
1687.65,0.01880
1664.51,0.01872
1641.36,0.01838
1618.22,0.01910
1595.07,0.01855
1571.93,0.01811
1548.78,0.01834
1525.64,0.01844
1502.49,0.01861
1479.35,0.01822
1456.2,0.01794
1433.06,0.01887
1409.91,0.01786
1386.77,0.01801
1363.62,0.01776
1340.48,0.01777
1317.33,0.01684
1294.19,0.01781
1271.04,0.01883
1247.9,0.02026
1224.75,0.01904
1201.61,0.01824
1178.46,0.01787
1155.32,0.01784
1132.17,0.01786
1109.03,0.01880
1085.88,0.01766
1062.74,0.01937
1039.59,0.01990
1016.45,0.01902
993.304,0.02100
970.159,0.02010
947.014,0.01991
923.869,0.01928
900.724,0.01916
877.579,0.01836
854.434,0.01841
831.289,0.01858
808.144,0.01823
784.999,0.01776
761.854,0.01821
738.709,0.01792
715.565,0.01823
692.42,0.01804
669.275,0.01759
646.13,0.01701
622.985,0.01539
599.84,0.01712