Folder: fsri_materials_database/01_Data/Wool_Rug/FTIR/IS

Note: README.md
# Materials and Products Database
### Repository of materials and products properties and fire test data to improve fire modeling and fire investigation.

This project was supported in part by Award No. 2019-DU-BX-0018, awarded by the National Institute of Justice, Office of Justice Programs, U.S. Department of Justice. The opinions, findings, and conclusions or recommendations expressed in this publication / program / exhibition are those of the author(s) and do not necessarily reflect those of the Department of Justice.

***
***

__Cite this database:__ "McKinnon, M., Weinschenk, C., Dow, N., DiDomizio, M., and Madrzykowski, D. Materials and Products Database (Version 1.0.0), Fire Safety Research Institute, UL Research Institutes. Columbia, MD 21045, 2023."

__Cite the Technical Reference Guide:__ "McKinnon, M., Weinschenk, C., and Madrzykowski, D. Materials and Products Database - Technical Reference Guide, Fire Safety Research Institute, UL Research Institutes. Columbia, MD 21045, 2023."

__Cite the User Guide:__ "McKinnon, M., and Weinschenk, C. Materials and Products Database - User Guide, Fire Safety Research Institute, UL Research Institutes. Columbia, MD 21045, 2023."

***
***

## Database Structure

## 01_Data/
Raw data generated from each apparatus are included here in plain-text format. The data is organized first by material, next by the short name of test apparatus used, and where applicable additional filtering by test settings.

### Test Apparatus and Data File Structure
- __Cone Calorimeter__ (Cone)
    + Data file structure includes the material, the short name for the apparatus, heat flux setting and scan/scalar, date of test, and replicate number. Scan is for the raw output data and scalar is for the initial conditions and high-level test parameters. 
        * Example: __MDF_Cone_HF25scalar_210323_R1__ stands for the first replicate of scalar data generated from a medium density fiber board test in cone calorimeter exposed to 25 kW/m<sup>2</sup> on March 23, 2021.
    + A _Cone_Notes.csv_ is generated for each material from the __plot_Cone_data.py__ script. For materials whose experiments deviated from typical behavior relevant pictures are included in the respective material directory.
- __Fourier Transform Infrared Spectrometer__ (FTIR)
    + The FTIR directory contains subdirectories for the Attenuated Total Reflectance method (ATR) and the Integrating Sphere (IS)
    + Data file structure for the ATR experiment files includes the material, the abbreviated name for the apparatus, date of test, and replicate number. 
        * Example: __MDF_ATR_210323_R5__ stands for the fifth replicate of data collected with the ATR accessory conducted on June 8, 2021.
    + Data file structure for the IS experiment files includes the material, the abbreviated name for the apparatus, the measurand, whether the test is a sample measurement or standard reference, date of test, and replicate number.
        * Example: __OSB_IS_REFLECT_MEAS_2

File: Wool_Rug_IS_S_220826_R1.dpt
7497.03,0.54541
7473.89,0.55327
7450.74,0.55436
7427.6,0.54652
7404.45,0.53983
7381.31,0.54657
7358.16,0.54063
7335.02,0.54004
7311.87,0.53551
7288.73,0.52996
7265.58,0.52502
7242.44,0.51646
7219.29,0.51645
7196.15,0.50839
7173,0.48895
7149.86,0.48554
7126.71,0.47370
7103.57,0.46322
7080.42,0.44771
7057.28,0.43642
7034.13,0.43074
7010.99,0.42414
6987.84,0.42309
6964.7,0.41408
6941.55,0.40635
6918.41,0.40078
6895.26,0.40423
6872.12,0.40082
6848.97,0.39360
6825.83,0.39533
6802.68,0.38957
6779.54,0.38297
6756.39,0.37654
6733.25,0.36287
6710.1,0.35588
6686.96,0.35502
6663.82,0.35088
6640.67,0.35194
6617.53,0.35176
6594.38,0.35565
6571.24,0.35698
6548.09,0.36707
6524.95,0.37215
6501.8,0.37781
6478.66,0.38387
6455.51,0.39336
6432.37,0.40077
6409.22,0.40347
6386.08,0.40531
6362.93,0.40540
6339.79,0.41190
6316.64,0.41192
6293.5,0.41461
6270.35,0.42213
6247.21,0.43069
6224.06,0.43550
6200.92,0.43906
6177.77,0.44392
6154.63,0.45064
6131.48,0.45232
6108.34,0.45433
6085.19,0.45704
6062.05,0.45826
6038.9,0.46040
6015.76,0.45363
5992.61,0.43932
5969.47,0.42073
5946.32,0.40031
5923.18,0.37870
5900.03,0.36815
5876.89,0.37026
5853.74,0.37151
5830.6,0.37001
5807.45,0.35756
5784.31,0.34667
5761.16,0.34008
5738.02,0.34114
5714.87,0.35444
5691.73,0.36780
5668.58,0.37960
5645.44,0.39134
5622.29,0.39686
5599.15,0.40011
5576,0.39984
5552.86,0.40164
5529.71,0.40261
5506.57,0.40389
5483.42,0.40917
5460.28,0.41295
5437.13,0.41662
5413.99,0.42060
5390.84,0.42035
5367.7,0.41680
5344.55,0.40563
5321.41,0.38380
5298.26,0.34169
5275.12,0.29200
5251.97,0.24655
5228.83,0.21473
5205.68,0.19515
5182.54,0.18286
5159.39,0.17758
5136.25,0.17857
5113.1,0.18326
5089.96,0.18578
5066.81,0.18523
5043.67,0.18970
5020.52,0.19504
4997.38,0.20111
4974.23,0.20522
4951.09,0.20233
4927.94,0.19558
4904.8,0.18506
4881.65,0.17052
4858.51,0.16695
4835.36,0.17905
4812.22,0.19474
4789.07,0.20682
4765.93,0.21247
4742.78,0.21200
4719.64,0.20663
4696.49,0.19738
4673.35,0.18283
4650.2,0.16785
4627.06,0.15198
4603.92,0.14446
4580.77,0.14534
4557.63,0.15022
4534.48,0.15705
4511.34,0.16452
4488.19,0.17269
4465.05,0.17309
4441.9,0.16278
4418.76,0.14679
4395.61,0.13851
4372.47,0.13290
4349.32,0.13282
4326.18,0.13732
4303.03,0.14189
4279.89,0.13891
4256.74,0.13721
4233.6,0.14158
4210.45,0.14589
4187.31,0.14680
4164.16,0.14703
4141.02,0.14502
4117.87,0.14131
4094.73,0.13338
4071.58,0.12375
4048.44,0.11884
4025.29,0.12010
4002.15,0.12009
3979,0.11818
3955.86,0.11715
3932.71,0.11638
3909.57,0.12125
3886.42,0.12990
3863.28,0.13587
3840.13,0.14004
3816.99,0.14080
3793.84,0.13914
3770.7,0.13423
3747.55,0.12512
3724.41,0.11136
3701.26,0.09025
3678.12,0.05713
3654.97,0.03631
3631.83,0.02768
3608.68,0.02292
3585.54,0.02059
3562.39,0.01999
3539.25,0.01970
3516.1,0.01876
3492.96,0.01871
3469.81,0.01762
3446.67,0.01836
3423.52,0.01804
3400.38,0.01735
3377.23,0.01720
3354.09,0.01707
3330.94,0.01717
3307.8,0.01744
3284.65,0.01695
3261.51,0.01765
3238.36,0.01758
3215.22,0.01805
3192.07,0.01832
3168.93,0.01794
3145.78,0.01891
3122.64,0.01821
3099.49,0.01823
3076.35,0.01860
3053.2,0.01912
3030.06,0.01922
3006.91,0.01890
2983.77,0.01890
2960.62,0.01815
2937.48,0.01749
2914.33,0.01840
2891.19,0.01967
2868.04,0.01940
2844.9,0.02166
2821.75,0.02217
2798.61,0.02361
2775.46,0.02520
2752.32,0.02606
2729.17,0.02749
2706.03,0.02941
2682.88,0.03066
2659.74,0.03223
2636.59,0.03361
2613.45,0.03451
2590.3,0.03642
2567.16,0.03786
2544.02,0.03996
2520.87,0.04138
2497.73,0.04282
2474.58,0.04512
2451.44,0.04740
2428.29,0.05039
2405.15,0.05214
2382,0.05449
2358.86,0.05579
2335.71,0.05673
2312.57,0.05660
2289.42,0.05724
2266.28,0.05678
2243.13,0.05612
2219.99,0.05556
2196.84,0.05507
2173.7,0.05458
2150.55,0.05407
2127.41,0.05397
2104.26,0.05363
2081.12,0.05470
2057.97,0.05665
2034.83,0.05828
2011.68,0.05956
1988.54,0.06042
1965.39,0.06114
1942.25,0.06180
1919.1,0.06124
1895.96,0.05887
1872.81,0.05701
1849.67,0.05407
1826.52,0.04910
1803.38,0.04273
1780.23,0.03553
1757.09,0.02788
1733.94,0.01998
1710.8,0.01521
1687.65,0.01359
1664.51,0.01474
1641.36,0.01710
1618.22,0.01775
1595.07,0.01714
1571.93,0.01635
1548.78,0.01579
1525.64,0.01758
1502.49,0.01858
1479.35,0.01870
1456.2,0.01750
1433.06,0.01768
1409.91,0.01731
1386.77,0.01751
1363.62,0.01763
1340.48,0.01777
1317.33,0.01701
1294.19,0.01712
1271.04,0.01731
1247.9,0.01763
1224.75,0.01777
1201.61,0.01881
1178.46,0.01861
1155.32,0.01854
1132.17,0.01891
1109.03,0.01846
1085.88,0.01879
1062.74,0.01968
1039.59,0.01975
1016.45,0.02360
993.304,0.02528
970.159,0.02623
947.014,0.02619
923.869,0.02546
900.724,0.02438
877.579,0.02417
854.434,0.02290
831.289,0.02015
808.144,0.01980
784.999,0.01864
761.854,0.01768
738.709,0.01704
715.565,0.01585
692.42,0.01627
669.275,0.01640
646.13,0.01646
622.985,0.01481
599.84,0.01552

File: Wool_Rug_IS_S_220826_R2.dpt
7497.03,0.55505
7473.89,0.56676
7450.74,0.55284
7427.6,0.56161
7404.45,0.54629
7381.31,0.53575
7358.16,0.54491
7335.02,0.53188
7311.87,0.53625
7288.73,0.53527
7265.58,0.53129
7242.44,0.52143
7219.29,0.52499
7196.15,0.51443
7173,0.50040
7149.86,0.49279
7126.71,0.48541
7103.57,0.47018
7080.42,0.46139
7057.28,0.44873
7034.13,0.44508
7010.99,0.43480
6987.84,0.42940
6964.7,0.42789
6941.55,0.42274
6918.41,0.42001
6895.26,0.41759
6872.12,0.41271
6848.97,0.41073
6825.83,0.40018
6802.68,0.39805
6779.54,0.39406
6756.39,0.38581
6733.25,0.37103
6710.1,0.36430
6686.96,0.35671
6663.82,0.35465
6640.67,0.35857
6617.53,0.35763
6594.38,0.36305
6571.24,0.36637
6548.09,0.37108
6524.95,0.37643
6501.8,0.38329
6478.66,0.39188
6455.51,0.39682
6432.37,0.40497
6409.22,0.40611
6386.08,0.41142
6362.93,0.41046
6339.79,0.41580
6316.64,0.41671
6293.5,0.42157
6270.35,0.43172
6247.21,0.43474
6224.06,0.44073
6200.92,0.44378
6177.77,0.45268
6154.63,0.45353
6131.48,0.45604
6108.34,0.46211
6085.19,0.46277
6062.05,0.46324
6038.9,0.46024
6015.76,0.45334
5992.61,0.44645
5969.47,0.42472
5946.32,0.40310
5923.18,0.38123
5900.03,0.37036
5876.89,0.37028
5853.74,0.37537
5830.6,0.37012
5807.45,0.36099
5784.31,0.34864
5761.16,0.34420
5738.02,0.34496
5714.87,0.35555
5691.73,0.37271
5668.58,0.38471
5645.44,0.39479
5622.29,0.40363
5599.15,0.40404
5576,0.40650
5552.86,0.40454
5529.71,0.40723
5506.57,0.41161
5483.42,0.41183
5460.28,0.41636
5437.13,0.42126
5413.99,0.42386
5390.84,0.42627
5367.7,0.42269
5344.55,0.41192
5321.41,0.39440
5298.26,0.35418
5275.12,0.30466
5251.97,0.26151
5228.83,0.23045
5205.68,0.21034
5182.54,0.19861
5159.39,0.19261
5136.25,0.19321
5113.1,0.19759
5089.96,0.19815
5066.81,0.19603
5043.67,0.19963
5020.52,0.20348
4997.38,0.20967
4974.23,0.21149
4951.09,0.20858
4927.94,0.19971
4904.8,0.18622
4881.65,0.17384
4858.51,0.16874
4835.36,0.18051
4812.22,0.19768
4789.07,0.21066
4765.93,0.21480
4742.78,0.21425
4719.64,0.20956
4696.49,0.19994
4673.35,0.18404
4650.2,0.16754
4627.06,0.15227
4603.92,0.14552
4580.77,0.14606
4557.63,0.15118
4534.48,0.15855
4511.34,0.16587
4488.19,0.17287
4465.05,0.17432
4441.9,0.16324
4418.76,0.14670
4395.61,0.13745
4372.47,0.13311
4349.32,0.13347
4326.18,0.13754
4303.03,0.14230
4279.89,0.14060
4256.74,0.13851
4233.6,0.14242
4210.45,0.14690
4187.31,0.14878
4164.16,0.14920
4141.02,0.14756
4117.87,0.14461
4094.73,0.13615
4071.58,0.12614
4048.44,0.12148
4025.29,0.12291
4002.15,0.12319
3979,0.12164
3955.86,0.11916
3932.71,0.11817
3909.57,0.12405
3886.42,0.13369
3863.28,0.13975
3840.13,0.14417
3816.99,0.14573
3793.84,0.14535
3770.7,0.14067
3747.55,0.13214
3724.41,0.11949
3701.26,0.09632
3678.12,0.06249
3654.97,0.03987
3631.83,0.02922
3608.68,0.02481
3585.54,0.02245
3562.39,0.02026
3539.25,0.02031
3516.1,0.01941
3492.96,0.01812
3469.81,0.01906
3446.67,0.01928
3423.52,0.01687
3400.38,0.01725
3377.23,0.01783
3354.09,0.01714
3330.94,0.01741
3307.8,0.01700
3284.65,0.01720
3261.51,0.01687
3238.36,0.01792
3215.22,0.01789
3192.07,0.01879
3168.93,0.01858
3145.78,0.01833
3122.64,0.01970
3099.49,0.01825
3076.35,0.01879
3053.2,0.01948
3030.06,0.01882
3006.91,0.01945
2983.77,0.01880
2960.62,0.01794
2937.48,0.01780
2914.33,0.01825
2891.19,0.01965
2868.04,0.01929
2844.9,0.02088
2821.75,0.02296
2798.61,0.02363
2775.46,0.02456
2752.32,0.02579
2729.17,0.02762
2706.03,0.02923
2682.88,0.03076
2659.74,0.03194
2636.59,0.03249
2613.45,0.03425
2590.3,0.03604
2567.16,0.03791
2544.02,0.03954
2520.87,0.04120
2497.73,0.04274
2474.58,0.04498
2451.44,0.04798
2428.29,0.04997
2405.15,0.05243
2382,0.05469
2358.86,0.05650
2335.71,0.05741
2312.57,0.05772
2289.42,0.05796
2266.28,0.05836
2243.13,0.05788
2219.99,0.05740
2196.84,0.05735
2173.7,0.05683
2150.55,0.05670
2127.41,0.05614
2104.26,0.05606
2081.12,0.05669
2057.97,0.05825
2034.83,0.06009
2011.68,0.06143
1988.54,0.06265
1965.39,0.06253
1942.25,0.06329
1919.1,0.06253
1895.96,0.06033
1872.81,0.05794
1849.67,0.05478
1826.52,0.04935
1803.38,0.04313
1780.23,0.03625
1757.09,0.02779
1733.94,0.01978
1710.8,0.01507
1687.65,0.01336
1664.51,0.01511
1641.36,0.01742
1618.22,0.01792
1595.07,0.01703
1571.93,0.01597
1548.78,0.01580
1525.64,0.01728
1502.49,0.01825
1479.35,0.01832
1456.2,0.01767
1433.06,0.01758
1409.91,0.01722
1386.77,0.01692
1363.62,0.01782
1340.48,0.01766
1317.33,0.01706
1294.19,0.01741
1271.04,0.01732
1247.9,0.01725
1224.75,0.01766
1201.61,0.01798
1178.46,0.01828
1155.32,0.01877
1132.17,0.01923
1109.03,0.01899
1085.88,0.01890
1062.74,0.01936
1039.59,0.01972
1016.45,0.02330
993.304,0.02538
970.159,0.02687
947.014,0.02668
923.869,0.02554
900.724,0.02505
877.579,0.02424
854.434,0.02321
831.289,0.02068
808.144,0.02014
784.999,0.01892
761.854,0.01722
738.709,0.01714
715.565,0.01758
692.42,0.01591
669.275,0.01591
646.13,0.01521
622.985,0.01535
599.84,0.01465

File: Wool_Rug_IS_S_220826_R3.dpt
7497.03,0.55096
7473.89,0.57674
7450.74,0.55217
7427.6,0.55886
7404.45,0.54974
7381.31,0.54218
7358.16,0.54249
7335.02,0.53897
7311.87,0.54363
7288.73,0.53333
7265.58,0.53764
7242.44,0.52402
7219.29,0.52525
7196.15,0.51076
7173,0.49963
7149.86,0.49875
7126.71,0.48348
7103.57,0.47734
7080.42,0.46888
7057.28,0.46089
7034.13,0.45307
7010.99,0.44035
6987.84,0.43689
6964.7,0.43676
6941.55,0.43982
6918.41,0.42460
6895.26,0.43084
6872.12,0.41796
6848.97,0.41700
6825.83,0.41165
6802.68,0.40843
6779.54,0.39936
6756.39,0.39352
6733.25,0.38139
6710.1,0.37041
6686.96,0.36261
6663.82,0.36310
6640.67,0.36432
6617.53,0.36274
6594.38,0.36294
6571.24,0.37481
6548.09,0.37365
6524.95,0.38324
6501.8,0.38532
6478.66,0.39582
6455.51,0.40292
6432.37,0.40972
6409.22,0.41657
6386.08,0.41612
6362.93,0.41568
6339.79,0.42343
6316.64,0.42451
6293.5,0.42562
6270.35,0.43475
6247.21,0.43752
6224.06,0.44726
6200.92,0.45005
6177.77,0.45451
6154.63,0.46033
6131.48,0.46208
6108.34,0.46351
6085.19,0.46747
6062.05,0.46691
6038.9,0.46249
6015.76,0.45919
5992.61,0.44859
5969.47,0.42607
5946.32,0.40507
5923.18,0.38219
5900.03,0.37141
5876.89,0.37125
5853.74,0.37481
5830.6,0.37227
5807.45,0.36259
5784.31,0.34963
5761.16,0.34141
5738.02,0.34641
5714.87,0.35656
5691.73,0.37339
5668.58,0.38746
5645.44,0.39821
5622.29,0.40602
5599.15,0.40850
5576,0.40721
5552.86,0.41027
5529.71,0.41100
5506.57,0.41354
5483.42,0.41666
5460.28,0.41964
5437.13,0.42626
5413.99,0.42871
5390.84,0.43144
5367.7,0.42643
5344.55,0.41734
5321.41,0.39960
5298.26,0.36380
5275.12,0.31509
5251.97,0.27373
5228.83,0.24375
5205.68,0.22398
5182.54,0.21059
5159.39,0.20578
5136.25,0.20594
5113.1,0.20780
5089.96,0.20788
5066.81,0.20463
5043.67,0.20555
5020.52,0.21079
4997.38,0.21569
4974.23,0.21706
4951.09,0.21264
4927.94,0.20296
4904.8,0.18899
4881.65,0.17643
4858.51,0.17154
4835.36,0.18221
4812.22,0.20014
4789.07,0.21309
4765.93,0.21829
4742.78,0.21763
4719.64,0.21129
4696.49,0.20195
4673.35,0.18418
4650.2,0.16891
4627.06,0.15294
4603.92,0.14645
4580.77,0.14673
4557.63,0.15170
4534.48,0.15878
4511.34,0.16666
4488.19,0.17426
4465.05,0.17502
4441.9,0.16359
4418.76,0.14714
4395.61,0.13856
4372.47,0.13322
4349.32,0.13354
4326.18,0.13725
4303.03,0.14180
4279.89,0.14107
4256.74,0.13903
4233.6,0.14341
4210.45,0.14765
4187.31,0.15042
4164.16,0.15178
4141.02,0.14915
4117.87,0.14666
4094.73,0.13816
4071.58,0.12862
4048.44,0.12410
4025.29,0.12563
4002.15,0.12509
3979,0.12380
3955.86,0.12111
3932.71,0.12096
3909.57,0.12611
3886.42,0.13549
3863.28,0.14306
3840.13,0.14791
3816.99,0.14981
3793.84,0.14915
3770.7,0.14630
3747.55,0.13757
3724.41,0.12513
3701.26,0.10221
3678.12,0.06741
3654.97,0.04252
3631.83,0.03178
3608.68,0.02545
3585.54,0.02267
3562.39,0.02025
3539.25,0.02038
3516.1,0.01995
3492.96,0.01871
3469.81,0.01844
3446.67,0.01760
3423.52,0.01802
3400.38,0.01754
3377.23,0.01734
3354.09,0.01719
3330.94,0.01732
3307.8,0.01640
3284.65,0.01696
3261.51,0.01858
3238.36,0.01813
3215.22,0.01840
3192.07,0.01860
3168.93,0.01836
3145.78,0.01849
3122.64,0.01855
3099.49,0.01888
3076.35,0.01884
3053.2,0.01906
3030.06,0.01950
3006.91,0.01904
2983.77,0.01860
2960.62,0.01786
2937.48,0.01768
2914.33,0.01874
2891.19,0.01954
2868.04,0.01936
2844.9,0.02116
2821.75,0.02319
2798.61,0.02317
2775.46,0.02465
2752.32,0.02591
2729.17,0.02743
2706.03,0.02935
2682.88,0.03058
2659.74,0.03211
2636.59,0.03283
2613.45,0.03447
2590.3,0.03627
2567.16,0.03789
2544.02,0.03958
2520.87,0.04127
2497.73,0.04261
2474.58,0.04471
2451.44,0.04730
2428.29,0.04992
2405.15,0.05236
2382,0.05505
2358.86,0.05684
2335.71,0.05763
2312.57,0.05873
2289.42,0.05939
2266.28,0.05923
2243.13,0.05918
2219.99,0.05900
2196.84,0.05880
2173.7,0.05837
2150.55,0.05841
2127.41,0.05777
2104.26,0.05810
2081.12,0.05876
2057.97,0.06022
2034.83,0.06157
2011.68,0.06311
1988.54,0.06384
1965.39,0.06396
1942.25,0.06402
1919.1,0.06335
1895.96,0.06092
1872.81,0.05868
1849.67,0.05535
1826.52,0.05002
1803.38,0.04363
1780.23,0.03608
1757.09,0.02791
1733.94,0.02016
1710.8,0.01504
1687.65,0.01363
1664.51,0.01456
1641.36,0.01725
1618.22,0.01807
1595.07,0.01678
1571.93,0.01608
1548.78,0.01597
1525.64,0.01746
1502.49,0.01848
1479.35,0.01833
1456.2,0.01716
1433.06,0.01771
1409.91,0.01713
1386.77,0.01698
1363.62,0.01751
1340.48,0.01746
1317.33,0.01729
1294.19,0.01747
1271.04,0.01722
1247.9,0.01700
1224.75,0.01769
1201.61,0.01829
1178.46,0.01854
1155.32,0.01867
1132.17,0.01845
1109.03,0.01838
1085.88,0.01830
1062.74,0.01956
1039.59,0.02028
1016.45,0.02283
993.304,0.02629
970.159,0.02711
947.014,0.02785
923.869,0.02564
900.724,0.02630
877.579,0.02492
854.434,0.02372
831.289,0.02125
808.144,0.02134
784.999,0.02001
761.854,0.01915
738.709,0.01809
715.565,0.01691
692.42,0.01620
669.275,0.01632
646.13,0.01525
622.985,0.01442
599.84,0.01505

File: Wool_Rug_IS_S_220826_R4.dpt
7497.03,0.55555
7473.89,0.56355
7450.74,0.55400
7427.6,0.55905
7404.45,0.55880
7381.31,0.54661
7358.16,0.54516
7335.02,0.54486
7311.87,0.54135
7288.73,0.53144
7265.58,0.52985
7242.44,0.52241
7219.29,0.53431
7196.15,0.51984
7173,0.51491
7149.86,0.50390
7126.71,0.49951
7103.57,0.47981
7080.42,0.47175
7057.28,0.46243
7034.13,0.45782
7010.99,0.45248
6987.84,0.44781
6964.7,0.45001
6941.55,0.44301
6918.41,0.43487
6895.26,0.43174
6872.12,0.42846
6848.97,0.42107
6825.83,0.42037
6802.68,0.41622
6779.54,0.40745
6756.39,0.39841
6733.25,0.38346
6710.1,0.37372
6686.96,0.36566
6663.82,0.36112
6640.67,0.36521
6617.53,0.35865
6594.38,0.36723
6571.24,0.36806
6548.09,0.37329
6524.95,0.38041
6501.8,0.39038
6478.66,0.39985
6455.51,0.40206
6432.37,0.41261
6409.22,0.41590
6386.08,0.42057
6362.93,0.41758
6339.79,0.42217
6316.64,0.42436
6293.5,0.42812
6270.35,0.43663
6247.21,0.44246
6224.06,0.44623
6200.92,0.45520
6177.77,0.45825
6154.63,0.45846
6131.48,0.46141
6108.34,0.46848
6085.19,0.46975
6062.05,0.46923
6038.9,0.46583
6015.76,0.45896
5992.61,0.44845
5969.47,0.42849
5946.32,0.40386
5923.18,0.38321
5900.03,0.37286
5876.89,0.37156
5853.74,0.37324
5830.6,0.37132
5807.45,0.36011
5784.31,0.35058
5761.16,0.34225
5738.02,0.34521
5714.87,0.35560
5691.73,0.37396
5668.58,0.38520
5645.44,0.40015
5622.29,0.40873
5599.15,0.41133
5576,0.41281
5552.86,0.41113
5529.71,0.41213
5506.57,0.41454
5483.42,0.41663
5460.28,0.41993
5437.13,0.42746
5413.99,0.43103
5390.84,0.43163
5367.7,0.42895
5344.55,0.42157
5321.41,0.40367
5298.26,0.37011
5275.12,0.32389
5251.97,0.28326
5228.83,0.25236
5205.68,0.23313
5182.54,0.21930
5159.39,0.21467
5136.25,0.21433
5113.1,0.21687
5089.96,0.21399
5066.81,0.20982
5043.67,0.21047
5020.52,0.21488
4997.38,0.21898
4974.23,0.21962
4951.09,0.21454
4927.94,0.20443
4904.8,0.19085
4881.65,0.17602
4858.51,0.17195
4835.36,0.18419
4812.22,0.20203
4789.07,0.21219
4765.93,0.21840
4742.78,0.21823
4719.64,0.21192
4696.49,0.20196
4673.35,0.18450
4650.2,0.16824
4627.06,0.15241
4603.92,0.14582
4580.77,0.14644
4557.63,0.15146
4534.48,0.15831
4511.34,0.16717
4488.19,0.17441
4465.05,0.17434
4441.9,0.16361
4418.76,0.14710
4395.61,0.13787
4372.47,0.13209
4349.32,0.13221
4326.18,0.13683
4303.03,0.14235
4279.89,0.14049
4256.74,0.13895
4233.6,0.14245
4210.45,0.14752
4187.31,0.14930
4164.16,0.15159
4141.02,0.15049
4117.87,0.14778
4094.73,0.13931
4071.58,0.12950
4048.44,0.12463
4025.29,0.12640
4002.15,0.12694
3979,0.12454
3955.86,0.12273
3932.71,0.12113
3909.57,0.12635
3886.42,0.13634
3863.28,0.14348
3840.13,0.14936
3816.99,0.15137
3793.84,0.15254
3770.7,0.14931
3747.55,0.14173
3724.41,0.12884
3701.26,0.10565
3678.12,0.07047
3654.97,0.04524
3631.83,0.03307
3608.68,0.02711
3585.54,0.02318
3562.39,0.02160
3539.25,0.02005
3516.1,0.01999
3492.96,0.01869
3469.81,0.01779
3446.67,0.01839
3423.52,0.01859
3400.38,0.01753
3377.23,0.01753
3354.09,0.01759
3330.94,0.01834
3307.8,0.01708
3284.65,0.01796
3261.51,0.01776
3238.36,0.01830
3215.22,0.01890
3192.07,0.01834
3168.93,0.01901
3145.78,0.01864
3122.64,0.01909
3099.49,0.01912
3076.35,0.01953
3053.2,0.01860
3030.06,0.01968
3006.91,0.01900
2983.77,0.01890
2960.62,0.01708
2937.48,0.01779
2914.33,0.01846
2891.19,0.01938
2868.04,0.01912
2844.9,0.02078
2821.75,0.02231
2798.61,0.02363
2775.46,0.02448
2752.32,0.02530
2729.17,0.02748
2706.03,0.02872
2682.88,0.03013
2659.74,0.03164
2636.59,0.03261
2613.45,0.03398
2590.3,0.03599
2567.16,0.03749
2544.02,0.03958
2520.87,0.04091
2497.73,0.04261
2474.58,0.04478
2451.44,0.04688
2428.29,0.04968
2405.15,0.05250
2382,0.05489
2358.86,0.05663
2335.71,0.05755
2312.57,0.05819
2289.42,0.05928
2266.28,0.05983
2243.13,0.05954
2219.99,0.05942
2196.84,0.05950
2173.7,0.05949
2150.55,0.05930
2127.41,0.05896
2104.26,0.05880
2081.12,0.05982
2057.97,0.06129
2034.83,0.06249
2011.68,0.06389
1988.54,0.06401
1965.39,0.06432
1942.25,0.06399
1919.1,0.06359
1895.96,0.06111
1872.81,0.05863
1849.67,0.05551
1826.52,0.05011
1803.38,0.04352
1780.23,0.03608
1757.09,0.02783
1733.94,0.02009
1710.8,0.01475
1687.65,0.01324
1664.51,0.01475
1641.36,0.01727
1618.22,0.01780
1595.07,0.01700
1571.93,0.01627
1548.78,0.01582
1525.64,0.01787
1502.49,0.01828
1479.35,0.01818
1456.2,0.01750
1433.06,0.01785
1409.91,0.01737
1386.77,0.01705
1363.62,0.01782
1340.48,0.01742
1317.33,0.01708
1294.19,0.01700
1271.04,0.01705
1247.9,0.01725
1224.75,0.01807
1201.61,0.01806
1178.46,0.01781
1155.32,0.01894
1132.17,0.01878
1109.03,0.01885
1085.88,0.01870
1062.74,0.01929
1039.59,0.01907
1016.45,0.02287
993.304,0.02557
970.159,0.02706
947.014,0.02764
923.869,0.02564
900.724,0.02610
877.579,0.02491
854.434,0.02424
831.289,0.02152
808.144,0.02074
784.999,0.01949
761.854,0.01929
738.709,0.01775
715.565,0.01540
692.42,0.01728
669.275,0.01619
646.13,0.01534
622.985,0.01437
599.84,0.01545