Folder: fsri_materials_database/01_Data/Overstuffed_Chair_Assembly/Cone

Note: README.md
# Materials and Products Database
### Repository of materials and products properties and fire test data to improve fire modeling and fire investigation.

This project was supported in part by Award No. 2019-DU-BX-0018, awarded by the National Institute of Justice, Office of Justice Programs, U.S. Department of Justice. The opinions, findings, and conclusions or recommendations expressed in this publication / program / exhibition are those of the author(s) and do not necessarily reflect those of the Department of Justice.

***
***

__Cite this database:__ "McKinnon, M., Weinschenk, C., Dow, N., DiDomizio, M., and Madrzykowski, D. Materials and Products Database (Version 1.0.0), Fire Safety Research Institute, UL Research Institutes. Columbia, MD 21045, 2023."

__Cite the Technical Reference Guide:__ "McKinnon, M., Weinschenk, C., and Madrzykowski, D. Materials and Products Database - Technical Reference Guide, Fire Safety Research Institute, UL Research Institutes. Columbia, MD 21045, 2023."

__Cite the User Guide:__ "McKinnon, M., and Weinschenk, C. Materials and Products Database - User Guide, Fire Safety Research Institute, UL Research Institutes. Columbia, MD 21045, 2023."

***
***

## Database Structure

## 01_Data/
Raw data generated from each apparatus are included here in plain-text format. The data is organized first by material, next by the short name of test apparatus used, and where applicable additional filtering by test settings.

### Test Apparatus and Data File Structure
- __Cone Calorimeter__ (Cone)
    + Data file structure includes the material, the short name for the apparatus, heat flux setting and scan/scalar, date of test, and replicate number. Scan is for the raw output data and scalar is for the initial conditions and high-level test parameters. 
        * Example: __MDF_Cone_HF25scalar_210323_R1__ stands for the first replicate of scalar data generated from a medium density fiber board test in cone calorimeter exposed to 25 kW/m<sup>2</sup> on March 23, 2021.
    + A _Cone_Notes.csv_ is generated for each material from the __plot_Cone_data.py__ script. For materials whose experiments deviated from typical behavior relevant pictures are included in the respective material directory.
- __Fourier Transform Infrared Spectrometer__ (FTIR)
    + The FTIR directory contains subdirectories for the Attenuated Total Reflectance method (ATR) and the Integrating Sphere (IS)
    + Data file structure for the ATR experiment files includes the material, the abbreviated name for the apparatus, date of test, and replicate number. 
        * Example: __MDF_ATR_210323_R5__ stands for the fifth replicate of data collected with the ATR accessory conducted on June 8, 2021.
    + Data file structure for the IS experiment files includes the material, the abbreviated name for the apparatus, the measurand, whether the test is a sample measurement or standard reference, date of test, and replicate number.
        * Example: __OSB_IS_REFLECT_MEAS_2

File: Overstuffed_Chair_Assembly_HRRPUA_25.csv
Time after Ignition,Overstuffed_Chair_Assembly_R1,Overstuffed_Chair_Assembly_R2,Overstuffed_Chair_Assembly_R3,Mean,Std. Dev.
0.0,30.3,137.5,66.9,78.3,54.5
0.75,38.7,140.3,75.5,84.8,51.4
1.5,49.1,143.0,83.8,92.0,47.5
2.25,60.3,144.5,92.2,99.0,42.5
3.0,69.9,141.8,98.9,103.5,36.2
3.75,77.2,147.1,108.9,111.1,35.0
4.5,88.1,149.6,111.4,116.4,31.1
5.25,97.7,152.1,115.9,121.9,27.7
6.0,107.8,156.4,116.4,126.9,25.9
6.75,116.7,155.7,122.8,131.7,21.0
7.5,126.1,155.2,124.4,135.2,17.3
8.25,131.8,157.8,129.6,139.7,15.7
9.0,140.2,160.9,136.8,146.0,13.1
9.75,146.9,159.5,143.3,149.9,8.5
10.5,150.9,161.8,152.8,155.1,5.8
11.25,156.4,165.4,150.5,157.4,7.5
12.0,165.4,167.5,162.0,165.0,2.8
12.75,171.1,164.7,158.7,164.8,6.2
13.5,173.1,165.0,162.8,167.0,5.4
14.25,187.0,166.7,166.6,173.4,11.7
15.0,195.4,167.4,165.2,176.0,16.9
15.75,200.8,168.3,164.8,178.0,19.9
16.5,201.4,173.0,163.0,179.1,19.9
17.25,211.6,169.7,161.7,181.0,26.8
18.0,219.8,172.1,161.3,184.4,31.1
18.75,218.7,178.1,161.3,186.0,29.5
19.5,221.5,183.5,161.9,189.0,30.1
20.25,230.1,192.3,159.6,194.0,35.3
21.0,234.2,196.7,168.2,199.7,33.1
21.75,243.3,204.5,164.6,204.1,39.4
22.5,245.3,208.8,173.2,209.1,36.0
23.25,256.4,221.2,173.1,216.9,41.8
24.0,259.7,225.0,173.4,219.4,43.5
24.75,265.7,227.2,175.3,222.7,45.4
25.5,266.3,234.6,175.1,225.4,46.3
26.25,268.0,240.4,177.4,228.6,46.4
27.0,268.5,242.0,180.0,230.1,45.4
27.75,268.4,241.9,181.3,230.5,44.6
28.5,267.8,249.9,192.4,236.7,39.4
29.25,264.5,259.7,198.6,240.9,36.7
30.0,264.6,258.8,203.9,242.5,33.5
30.75,275.0,279.5,212.6,255.7,37.4
31.5,277.5,275.7,211.8,255.0,37.4
32.25,273.0,280.7,218.9,257.5,33.7
33.0,274.4,284.7,220.2,259.8,34.6
33.75,274.3,284.8,227.8,262.3,30.3
34.5,269.2,287.9,224.9,260.7,32.3
35.25,263.1,306.7,221.4,263.7,42.7
36.0,269.9,295.9,227.1,264.3,34.8
36.75,262.8,303.2,229.9,265.3,36.7
37.5,266.2,306.9,233.7,268.9,36.7
38.25,259.1,312.2,236.3,269.2,38.9
39.0,266.7,326.6,227.3,273.5,50.0
39.75,262.5,327.3,237.5,275.8,46.3
40.5,262.5,340.4,234.9,279.3,54.7
41.25,260.0,336.7,239.0,278.6,51.4
42.0,259.4,347.9,231.9,279.7,60.6
42.75,260.0,339.0,242.7,280.5,51.4
43.5,258.3,335.2,256.7,283.4,44.8
44.25,262.7,337.2,270.7,290.2,40.9
45.0,271.8,340.7,263.8,292.1,42.3
45.75,272.9,347.0,265.8,295.2,45.0
46.5,264.2,342.2,271.4,292.6,43.1
47.25,276.6,335.9,275.0,295.8,34.7
48.0,272.6,346.2,279.1,299.3,40.8
48.75,283.0,355.0,277.8,305.3,43.1
49.5,276.5,352.1,278.9,302.5,42.9
50.25,275.6,353.5,282.8,304.0,43.0
51.0,280.7,355.8,286.4,307.6,41.8
51.75,282.7,352.8,287.6,307.7,39.2
52.5,276.9,362.8,287.6,309.1,46.8
53.25,281.6,361.3,280.4,307.8,46.4
54.0,281.0,362.3,289.0,310.8,44.8
54.75,282.4,358.7,290.8,310.6,41.8
55.5,275.8,365.3,289.3,310.1,48.2
56.25,285.2,353.7,290.9,309.9,38.0
57.0,281.9,364.4,303.3,316.5,42.8
57.75,283.0,361.0,295.3,313.1,42.0
58.5,283.2,363.5,295.7,314.1,43.2
59.25,288.7,361.1,297.4,315.7,39.5
60.0,288.5,362.1,294.4,315.0,40.9
60.75,292.7,359.6,294.8,315.7,38.0
61.5,286.8,367.5,283.6,312.6,47.5
62.25,296.7,364.8,291.3,317.6,40.9
63.0,298.2,362.2,290.5,317.0,39.4
63.75,290.5,355.7,293.9,313.4,36.7
64.5,299.7,374.0,288.4,320.7,46.5
65.25,289.2,356.1,291.1,312.1,38.1
66.0,296.7,359.4,292.2,316.1,37.6
66.75,297.0,360.2,295.9,317.7,36.8
67.5,305.2,358.8,287.3,317.1,37.2
68.25,305.7,365.3,304.4,325.1,34.8
69.0,307.0,355.1,298.1,320.1,30.7
69.75,312.1,352.6,301.0,321.9,27.2
70.5,313.7,359.2,303.5,325.5,29.6
71.25,313.1,357.1,307.2,325.8,27.2
72.0,308.2,347.5,303.9,319.8,24.0
72.75,310.8,355.1,301.6,322.5,28.6
73.5,310.8,349.6,306.6,322.3,23.7
74.25,308.9,341.5,296.4,315.6,23.3
75.0,305.8,344.1,306.6,318.8,21.9
75.75,299.8,341.6,306.6,316.0,22.4
76.5,309.7,336.2,300.0,315.3,18.7
77.25,306.7,335.7,303.3,315.3,17.8
78.0,315.5,333.7,295.6,314.9,19.0
78.75,313.7,341.7,296.5,317.3,22.8
79.5,308.8,332.6,293.2,311.5,19.8
80.25,310.4,326.4,286.3,307.7,20.2
81.0,305.2,322.2,285.9,304.4,18.1
81.75,308.0,311.4,284.1,301.1,14.9
82.5,305.3,309.9,285.9,300.4,12.8
83.25,301.2,293.5,281.1,291.9,10.1
84.0,299.1,296.2,283.8,293.1,8.1
84.75,305.9,294.0,288.1,296.0,9.0
85.5,300.2,292.2,280.4,290.9,9.9
86.25,326.2,291.3,281.4,299.6,23.5
87.0,327.2,284.4,276.7,296.1,27.2
87.75,327.7,285.7,281.5,298.3,25.6
88.5,331.1,284.6,273.5,296.4,30.6
89.25,318.6,283.3,268.8,290.2,25.6
90.0,329.6,285.9,268.0,294.5,31.7
90.75,316.8,280.1,269.9,288.9,24.7
91.5,303.8,280.9,264.7,283.1,19.7
92.25,296.7,282.0,267.2,282.0,14.8
93.0,291.8,276.3,266.9,278.3,12.6
93.75,291.0,275.4,269.4,278.6,11.1
94.5,288.1,264.6,264.9,272.5,13.5
95.25,282.6,262.0,264.6,269.7,11.2
96.0,284.7,257.6,268.2,270.2,13.6
96.75,284.5,259.6,255.7,266.6,15.6
97.5,276.1,259.8,268.0,268.0,8.2
98.25,282.0,257.4,264.9,268.1,12.6
99.0,283.3,258.9,262.2,268.1,13.3
99.75,278.3,258.4,266.2,267.6,10.0
100.5,275.1,264.4,265.3,268.2,5.9
101.25,269.6,261.0,272.8,267.8,6.1
102.0,268.8,266.6,271.2,268.9,2.3
102.75,255.4,275.1,265.9,265.5,9.9
103.5,261.5,280.7,274.3,272.2,9.8
104.25,257.8,290.2,281.9,276.7,16.9
105.0,255.9,294.1,272.7,274.2,19.2
105.75,253.1,294.6,268.7,272.1,20.9
106.5,246.0,303.6,262.0,270.6,29.7
107.25,246.2,296.5,260.0,267.5,26.0
108.0,241.5,298.9,249.9,263.5,31.0
108.75,235.7,310.8,244.5,263.7,41.1
109.5,243.4,311.8,238.0,264.4,41.1
110.25,235.2,303.1,236.6,258.3,38.8
111.0,235.6,304.0,228.5,256.0,41.7
111.75,241.9,286.9,233.1,254.0,28.9
112.5,236.6,285.8,235.6,252.7,28.7
113.25,239.3,260.7,230.5,243.5,15.5
114.0,236.7,249.0,237.8,241.2,6.8
114.75,238.8,231.9,232.7,234.5,3.8
115.5,243.8,219.7,229.1,230.9,12.2
116.25,242.2,207.8,232.3,227.4,17.7
117.0,234.3,195.1,230.4,219.9,21.6
117.75,231.0,185.1,234.2,216.8,27.4
118.5,228.3,174.0,229.1,210.5,31.6
119.25,221.4,162.2,228.5,204.0,36.4
120.0,215.3,151.1,228.4,198.3,41.4
120.75,220.9,142.8,224.1,196.0,46.0
121.5,214.1,130.5,228.7,191.1,53.0
122.25,209.6,118.6,224.3,184.2,57.3
123.0,209.6,110.8,220.5,180.3,60.4
123.75,204.3,101.5,216.8,174.2,63.3
124.5,197.4,94.6,222.8,171.6,67.9
125.25,194.7,86.7,218.0,166.5,70.1
126.0,189.6,80.0,220.6,163.4,73.8
126.75,184.2,75.1,220.2,159.8,75.5
127.5,181.2,70.6,210.3,154.0,73.8
128.25,178.2,64.9,208.8,150.6,75.8
129.0,170.6,61.0,205.2,145.6,75.2
129.75,164.5,56.2,197.7,139.5,74.0
130.5,163.6,52.5,195.0,137.0,74.9
131.25,158.6,49.6,193.5,133.9,75.0
132.0,157.8,47.6,193.3,132.9,76.0
132.75,156.6,45.7,191.2,131.2,76.0
133.5,152.6,43.8,182.7,126.3,73.1
134.25,151.5,41.3,179.6,124.1,73.1
135.0,148.6,38.7,175.7,121.0,72.6
135.75,148.3,36.7,172.3,119.1,72.4
136.5,149.1,33.4,165.3,116.0,71.9
137.25,146.6,31.4,164.0,114.0,72.1
138.0,144.2,28.8,158.3,110.4,71.0
138.75,144.0,27.7,154.8,108.8,70.5
139.5,147.0,25.3,151.0,107.8,71.4
140.25,144.0,23.9,147.7,105.2,70.4
141.0,145.7,22.3,145.3,104.4,71.1
141.75,150.4,21.5,138.8,103.6,71.3
142.5,145.2,20.1,133.8,99.7,69.2
143.25,144.7,18.6,129.5,97.6,68.8
144.0,142.8,17.6,124.3,94.9,67.6
144.75,141.6,16.3,124.0,94.0,67.9
145.5,134.0,15.6,117.6,89.1,64.2
146.25,129.9,15.0,115.6,86.8,62.6
147.0,127.3,14.3,113.8,85.1,61.7
147.75,121.1,13.6,109.0,81.2,58.9
148.5,120.3,12.8,107.4,80.2,58.7
149.25,116.4,11.8,103.2,77.1,57.0
150.0,114.2,11.0,100.1,75.1,56.0
150.75,110.8,10.1,95.2,72.0,54.2
151.5,106.9,9.9,92.6,69.8,52.3
152.25,102.6,9.5,88.7,66.9,50.2
153.0,97.4,9.1,85.4,64.0,47.9
153.75,92.5,8.4,82.7,61.2,46.0
154.5,87.1,8.4,78.1,57.9,43.1
155.25,84.1,8.1,76.0,56.1,41.7
156.0,79.4,7.7,69.4,52.2,38.9
156.75,76.2,7.3,66.5,50.0,37.3
157.5,73.8,7.3,62.3,47.8,35.6
158.25,70.9,6.6,57.8,45.1,34.0
159.0,68.6,6.1,54.3,43.0,32.8
159.75,65.1,5.8,51.6,40.8,31.1
160.5,61.6,5.5,47.6,38.2,29.2
161.25,60.0,5.2,43.5,36.3,28.1
162.0,58.2,5.0,40.1,34.4,27.0
162.75,55.4,5.0,36.4,32.3,25.5
163.5,53.7,4.8,32.6,30.4,24.5
164.25,51.9,4.8,29.6,28.8,23.6
165.0,50.1,4.8,26.9,27.2,22.6
165.75,48.9,4.8,25.0,26.2,22.1
166.5,46.6,4.7,23.4,24.9,21.0
167.25,45.0,4.6,21.1,23.6,20.3
168.0,43.0,,20.0,31.5,16.3
168.75,41.1,,,41.1,
169.5,40.6,,,40.6,
170.25,39.5,,,39.5,
171.0,38.0,,,38.0,
171.75,37.3,,,37.3,
172.5,35.9,,,35.9,
173.25,34.0,,,34.0,
174.0,32.0,,,32.0,
174.75,30.1,,,30.1,
175.5,27.9,,,27.9,
176.25,26.4,,,26.4,
177.0,24.9,,,24.9,
177.75,24.3,,,24.3,
178.5,22.6,,,22.6,
179.25,21.5,,,21.5,
180.0,20.6,,,20.6,
180.75,20.2,,,20.2,
181.5,19.6,,,19.6,
182.25,19.4,,,19.4,
183.0,19.0,,,19.0,
183.75,19.1,,,19.1,
184.5,18.9,,,18.9,
185.25,18.8,,,18.8,
186.0,18.7,,,18.7,
186.75,18.8,,,18.8,
187.5,18.3,,,18.3,
188.25,17.2,,,17.2,
189.0,16.6,,,16.6,
189.75,16.3,,,16.3,
190.5,15.6,,,15.6,
191.25,14.9,,,14.9,
192.0,14.4,,,14.4,

File: Overstuffed_Chair_Assembly_HRRPUA_50.csv
Time after Ignition,Overstuffed_Chair_Assembly_R1,Overstuffed_Chair_Assembly_R2,Overstuffed_Chair_Assembly_R3,Mean,Std. Dev.
0.0,42.6,46.0,24.7,37.8,11.4
0.5,42.8,57.2,31.0,43.7,13.2
1.0,44.1,66.1,41.7,50.6,13.5
1.5,45.2,83.1,55.9,61.4,19.6
2.0,45.6,97.1,69.0,70.6,25.8
2.5,48.0,113.8,83.2,81.7,32.9
3.0,49.8,126.0,96.5,90.8,38.4
3.5,55.8,139.8,108.7,101.4,42.5
4.0,61.7,146.4,119.1,109.0,43.2
4.5,72.2,155.6,129.6,119.1,42.7
5.0,81.4,163.4,135.6,126.8,41.7
5.5,92.7,169.1,147.7,136.5,39.4
6.0,104.0,171.4,151.4,142.3,34.7
6.5,111.0,176.6,161.1,149.6,34.3
7.0,118.2,184.1,168.1,156.8,34.4
7.5,131.2,183.0,175.6,163.3,28.0
8.0,145.1,183.9,182.0,170.3,21.9
8.5,148.7,189.0,192.8,176.8,24.4
9.0,163.5,192.0,190.7,182.1,16.1
9.5,166.7,194.6,197.0,186.1,16.9
10.0,173.3,192.9,193.8,186.7,11.6
10.5,183.5,197.1,195.7,192.1,7.5
11.0,192.1,195.9,199.3,195.8,3.6
11.5,192.4,203.4,199.2,198.3,5.6
12.0,200.2,202.9,199.9,201.0,1.6
12.5,199.6,201.9,198.2,199.9,1.9
13.0,207.2,204.9,202.0,204.7,2.6
13.5,210.9,204.4,192.6,202.6,9.3
14.0,208.1,203.1,198.0,203.1,5.1
14.5,203.9,205.2,196.6,201.9,4.6
15.0,213.8,210.6,191.0,205.1,12.4
15.5,217.2,203.4,194.1,204.9,11.6
16.0,211.9,207.1,196.7,205.3,7.8
16.5,210.0,203.7,195.5,203.1,7.3
17.0,214.3,207.8,194.0,205.3,10.4
17.5,209.6,214.9,190.2,204.9,13.0
18.0,212.0,213.7,191.6,205.8,12.3
18.5,209.7,214.0,194.2,206.0,10.4
19.0,212.0,219.9,190.5,207.5,15.2
19.5,212.7,218.7,193.1,208.2,13.4
20.0,210.5,215.3,192.9,206.2,11.8
20.5,203.3,216.8,193.3,204.5,11.8
21.0,208.5,226.2,194.9,209.8,15.7
21.5,205.7,217.0,194.5,205.7,11.2
22.0,206.9,220.6,194.8,207.4,12.9
22.5,208.2,215.0,198.2,207.1,8.4
23.0,208.4,216.8,202.6,209.3,7.1
23.5,208.7,216.4,200.6,208.6,7.9
24.0,211.0,218.1,206.6,211.9,5.8
24.5,212.2,216.0,209.4,212.5,3.3
25.0,216.7,224.4,213.0,218.0,5.8
25.5,214.1,222.6,220.1,219.0,4.4
26.0,218.7,228.7,220.3,222.6,5.4
26.5,217.7,226.0,232.7,225.5,7.5
27.0,216.7,234.6,232.7,228.0,9.8
27.5,217.9,239.6,252.7,236.7,17.6
28.0,216.4,248.6,260.3,241.8,22.7
28.5,218.7,257.2,263.0,246.3,24.1
29.0,224.3,275.5,281.5,260.4,31.5
29.5,232.8,289.4,311.7,278.0,40.7
30.0,233.4,299.7,319.6,284.2,45.1
30.5,242.7,324.1,342.3,303.0,53.0
31.0,249.1,335.9,341.8,308.9,51.9
31.5,256.1,362.7,371.0,329.9,64.1
32.0,274.0,363.1,387.3,341.5,59.7
32.5,288.0,386.1,419.4,364.5,68.3
33.0,290.4,394.7,425.9,370.3,70.9
33.5,300.8,414.7,445.6,387.1,76.3
34.0,307.7,424.3,455.5,395.8,77.9
34.5,322.8,447.4,475.1,415.1,81.1
35.0,327.2,452.1,496.2,425.2,87.7
35.5,354.4,471.8,520.3,448.9,85.3
36.0,363.6,465.4,536.2,455.1,86.8
36.5,381.8,489.4,551.0,474.1,85.6
37.0,392.3,501.1,575.7,489.7,92.2
37.5,425.4,506.1,588.7,506.8,81.7
38.0,448.0,558.2,634.1,546.8,93.6
38.5,453.7,529.3,596.7,526.6,71.5
39.0,497.8,560.7,684.4,580.9,94.9
39.5,502.2,572.1,687.9,587.4,93.8
40.0,491.9,570.9,654.9,572.6,81.5
40.5,513.8,611.0,677.2,600.7,82.2
41.0,547.7,585.7,721.8,618.4,91.5
41.5,539.7,605.1,701.1,615.3,81.2
42.0,576.1,643.1,712.8,644.0,68.4
42.5,567.7,615.6,753.1,645.4,96.2
43.0,583.2,654.6,742.1,660.0,79.6
43.5,621.4,650.1,734.7,668.7,58.9
44.0,623.9,648.4,763.7,678.7,74.7
44.5,638.3,630.1,729.2,665.8,55.0
45.0,650.1,648.6,723.9,674.2,43.0
45.5,685.6,656.5,746.9,696.3,46.1
46.0,684.6,655.7,756.0,698.7,51.6
46.5,683.2,664.7,761.5,703.1,51.4
47.0,746.4,672.9,761.9,727.1,47.6
47.5,712.2,645.8,774.0,710.7,64.1
48.0,721.2,664.1,786.3,723.9,61.2
48.5,744.4,662.6,806.5,737.9,72.2
49.0,732.1,651.3,783.1,722.1,66.5
49.5,753.7,687.5,782.0,741.1,48.5
50.0,737.9,664.7,781.9,728.2,59.2
50.5,764.3,682.2,767.4,738.0,48.3
51.0,773.6,643.5,793.1,736.7,81.3
51.5,753.0,675.4,785.3,737.9,56.5
52.0,789.4,680.4,798.5,756.1,65.7
52.5,777.9,707.0,769.8,751.6,38.8
53.0,794.6,690.9,781.0,755.5,56.4
53.5,791.1,674.6,745.1,736.9,58.7
54.0,752.3,687.6,774.6,738.2,45.2
54.5,775.4,651.8,777.5,734.9,72.0
55.0,766.4,667.6,746.8,726.9,52.3
55.5,800.1,665.0,764.1,743.1,70.0
56.0,805.1,690.4,749.9,748.5,57.3
56.5,819.0,667.1,768.6,751.6,77.3
57.0,818.2,665.8,751.3,745.1,76.4
57.5,787.5,671.8,717.8,725.7,58.3
58.0,801.4,650.2,697.5,716.4,77.4
58.5,811.1,648.0,707.0,722.0,82.6
59.0,788.6,651.1,715.0,718.2,68.8
59.5,805.6,650.1,707.8,721.2,78.6
60.0,809.6,663.1,693.2,722.0,77.4
60.5,799.4,646.2,677.7,707.8,80.9
61.0,784.6,654.9,668.5,702.7,71.3
61.5,764.8,617.4,639.5,673.9,79.5
62.0,765.3,636.4,658.3,686.7,69.0
62.5,764.9,622.5,635.8,674.4,78.6
63.0,798.8,596.6,625.4,673.6,109.4
63.5,764.9,619.1,615.2,666.4,85.3
64.0,767.0,602.8,604.1,658.0,94.5
64.5,733.1,584.4,588.3,635.3,84.8
65.0,742.9,566.9,572.6,627.5,100.0
65.5,752.3,571.5,530.8,618.2,117.9
66.0,734.7,573.6,525.1,611.1,109.7
66.5,730.6,551.0,514.9,598.9,115.6
67.0,694.6,550.0,503.2,582.6,99.8
67.5,706.7,550.3,485.0,580.7,113.9
68.0,673.9,547.9,463.9,561.9,105.7
68.5,679.9,530.0,452.8,554.2,115.5
69.0,660.6,527.2,437.4,541.7,112.3
69.5,649.8,523.1,430.1,534.3,110.3
70.0,656.9,515.1,418.0,530.0,120.1
70.5,626.8,512.1,412.5,517.1,107.2
71.0,626.4,497.4,391.9,505.2,117.4
71.5,648.3,477.7,372.7,499.6,139.1
72.0,623.1,463.8,360.7,482.5,132.2
72.5,604.5,455.5,356.8,472.2,124.7
73.0,581.8,456.2,340.9,459.7,120.5
73.5,583.8,449.9,322.7,452.1,130.6
74.0,568.9,436.0,321.3,442.1,123.9
74.5,566.5,423.5,304.7,431.6,131.1
75.0,542.4,416.7,293.8,417.6,124.3
75.5,536.0,416.4,285.9,412.8,125.1
76.0,524.4,403.1,278.4,401.9,123.0
76.5,521.6,382.0,275.9,393.2,123.2
77.0,509.4,376.1,265.9,383.8,122.0
77.5,499.6,369.1,261.9,376.9,119.0
78.0,490.2,359.3,250.7,366.8,119.9
78.5,489.0,340.6,249.9,359.8,120.7
79.0,461.4,332.2,240.7,344.7,110.9
79.5,460.0,316.7,233.7,336.8,114.5
80.0,455.8,306.8,228.1,330.2,115.6
80.5,456.2,303.1,220.8,326.7,119.4
81.0,456.4,288.1,214.6,319.7,124.0
81.5,438.1,278.2,207.1,307.8,118.3
82.0,429.1,270.4,200.2,299.9,117.3
82.5,429.6,262.3,194.5,295.5,121.0
83.0,401.9,251.5,191.1,281.5,108.6
83.5,399.6,242.9,182.6,275.1,112.0
84.0,387.9,237.7,178.4,268.0,108.0
84.5,366.6,228.3,172.8,255.9,99.8
85.0,359.5,222.5,166.1,249.4,99.5
85.5,349.2,215.7,158.1,241.0,98.0
86.0,324.5,202.7,150.9,226.0,89.1
86.5,313.1,191.5,141.2,215.3,88.4
87.0,295.8,185.5,136.0,205.8,81.8
87.5,276.9,177.7,126.9,193.8,76.3
88.0,256.8,168.4,119.4,181.5,69.6
88.5,244.3,162.8,112.0,173.0,66.7
89.0,229.1,156.2,107.4,164.2,61.3
89.5,207.1,149.3,101.0,152.5,53.1
90.0,197.0,142.6,98.0,145.9,49.6
90.5,186.8,134.8,91.9,137.8,47.5
91.0,170.6,128.9,86.1,128.6,42.2
91.5,158.1,121.3,81.9,120.4,38.1
92.0,147.0,118.8,77.1,114.3,35.2
92.5,139.5,112.7,72.2,108.1,33.9
93.0,128.9,104.9,68.7,100.8,30.3
93.5,119.0,99.3,63.8,94.1,28.0
94.0,109.6,93.5,60.6,87.9,25.0
94.5,104.3,87.6,55.7,82.5,24.7
95.0,97.2,83.6,52.1,77.6,23.1
95.5,93.1,79.5,48.8,73.8,22.7
96.0,87.3,75.5,45.6,69.5,21.5
96.5,82.8,73.9,42.9,66.5,20.9
97.0,80.7,69.8,40.8,63.8,20.6
97.5,74.7,65.3,,70.0,6.7
98.0,73.5,61.7,,67.6,8.3
98.5,69.8,59.2,,64.5,7.5
99.0,69.1,57.6,,63.3,8.1
99.5,64.9,54.2,,59.6,7.6
100.0,62.4,52.9,,57.7,6.8
100.5,60.9,49.3,,55.1,8.2
101.0,58.1,47.8,,52.9,7.2
101.5,55.9,44.9,,50.4,7.7
102.0,54.1,43.7,,48.9,7.4
102.5,53.1,42.2,,47.6,7.7
103.0,51.7,40.9,,46.3,7.6
103.5,50.8,39.7,,45.3,7.9
104.0,50.6,38.4,,44.5,8.6
104.25,50.0,38.3,,44.2,8.2

File: Overstuffed_Chair_Assembly_HRRPUA_75.csv
Time after Ignition,Overstuffed_Chair_Assembly_R1,Overstuffed_Chair_Assembly_R2,Overstuffed_Chair_Assembly_R3,Mean,Std. Dev.
0.0,13.5,23.5,14.6,17.2,5.5
0.5,19.9,36.9,32.2,29.7,8.8
1.0,28.5,54.2,46.9,43.2,13.2
1.5,36.2,65.1,70.6,57.3,18.5
2.0,52.5,85.5,90.7,76.3,20.7
2.5,65.6,97.4,111.3,91.4,23.4
3.0,82.6,109.9,128.6,107.0,23.2
3.5,96.7,121.5,143.0,120.4,23.2
4.0,107.8,134.5,162.0,134.8,27.1
4.5,125.2,142.1,175.2,147.5,25.4
5.0,135.6,148.9,183.3,155.9,24.6
5.5,144.2,157.0,200.6,167.3,29.5
6.0,155.6,161.1,202.4,173.0,25.6
6.5,165.1,163.4,212.2,180.2,27.7
7.0,173.6,166.7,218.0,186.1,27.9
7.5,178.3,174.2,227.3,193.3,29.5
8.0,183.6,176.9,227.4,195.9,27.4
8.5,191.0,184.7,236.8,204.2,28.4
9.0,190.1,187.6,239.3,205.7,29.2
9.5,192.7,191.7,240.5,208.3,27.9
10.0,194.4,194.7,238.4,209.2,25.3
10.5,198.2,199.1,242.2,213.2,25.2
11.0,199.6,198.0,241.5,213.0,24.6
11.5,202.7,203.9,239.7,215.4,21.1
12.0,200.0,208.3,247.4,218.6,25.3
12.5,202.5,207.6,240.9,217.0,20.8
13.0,197.7,213.8,240.0,217.2,21.3
13.5,199.3,217.8,240.0,219.0,20.3
14.0,201.2,216.2,247.5,221.6,23.6
14.5,203.8,212.3,248.9,221.7,24.0
15.0,203.8,220.9,257.9,227.5,27.6
15.5,202.9,222.2,270.6,231.9,34.8
16.0,211.9,225.0,280.2,239.1,36.3
16.5,209.0,232.8,295.3,245.7,44.6
17.0,215.5,238.6,314.6,256.2,51.8
17.5,217.5,249.1,315.5,260.7,50.0
18.0,221.6,253.5,337.0,270.7,59.6
18.5,221.6,260.9,349.8,277.4,65.7
19.0,220.7,285.3,360.2,288.7,69.8
19.5,230.1,299.5,370.9,300.2,70.4
20.0,233.6,335.4,406.0,325.0,86.7
20.5,240.5,354.3,416.3,337.0,89.2
21.0,249.2,398.9,456.6,368.2,107.0
21.5,258.9,432.4,483.5,391.6,117.7
22.0,276.9,447.7,495.0,406.6,114.7
22.5,285.9,475.6,537.3,432.9,131.0
23.0,300.3,508.8,567.8,459.0,140.5
23.5,316.7,566.5,596.9,493.4,153.8
24.0,348.3,575.0,693.7,539.0,175.5
24.5,383.2,604.5,658.9,548.9,146.0
25.0,391.6,590.5,687.4,556.5,150.8
25.5,418.9,666.9,701.2,595.7,154.0
26.0,448.1,753.4,739.2,646.9,172.3
26.5,449.5,704.2,796.7,650.1,179.8
27.0,470.5,709.0,790.0,656.5,166.1
27.5,470.0,792.0,842.6,701.5,202.1
28.0,503.2,779.4,846.9,709.9,182.1
28.5,531.9,827.4,847.3,735.6,176.6
29.0,546.1,847.5,849.9,747.8,174.7
29.5,576.1,852.2,874.2,767.5,166.1
30.0,557.7,912.1,930.4,800.1,210.1
30.5,659.4,1032.2,983.0,891.5,202.6
31.0,712.2,983.5,1028.9,908.2,171.2
31.5,734.4,1011.6,946.6,897.6,145.0
32.0,798.0,1067.3,979.7,948.3,137.4
32.5,831.0,1013.3,1017.4,953.9,106.4
33.0,819.9,1020.7,962.6,934.4,103.4
33.5,833.9,993.4,983.5,937.0,89.4
34.0,850.8,1145.8,1034.2,1010.3,149.0
34.5,846.7,1083.7,1064.0,998.1,131.5
35.0,867.2,1090.4,1068.5,1008.7,123.0
35.5,943.0,1138.0,1011.2,1030.7,99.0
36.0,971.5,1124.8,1023.3,1039.8,78.0
36.5,945.1,1078.0,1009.1,1010.7,66.4
37.0,964.0,1130.8,1081.0,1058.6,85.6
37.5,1042.5,1123.8,1022.3,1062.9,53.7
38.0,1039.7,1170.9,1087.4,1099.3,66.4
38.5,1008.6,1106.7,955.4,1023.6,76.8
39.0,990.0,1125.4,1017.9,1044.4,71.5
39.5,1081.2,1178.3,1044.3,1101.2,69.2
40.0,1001.9,1132.4,936.6,1023.7,99.7
40.5,1122.5,1143.7,1032.2,1099.5,59.2
41.0,1058.8,1086.6,971.2,1038.9,60.2
41.5,1066.5,1079.3,961.5,1035.8,64.7
42.0,1077.5,1162.3,951.2,1063.6,106.2
42.5,1073.8,1121.3,994.6,1063.2,64.0
43.0,1085.0,1033.3,961.5,1026.6,62.0
43.5,1073.3,986.3,919.8,993.1,77.0
44.0,1040.3,1072.7,969.8,1027.6,52.6
44.5,1001.1,1052.3,920.0,991.1,66.7
45.0,975.5,953.2,914.3,947.6,31.0
45.5,1114.1,968.1,915.9,999.4,102.7
46.0,1019.4,967.6,912.5,966.5,53.5
46.5,1009.8,985.7,876.8,957.4,70.9
47.0,964.8,894.0,895.9,918.2,40.3
47.5,1010.0,896.1,853.9,920.0,80.8
48.0,944.5,861.0,832.8,879.4,58.1
48.5,914.1,852.1,804.2,856.8,55.1
49.0,910.4,861.6,789.0,853.7,61.1
49.5,924.2,741.7,746.4,804.1,104.0
50.0,908.1,761.7,733.5,801.1,93.7
50.5,925.0,733.6,687.0,781.8,126.1
51.0,856.9,697.5,676.4,743.6,98.7
51.5,860.9,673.2,654.2,729.4,114.3
52.0,860.9,642.4,615.7,706.3,134.5
52.5,790.0,612.0,588.9,663.6,110.0
53.0,821.2,578.1,583.5,660.9,138.8
53.5,775.4,553.1,542.1,623.5,131.6
54.0,785.0,517.3,528.8,610.4,151.3
54.5,742.4,508.4,500.1,583.6,137.6
55.0,716.7,489.1,486.8,564.2,132.1
55.5,695.3,468.5,468.8,544.2,130.9
56.0,664.4,427.8,451.3,514.5,130.4
56.5,662.2,399.9,430.5,497.5,143.4
57.0,602.5,363.8,411.7,459.3,126.3
57.5,618.5,336.9,391.5,449.0,149.3
58.0,575.1,312.7,364.7,417.5,138.9
58.5,538.7,285.2,342.9,388.9,132.9
59.0,527.4,265.7,318.4,370.5,138.4
59.5,507.1,235.5,297.0,346.5,142.4
60.0,455.9,211.8,273.5,313.7,126.9
60.5,435.4,196.0,247.7,293.0,126.0
61.0,409.6,175.6,229.1,271.4,122.6
61.5,373.4,159.1,210.4,247.7,111.9
62.0,349.3,148.1,194.2,230.5,105.4
62.5,318.4,131.2,177.2,209.0,97.6
63.0,295.3,,162.6,228.9,93.9
63.5,271.1,,153.0,212.0,83.5
64.0,257.0,,136.8,196.9,85.0
64.5,236.8,,126.6,181.7,77.9
65.0,217.4,,118.5,168.0,69.9
65.5,199.7,,108.8,154.3,64.3
66.0,180.9,,,180.9,
66.5,170.6,,,170.6,
67.0,155.8,,,155.8,
67.5,144.2,,,144.2,
68.0,135.8,,,135.8,
68.5,125.7,,,125.7,
69.0,121.2,,,121.2,
69.5,112.9,,,112.9,
70.0,107.9,,,107.9,
70.5,102.6,,,102.6,
71.0,99.6,,,99.6,
71.5,93.2,,,93.2,
72.0,88.0,,,88.0,
72.5,83.4,,,83.4,
73.0,80.3,,,80.3,
73.5,77.5,,,77.5,
74.0,72.3,,,72.3,
74.5,69.8,,,69.8,
75.0,67.2,,,67.2,
75.5,64.6,,,64.6,
75.75,64.0,,,64.0,