Folder: fsri_materials_database/01_Data/Lightweight_Gypsum_Wallboard/Cone

Note: README.md
# Materials and Products Database
### Repository of materials and products properties and fire test data to improve fire modeling and fire investigation.

This project was supported in part by Award No. 2019-DU-BX-0018, awarded by the National Institute of Justice, Office of Justice Programs, U.S. Department of Justice. The opinions, findings, and conclusions or recommendations expressed in this publication / program / exhibition are those of the author(s) and do not necessarily reflect those of the Department of Justice.

***
***

__Cite this database:__ "McKinnon, M., Weinschenk, C., Dow, N., DiDomizio, M., and Madrzykowski, D. Materials and Products Database (Version 1.0.0), Fire Safety Research Institute, UL Research Institutes. Columbia, MD 21045, 2023."

__Cite the Technical Reference Guide:__ "McKinnon, M., Weinschenk, C., and Madrzykowski, D. Materials and Products Database - Technical Reference Guide, Fire Safety Research Institute, UL Research Institutes. Columbia, MD 21045, 2023."

__Cite the User Guide:__ "McKinnon, M., and Weinschenk, C. Materials and Products Database - User Guide, Fire Safety Research Institute, UL Research Institutes. Columbia, MD 21045, 2023."

***
***

## Database Structure

## 01_Data/
Raw data generated from each apparatus are included here in plain-text format. The data is organized first by material, next by the short name of test apparatus used, and where applicable additional filtering by test settings.

### Test Apparatus and Data File Structure
- __Cone Calorimeter__ (Cone)
    + Data file structure includes the material, the short name for the apparatus, heat flux setting and scan/scalar, date of test, and replicate number. Scan is for the raw output data and scalar is for the initial conditions and high-level test parameters. 
        * Example: __MDF_Cone_HF25scalar_210323_R1__ stands for the first replicate of scalar data generated from a medium density fiber board test in cone calorimeter exposed to 25 kW/m<sup>2</sup> on March 23, 2021.
    + A _Cone_Notes.csv_ is generated for each material from the __plot_Cone_data.py__ script. For materials whose experiments deviated from typical behavior relevant pictures are included in the respective material directory.
- __Fourier Transform Infrared Spectrometer__ (FTIR)
    + The FTIR directory contains subdirectories for the Attenuated Total Reflectance method (ATR) and the Integrating Sphere (IS)
    + Data file structure for the ATR experiment files includes the material, the abbreviated name for the apparatus, date of test, and replicate number. 
        * Example: __MDF_ATR_210323_R5__ stands for the fifth replicate of data collected with the ATR accessory conducted on June 8, 2021.
    + Data file structure for the IS experiment files includes the material, the abbreviated name for the apparatus, the measurand, whether the test is a sample measurement or standard reference, date of test, and replicate number.
        * Example: __OSB_IS_REFLECT_MEAS_2

File: Lightweight_Gypsum_Wallboard_HRRPUA_25.csv
Time after Ignition,Lightweight_Gypsum_Wallboard_R1,Lightweight_Gypsum_Wallboard_R2,Lightweight_Gypsum_Wallboard_R3,Mean,Std. Dev.
0.0,18.3,21.8,15.2,18.4,3.3
0.25,20.5,24.8,16.8,20.7,4.0
0.5,22.4,27.0,18.6,22.7,4.2
0.75,26.5,28.8,21.8,25.7,3.6
1.0,28.9,33.4,25.9,29.4,3.8
1.25,31.8,37.0,29.4,32.7,3.9
1.5,34.3,40.8,31.8,35.6,4.6
1.75,36.2,43.5,34.0,37.9,5.0
2.0,38.4,48.7,40.0,42.3,5.6
2.25,41.8,53.9,44.5,46.7,6.4
2.5,45.3,57.2,48.1,50.2,6.2
2.75,48.2,61.1,52.8,54.0,6.6
3.0,50.5,63.4,56.4,56.8,6.5
3.25,51.9,68.0,60.0,60.0,8.0
3.5,54.8,69.9,65.4,63.4,7.8
3.75,58.7,74.8,70.5,68.0,8.3
4.0,61.0,77.6,74.7,71.1,8.9
4.25,63.6,80.1,77.3,73.7,8.8
4.5,68.7,83.6,80.5,77.6,7.9
4.75,68.4,87.2,82.8,79.5,9.9
5.0,71.4,89.8,87.8,83.0,10.1
5.25,73.5,89.6,88.4,83.8,9.0
5.5,76.7,93.0,91.7,87.1,9.0
5.75,78.2,94.6,94.3,89.1,9.4
6.0,78.6,95.8,95.0,89.8,9.7
6.25,80.5,96.7,96.0,91.1,9.2
6.5,81.7,99.7,96.6,92.7,9.6
6.75,84.1,100.9,98.0,94.3,9.0
7.0,83.1,100.6,99.2,94.3,9.7
7.25,84.4,101.3,97.9,94.5,8.9
7.5,87.6,100.8,97.1,95.1,6.8
7.75,86.4,101.9,96.1,94.8,7.8
8.0,87.3,103.5,97.0,95.9,8.1
8.25,87.3,103.2,94.7,95.1,8.0
8.5,86.5,102.0,95.0,94.5,7.8
8.75,86.7,100.3,92.6,93.2,6.8
9.0,85.9,98.7,91.6,92.0,6.4
9.25,88.1,97.6,91.0,92.2,4.9
9.5,86.7,98.1,90.8,91.8,5.8
9.75,85.2,94.5,89.6,89.7,4.7
10.0,85.5,93.4,88.6,89.2,3.9
10.25,83.2,91.0,86.4,86.9,3.9
10.5,82.5,88.4,84.4,85.1,3.0
10.75,80.6,86.1,84.0,83.6,2.8
11.0,80.3,84.7,81.3,82.1,2.3
11.25,77.3,81.4,78.7,79.1,2.1
11.5,75.7,80.5,76.2,77.5,2.6
11.75,72.1,76.5,75.8,74.8,2.4
12.0,70.4,74.4,74.0,72.9,2.2
12.25,69.9,72.1,70.6,70.9,1.2
12.5,68.9,70.0,68.8,69.2,0.6
12.75,66.1,66.8,67.9,66.9,0.9
13.0,62.7,65.5,68.0,65.4,2.6
13.25,61.2,62.7,65.5,63.1,2.2
13.5,59.1,60.3,62.9,60.8,1.9
13.75,57.3,58.1,60.9,58.8,1.9
14.0,55.3,56.7,58.9,56.9,1.8
14.25,52.9,54.4,56.6,54.6,1.9
14.5,50.8,53.3,54.4,52.8,1.8
14.75,49.3,51.1,52.7,51.0,1.7
15.0,47.1,51.1,51.1,49.8,2.3
15.25,46.1,48.0,49.4,47.8,1.6
15.5,44.5,47.1,47.3,46.3,1.6
15.75,43.4,45.6,46.1,45.0,1.5
16.0,42.1,44.4,,43.2,1.6
16.25,41.1,43.2,,42.2,1.4
16.5,39.8,41.5,,40.7,1.2
16.75,39.3,40.9,,40.1,1.2
17.0,38.1,40.5,,39.3,1.7
17.25,37.0,39.1,,38.0,1.5
17.5,35.6,37.4,,36.5,1.3

File: Lightweight_Gypsum_Wallboard_HRRPUA_50.csv
Time after Ignition,Lightweight_Gypsum_Wallboard_R1,Lightweight_Gypsum_Wallboard_R2,Lightweight_Gypsum_Wallboard_R3,Mean,Std. Dev.
0.0,44.8,28.0,39.5,37.5,8.6
0.25,44.5,32.9,47.0,41.4,7.5
0.5,50.7,37.0,54.8,47.5,9.3
0.75,62.1,41.7,61.0,54.9,11.5
1.0,71.3,51.0,72.8,65.1,12.2
1.25,81.9,58.4,82.1,74.1,13.6
1.5,89.8,65.6,89.0,81.5,13.8
1.75,96.0,77.2,96.2,89.8,10.9
2.0,104.4,86.3,104.9,98.5,10.6
2.25,108.6,95.2,111.4,105.1,8.6
2.5,116.0,96.3,118.5,110.3,12.1
2.75,123.6,103.8,123.6,117.0,11.5
3.0,131.7,110.7,132.6,125.0,12.4
3.25,140.0,123.5,138.4,134.0,9.1
3.5,147.6,132.0,142.4,140.7,8.0
3.75,151.0,142.4,153.4,148.9,5.8
4.0,161.1,146.3,160.4,156.0,8.4
4.25,163.6,153.2,166.1,160.9,6.8
4.5,170.5,160.9,172.8,168.1,6.3
4.75,175.4,164.3,176.7,172.2,6.8
5.0,181.7,171.3,180.2,177.7,5.6
5.25,180.5,172.6,182.9,178.7,5.4
5.5,185.7,175.1,184.6,181.8,5.8
5.75,188.1,182.1,190.3,186.8,4.3
6.0,191.0,188.6,193.4,191.0,2.4
6.25,196.1,188.1,198.6,194.3,5.5
6.5,199.7,188.3,200.5,196.1,6.8
6.75,194.7,192.2,200.1,195.7,4.0
7.0,198.6,195.7,204.9,199.7,4.7
7.25,197.9,197.8,202.3,199.3,2.6
7.5,199.1,197.3,199.9,198.8,1.3
7.75,195.2,200.0,205.9,200.3,5.4
8.0,194.9,200.0,208.7,201.2,7.0
8.25,190.6,206.9,200.4,199.3,8.2
8.5,194.3,200.4,201.0,198.6,3.7
8.75,191.0,203.6,200.0,198.2,6.5
9.0,190.7,202.4,194.6,195.9,5.9
9.25,189.0,199.2,193.9,194.0,5.1
9.5,186.2,198.6,188.0,190.9,6.7
9.75,186.8,199.5,186.4,190.9,7.5
10.0,180.4,196.5,185.2,187.4,8.3
10.25,177.7,196.2,176.4,183.4,11.1
10.5,178.9,190.9,174.0,181.3,8.7
10.75,171.4,186.4,169.2,175.6,9.3
11.0,170.7,184.9,169.8,175.1,8.5
11.25,166.9,182.7,163.8,171.1,10.2
11.5,164.9,177.7,162.8,168.5,8.1
11.75,156.4,175.0,152.9,161.4,11.9
12.0,153.1,167.7,149.5,156.7,9.6
12.25,148.5,162.4,145.5,152.1,9.0
12.5,143.1,158.2,141.0,147.4,9.4
12.75,136.8,153.5,135.9,142.1,9.9
13.0,133.1,149.1,128.2,136.8,10.9
13.25,124.3,144.9,124.1,131.1,11.9
13.5,119.9,138.2,118.2,125.4,11.1
13.75,116.3,132.9,114.9,121.4,10.0
14.0,107.8,128.6,110.6,115.7,11.2
14.25,102.4,122.6,107.0,110.7,10.6
14.5,97.7,121.8,100.4,106.7,13.2
14.75,92.7,117.1,98.0,102.6,12.8
15.0,88.2,111.7,94.5,98.1,12.2
15.25,84.8,106.2,89.3,93.4,11.3
15.5,80.8,102.7,85.7,89.7,11.5

File: Lightweight_Gypsum_Wallboard_HRRPUA_75.csv
Time after Ignition,Lightweight_Gypsum_Wallboard_R1,Lightweight_Gypsum_Wallboard_R2,Lightweight_Gypsum_Wallboard_R3,Mean,Std. Dev.
0.0,26.1,47.1,32.1,35.1,10.8
0.25,33.5,52.2,35.6,40.4,10.3
0.5,38.2,64.7,39.4,47.4,14.9
0.75,44.7,76.7,46.5,56.0,18.0
1.0,57.1,82.8,54.4,64.8,15.7
1.25,70.0,91.3,57.7,73.0,17.0
1.5,78.6,101.7,63.8,81.3,19.1
1.75,91.9,112.9,75.0,93.3,19.0
2.0,98.1,119.4,81.8,99.7,18.8
2.25,109.8,129.2,88.2,109.1,20.5
2.5,120.7,136.3,97.6,118.2,19.5
2.75,131.1,140.9,100.2,124.1,21.3
3.0,139.1,151.7,112.9,134.6,19.8
3.25,149.9,155.3,122.2,142.5,17.8
3.5,157.4,159.2,134.4,150.3,13.8
3.75,169.4,166.6,138.9,158.3,16.9
4.0,173.2,173.7,148.9,165.3,14.2
4.25,183.5,174.2,156.7,171.5,13.6
4.5,190.4,180.7,166.6,179.2,12.0
4.75,194.4,186.1,173.2,184.5,10.7
5.0,199.0,186.7,176.0,187.3,11.5
5.25,203.7,194.1,177.2,191.6,13.4
5.5,204.4,190.8,182.2,192.5,11.2
5.75,211.3,196.1,185.5,197.6,13.0
6.0,217.9,196.3,191.3,201.8,14.2
6.25,219.0,202.2,196.3,205.8,11.8
6.5,219.3,204.1,198.5,207.3,10.7
6.75,218.7,201.5,200.2,206.8,10.3
7.0,223.7,205.1,202.0,210.3,11.7
7.25,222.8,204.9,205.4,211.1,10.2
7.5,224.9,206.8,206.0,212.5,10.7
7.75,227.7,206.0,208.8,214.2,11.8
8.0,226.5,203.1,207.4,212.3,12.5
8.25,226.8,200.4,206.0,211.1,13.9
8.5,221.3,201.5,206.9,209.9,10.2
8.75,216.2,190.3,200.8,202.4,13.0
9.0,216.7,186.8,200.2,201.2,14.9
9.25,211.6,187.4,198.3,199.1,12.1
9.5,202.1,181.0,192.9,192.0,10.6
9.75,200.7,177.2,191.2,189.7,11.8
10.0,192.2,172.1,181.4,181.9,10.1
10.25,187.4,167.6,177.3,177.4,9.9
10.5,178.8,160.9,173.6,171.1,9.2
10.75,174.1,155.9,166.3,165.4,9.2
11.0,165.6,154.6,160.8,160.3,5.5
11.25,159.4,146.6,154.7,153.6,6.5
11.5,154.5,140.1,146.3,147.0,7.2
11.75,149.7,135.5,142.1,142.4,7.1
12.0,143.5,132.8,135.0,137.1,5.7
12.25,134.3,125.9,129.5,129.9,4.2